Folder: fsri_materials_database/01_Data/Engineered_Wood_Furniture/Cone (part 3)

File: Engineered_Wood_Furniture_Cone_HF50Scan_220330_R2.csv
Names,Time,Stack TC,Smoke TC,Exh Press,Smoke Comp,Smoke Meas,CO Meter,CO2 Meter,O2 Meter,Sample Mass,Ext Coeff,Start Test,Flame Verif
Chan Gain,,500,500,1,1,1,1,1,1,1,1,1.0,1.0
Offset,,0,0,0.135377,0,0,0,0,0,0,0,0.0,0.0
Gain,,1,1,25.011,13.2062,13.8682,1,1,1,1.0009,1.02317,1.0,1.0
Units,sec,C,C,Pa,%,%,%,%,%,g,/m,,
Baseline,,33.3477,34.6656,146.351,100.196,96.5928,0.000842767,0.0433646,21.073,-835.471,0.328759,,
55,13.5,31.6368,33.4475,147.756,100.277,94.6917,0.000759085,0.0443989,21.0731,-230.187,0.514398,0.0,0.0
110,27.25,32.2177,33.5075,145.468,100.295,92.0935,0.0015018,0.0485095,21.0676,-230.508,0.76569,0.0,0.0
165,41,45.9375,47.8115,111.544,100.285,94.5258,0.00940101,0.99469,19.9087,-233.47,0.530821,0.0,0.0
220,54.75,57.835,61.2294,120.595,100.305,94.1724,0.00598405,0.67487,20.302,-236.123,0.566207,0.0,0.0
275,68.5,64.3607,69.4074,129.635,100.296,93.3755,0.00583956,0.6079,20.3809,-238.645,0.641689,0.0,0.0
330,82.25,67.8777,73.8705,126.247,100.296,93.0974,0.00530777,0.525652,20.4784,-240.847,0.668491,0.0,0.0
385,96,67.7914,74.5584,128.026,100.293,95.6507,0.00439052,0.449428,20.5735,-242.819,0.425398,0.0,0.0
440,109.75,67.5761,73.7654,126.556,100.289,95.8403,0.00417191,0.399495,20.6334,-244.58,0.407227,0.0,0.0
495,123.5,67.1796,73.3883,128.968,100.285,95.7684,0.00341463,0.37534,20.6642,-246.252,0.413607,0.0,0.0
550,137.25,66.3031,72.8468,125.998,100.258,95.2982,0.00340319,0.363303,20.6791,-247.943,0.455401,0.0,0.0
605,151,65.669,72.2749,128.897,100.211,96.1873,0.00326074,0.351406,20.6949,-249.575,0.367787,0.0,0.0
660,164.75,65.3285,71.2,131.042,100.151,96.0688,0.00304646,0.340407,20.7078,-251.206,0.373471,0.0,0.0
715,178.5,64.7004,70.2338,133.22,100.093,96.2915,0.00283043,0.328795,20.7236,-252.788,0.347531,0.0,0.0
770,192.25,63.6051,68.9662,136.928,99.967,95.8924,0.0027642,0.319815,20.735,-254.339,0.373489,0.0,0.0
825,206,63.2954,68.6675,130.409,99.8005,96.076,0.00271014,0.311118,20.7453,-255.82,0.341357,0.0,0.0
880,219.75,62.3366,67.8023,130.209,99.6123,95.4679,0.002742,0.302999,20.7547,-257.312,0.381411,0.0,0.0
935,233.5,62.1297,67.427,131.974,99.4201,95.4865,0.00251584,0.294126,20.7657,-258.763,0.362322,0.0,0.0
990,247.25,61.6538,66.3956,133.68,99.31,95.8894,0.00218868,0.287244,20.774,-260.164,0.314592,0.0,0.0
1045,261,60.7863,65.5015,130.531,99.2016,95.8373,0.00236696,0.279173,20.7818,-261.506,0.309663,0.0,0.0
1100,274.75,60.5542,65.1933,135.958,99.0549,95.5305,0.00204398,0.274267,20.789,-262.857,0.325162,0.0,0.0
1155,288.5,59.8572,64.1802,129.779,98.8663,94.8643,0.00199481,0.271906,20.7928,-264.228,0.370861,0.0,0.0
1210,302.25,59.7015,64.4315,138.107,98.6487,95.1521,0.00225988,0.266367,20.8005,-265.519,0.323895,0.0,0.0
1265,316,59.3928,63.4198,128.899,98.4972,95.2414,0.00204345,0.265122,20.8015,-266.77,0.301679,0.0,0.0
1320,329.75,58.7026,63.118,131.125,98.392,95.0662,0.00212156,0.26335,20.8038,-268.082,0.308615,0.0,0.0
1375,343.5,58.8285,63.0386,131.221,98.3492,94.7615,0.00203746,0.263223,20.8034,-269.383,0.333533,0.0,0.0
1430,357.25,58.7949,62.7744,132.634,98.3319,94.6108,0.00195542,0.263917,20.8047,-270.554,0.346232,0.0,0.0
1485,371,58.5554,62.638,132.747,98.3339,94.5783,0.00197551,0.267451,20.7985,-271.825,0.349508,0.0,0.0
1540,384.75,58.7661,62.6383,134.514,98.3537,94.726,0.00199942,0.271742,20.7917,-273.056,0.337304,0.0,0.0
1595,398.5,59.0279,62.9012,134.227,98.4117,94.4695,0.00214255,0.281225,20.7811,-274.367,0.366933,0.0,0.0
1650,412.25,58.4192,62.1289,128.014,98.5362,94.748,0.00201672,0.288993,20.7718,-275.668,0.351865,0.0,0.0
1705,426,59.4272,63.0293,130.628,98.6245,94.511,0.00244153,0.298981,20.7629,-277.03,0.38238,0.0,0.0
1760,439.75,60.1048,63.8519,131.657,98.7394,94.869,0.00232127,0.306785,20.7517,-278.421,0.358888,0.0,0.0
1815,453.5,60.3245,64.5,136.458,98.8566,94.1897,0.00249218,0.320547,20.7358,-279.822,0.434036,0.0,0.0
1870,467.25,60.8959,64.689,132.763,98.9864,93.3044,0.00283706,0.334367,20.7193,-281.303,0.530577,0.0,0.0
1925,481,61.8804,65.7633,131.653,99.063,93.9074,0.00278219,0.342946,20.7065,-282.805,0.479692,0.0,0.0
1980,494.75,62.479,66.4582,131.266,99.1694,93.397,0.00338766,0.354062,20.693,-284.386,0.53824,0.0,0.0
2035,508.5,63.1552,66.8828,136.756,99.2403,93.2036,0.00339516,0.359242,20.6865,-285.928,0.563264,0.0,0.0
2090,522.25,63.831,67.4523,135.065,99.2855,93.0487,0.00360149,0.362801,20.6815,-287.499,0.582274,0.0,0.0
2145,536,63.9467,67.9039,132.505,99.3225,93.0923,0.00363725,0.361094,20.6852,-289.1,0.581422,0.0,0.0
2200,549.75,64.444,68.9318,127.034,99.3689,92.9603,0.00361148,0.36569,20.6803,-290.652,0.598349,0.0,0.0
2255,563.5,64.4098,68.6159,127.861,99.4354,92.7097,0.00342239,0.362742,20.6812,-292.203,0.628576,0.0,0.0
2310,577.25,64.2516,69.5905,129.27,99.4713,92.9645,0.00366959,0.364364,20.6803,-293.815,0.607181,0.0,0.0
2365,591,65.0797,69.1989,130.089,99.5402,92.8138,0.00347935,0.361838,20.6811,-295.336,0.627955,0.0,0.0
2420,604.75,64.6565,69.2601,131.604,99.5881,93.8757,0.00346501,0.357416,20.6874,-296.867,0.530178,0.0,0.0
2475,618.5,65.4101,69.4865,133.611,99.6264,94.1732,0.00351879,0.355681,20.6872,-298.399,0.505228,0.0,0.0
2530,632.25,64.3822,68.9479,129.074,99.6454,93.8952,0.00341979,0.356871,20.6848,-299.9,0.533472,0.0,0.0
2585,646,65.4091,69.5204,129.607,99.6478,94.3726,0.00340951,0.354674,20.6894,-301.382,0.488173,0.0,0.0
2640,659.75,65.4911,69.8343,124.647,99.6248,94.3806,0.00307043,0.352556,20.6933,-302.873,0.485338,0.0,0.0
2695,673.5,65.6291,69.8358,134.056,99.595,94.4009,0.00292822,0.351377,20.6929,-304.304,0.480719,0.0,0.0
2750,687.25,65.6141,69.7064,133.374,99.543,94.3518,0.0033957,0.349175,20.694,-305.725,0.480702,0.0,0.0
2805,701,65.6044,69.6586,129.058,99.4636,94.8826,0.00281273,0.345558,20.6972,-307.117,0.423197,0.0,0.0
2860,714.75,65.4255,70.0431,128.922,99.3906,94.2845,0.00305078,0.342692,20.7001,-308.468,0.47336,0.0,0.0
2915,728.5,65.4543,69.6157,130.969,99.2919,94.2045,0.00309438,0.342047,20.6998,-309.869,0.472056,0.0,0.0
2970,742.25,65.639,69.6227,133.731,99.2117,94.3103,0.00317035,0.338356,20.7048,-311.14,0.454729,0.0,0.0
3025,756,65.2294,69.7694,131.754,99.1807,94.001,0.00292035,0.323821,20.7195,-312.361,0.481412,0.0,0.0
3080,769.75,65.0135,69.1033,129.822,99.1424,93.9476,0.00320831,0.317521,20.7267,-313.532,0.48304,0.0,0.0
3135,783.5,63.9079,67.7109,135.667,99.3233,94.238,0.00289561,0.282104,20.7674,-314.533,0.471712,0.0,0.0
3190,797.25,61.9179,65.66,137.413,99.5486,94.3286,0.00236392,0.207904,20.8572,-315.204,0.483426,0.0,0.0
3245,811,58.6285,62.129,141.53,99.7239,95.3701,0.00292492,0.156055,20.913,-315.644,0.400659,0.0,0.0
3300,824.75,55.8338,58.9063,140.363,99.8686,96.112,0.00340072,0.137081,20.939,-315.915,0.34412,0.0,0.0
3355,838.5,53.4242,56.004,144.611,99.9843,95.7375,0.00421039,0.127306,20.9528,-316.155,0.389555,0.0,0.0
3410,852.25,51.2765,53.7001,139.871,100.026,96.2585,0.00476386,0.124483,20.9562,-316.415,0.344571,0.0,0.0
3465,866,49.7548,51.7555,144.63,100.028,96.5065,0.00501682,0.12107,20.965,-316.645,0.321658,0.0,0.0
3520,879.75,48.5891,50.3741,143.269,99.9662,95.726,0.00550837,0.120003,20.9652,-316.845,0.388998,0.0,0.0
3575,893.5,47.4732,48.6456,138.203,99.8799,95.3777,0.0059408,0.115895,20.9729,-317.056,0.413968,0.0,0.0
3630,907.25,46.4509,47.8419,139.845,99.7735,95.7751,0.00567326,0.114002,20.9764,-317.266,0.367084,0.0,0.0
3685,921,45.69,46.7187,141.357,99.6417,95.7599,0.00635225,0.113898,20.9764,-317.416,0.356648,0.0,0.0
3740,934.75,45.1735,46.1537,141.121,99.5051,95.5948,0.00657708,0.1144,20.9797,-317.606,0.359817,0.0,0.0
3795,948.5,44.4901,45.5479,143.198,99.5539,95.5986,0.00659254,0.116078,20.9768,-317.796,0.363857,0.0,0.0
3850,962.25,44.2136,44.9201,138.573,99.5772,95.5699,0.00668997,0.111508,20.9872,-317.936,0.368667,0.0,0.0
3905,976,43.5056,44.4707,140.809,99.6248,96.0591,0.00657966,0.11042,20.9847,-318.117,0.327123,0.0,0.0
3960,989.75,43.1431,44.1515,140.54,99.7006,95.3557,0.00703922,0.109846,20.9847,-318.267,0.39991,0.0,0.0
4015,1003.5,42.8486,43.3523,145.047,99.811,95.5013,0.00745851,0.109923,20.9851,-318.407,0.396151,0.0,0.0
4070,1017.25,42.4565,43.2976,145.447,99.9351,96.523,0.00757378,0.108164,20.9865,-318.587,0.311801,0.0,0.0
4125,1031,42.0577,43.4028,142.223,100.057,96.0803,0.00796252,0.109444,20.986,-318.737,0.363984,0.0,0.0
4180,1044.75,42.1021,42.7488,142.458,100.12,96.0832,0.00802221,0.107643,20.9908,-318.887,0.369381,0.0,0.0
4235,1058.5,41.3036,42.4622,140.004,100.162,95.9643,0.00810862,0.107488,20.9893,-319.017,0.38429,0.0,0.0
4290,1072.25,41.33,42.2671,140.046,100.212,96.1924,0.0076602,0.107014,20.9933,-319.158,0.367458,0.0,0.0
4345,1086,41.1881,42.103,142.333,100.237,96.3232,0.00871359,0.106106,20.9905,-319.308,0.357464,0.0,0.0
4400,1099.75,41.0241,42.0551,141.581,100.259,96.443,0.00806125,0.105076,20.9893,-319.438,0.348261,0.0,0.0
4455,1113.5,40.9372,42.0991,142.355,100.259,96.0164,0.00857092,0.103757,20.9955,-319.578,0.38805,0.0,0.0
4510,1127.25,40.4921,41.3793,138.826,100.249,96.2957,0.00873238,0.103521,20.9944,-319.728,0.361111,0.0,0.0
4565,1141,40.0794,41.6603,141.968,100.238,96.6275,0.00907037,0.105044,20.9985,-319.858,0.329264,0.0,0.0
4620,1154.75,39.9562,41.4227,145.31,100.227,96.3219,0.0090555,0.103314,20.9971,-319.998,0.356717,0.0,0.0
4675,1168.5,40.0239,41.3147,141.484,100.238,96.3376,0.00909102,0.10194,20.9982,-320.118,0.356197,0.0,0.0
4730,1182.25,39.9384,41.1311,144.978,100.265,96.3647,0.00942492,0.101754,20.9976,-320.228,0.356091,0.0,0.0
4785,1196,39.5764,40.4207,140.063,100.286,97.6669,0.0101084,0.10174,20.9944,-320.379,0.237489,0.0,0.0
4840,1209.75,39.2028,39.6363,143.444,100.293,96.5386,0.0101465,0.100262,21.001,-320.509,0.342393,0.0,0.0
4895,1223.5,38.7022,40.2993,144.91,100.313,96.1675,0.0102297,0.100201,20.999,-320.649,0.378807,0.0,0.0
4950,1237.25,38.7075,40.1124,144.657,100.329,95.9918,0.00958502,0.0987846,20.9984,-320.769,0.396619,0.0,0.0
5005,1251,38.504,39.7692,142.042,100.312,97.2755,0.00941318,0.0987988,20.9997,-320.899,0.275881,0.0,0.0
5060,1264.75,38.1799,39.3904,142.718,100.302,96.2868,0.0090599,0.0984331,20.9999,-321.019,0.366666,0.0,0.0
5115,1278.5,37.9772,39.2654,144.749,100.292,96.112,0.00931958,0.0985668,21.0016,-321.139,0.382107,0.0,0.0
5170,1292.25,38.0965,38.8388,144.863,100.287,96.4379,0.00930884,0.098525,21.0038,-321.259,0.351257,0.0,0.0
5225,1306,37.6999,39.4414,142.183,100.278,96.2491,,,,-321.38,0.368012,0.0,0.0
5246,1311.25,37.5715,39.1091,144.227,100.306,96.2665,,,,-321.43,0.368955,0.0,0.0

File: Engineered_Wood_Furniture_Cone_HF50Scan_220330_R3.csv
Names,Time,Stack TC,Smoke TC,Exh Press,Smoke Comp,Smoke Meas,CO Meter,CO2 Meter,O2 Meter,Sample Mass,Ext Coeff,Start Test,Flame Verif
Chan Gain,,500,500,1,1,1,1,1,1,1,1,1.0,1.0
Offset,,0,0,0.135377,0,0,0,0,0,0,0,0.0,0.0
Gain,,1,1,25.011,13.2062,13.8682,1,1,1,1.0009,1.02317,1.0,1.0
Units,sec,C,C,Pa,%,%,%,%,%,g,/m,,
Baseline,,33.3792,34.8395,145.804,100.039,96.2779,0.000709151,0.0428405,21.0738,-835.642,0.343982,,
56,13.75,32.8326,33.3365,145.699,100.208,92.9421,0.00130618,0.0438219,21.0734,-227.725,0.675539,0.0,0.0
112,27.75,39.8323,41.6621,109.528,100.216,93.2214,0.0084881,0.698091,20.1853,-229.717,0.649328,0.0,0.0
168,41.75,51.0715,54.2462,130.697,100.227,96.4624,0.00396542,0.409339,20.6188,-231.799,0.343562,0.0,0.0
224,55.75,56.8596,61.4833,127.079,100.232,93.5274,0.00505232,0.584949,20.42,-234.111,0.621395,0.0,0.0
280,69.75,64.1137,69.3911,121.723,100.227,92.51,0.00576557,0.617647,20.3759,-236.733,0.719098,0.0,0.0
336,83.75,67.7126,74.2305,119.633,100.237,94.0247,0.00505689,0.545414,20.4555,-239.105,0.574234,0.0,0.0
392,97.75,69.4978,75.8331,126.266,100.243,95.5017,0.00414778,0.478159,20.536,-241.237,0.434843,0.0,0.0
448,111.75,69.1283,76.0883,127.571,100.2,95.8018,0.00364745,0.415394,20.613,-243.089,0.402896,0.0,0.0
504,125.75,67.8557,75.5085,127.61,100.132,96.4887,0.00318416,0.383217,20.6535,-244.891,0.332635,0.0,0.0
560,139.75,67.2692,73.896,132.793,100.065,96.0367,0.00295701,0.36111,20.6799,-246.612,0.36878,0.0,0.0
616,153.75,66.6083,72.8851,129.655,99.996,95.7629,0.00286778,0.343813,20.7017,-248.244,0.388224,0.0,0.0
672,167.75,65.5133,71.4802,129.391,99.8989,96.0473,0.0027627,0.331594,20.7181,-249.825,0.352886,0.0,0.0
728,181.75,64.353,70.456,127.322,99.8481,96.1162,0.00259275,0.321477,20.7293,-251.437,0.341878,0.0,0.0
784,195.75,64.0754,69.441,130.141,99.7437,96.7138,0.00268977,0.310522,20.7411,-252.908,0.276861,0.0,0.0
840,209.75,62.9448,68.793,133.111,99.5966,95.9999,0.00257583,0.302209,20.7521,-254.399,0.330119,0.0,0.0
896,223.75,62.3619,68.0905,133.216,99.3858,96.021,0.00241286,0.292081,20.766,-255.85,0.309126,0.0,0.0
952,237.75,61.9544,67.2273,132.721,99.2311,95.7277,0.0025685,0.283739,20.7771,-257.262,0.322596,0.0,0.0
1008,251.75,61.5891,65.9114,131.064,99.0739,95.7658,0.00215926,0.277072,20.7837,-258.663,0.304798,0.0,0.0
1064,265.75,60.6203,65.5884,135.668,98.9377,95.5961,0.00214603,0.270068,20.7934,-259.954,0.308368,0.0,0.0
1120,279.75,60.44,64.2706,137.125,98.7845,95.5022,0.00186208,0.264867,20.8011,-261.275,0.30329,0.0,0.0
1176,293.75,58.9693,64.9871,135.967,98.6261,94.8284,0.00177505,0.261287,20.8042,-262.567,0.352433,0.0,0.0
1232,307.75,58.8619,63.7727,137.449,98.5286,94.9964,0.0019505,0.257687,20.8078,-263.848,0.327664,0.0,0.0
1288,321.75,58.6902,62.7538,132.292,98.4802,94.8508,0.00195991,0.257328,20.8116,-265.109,0.337024,0.0,0.0
1344,335.75,58.4272,62.5882,136.221,98.4327,95.167,0.00217248,0.257178,20.811,-266.34,0.302824,0.0,0.0
1400,349.75,58.1622,62.2604,134.893,98.4327,94.8343,0.00203177,0.259799,20.8062,-267.581,0.334251,0.0,0.0
1456,363.75,58.7636,61.2415,131.276,98.4391,94.9608,0.00178577,0.263397,20.8023,-268.822,0.32287,0.0,0.0
1512,377.75,58.5167,61.9179,138.924,98.4794,94.8038,0.00223035,0.268839,20.7961,-270.123,0.341396,0.0,0.0
1568,391.75,58.5853,62.1613,133.037,98.5536,95.0311,0.0016943,0.274751,20.7909,-271.374,0.326662,0.0,0.0
1624,405.75,58.8807,62.1624,130.616,98.6761,94.836,0.0017186,0.281569,20.7816,-272.676,0.356258,0.0,0.0
1680,419.75,58.8814,62.5496,133.47,98.8361,95.0019,0.00191475,0.288036,20.773,-274.037,0.355113,0.0,0.0
1736,433.75,60.001,62.8803,133.692,98.9453,94.9947,0.0020793,0.297,20.7646,-275.348,0.365705,0.0,0.0
1792,447.75,60.0772,63.873,132.826,98.9006,94.6612,0.00229829,0.307464,20.7524,-276.729,0.393211,0.0,0.0
1848,461.75,60.3024,64.4547,128.621,99.0191,94.5457,0.0022025,0.315262,20.7428,-278.141,0.414919,0.0,0.0
1904,475.75,61.0184,64.8541,131.563,99.1903,94.4813,0.00221853,0.324113,20.7336,-279.602,0.43654,0.0,0.0
1960,489.75,61.2126,65.4313,128.924,99.3399,94.5055,0.00233473,0.333114,20.7219,-281.103,0.447768,0.0,0.0
2016,503.75,61.9804,66.1129,129.819,99.4777,94.3688,0.00245918,0.341014,20.7109,-282.575,0.473203,0.0,0.0
2072,517.75,62.7987,66.6794,132.788,99.52,94.3438,0.00304676,0.341962,20.7064,-284.076,0.479396,0.0,0.0
2128,531.75,62.7286,66.9968,135.255,99.5075,94.0911,0.00255957,0.346237,20.7039,-285.647,0.502339,0.0,0.0
2184,545.75,63.0414,67.5323,128.068,99.5204,94.2037,0.00286156,0.353116,20.6963,-287.139,0.492769,0.0,0.0
2240,559.75,63.9894,67.2716,130.357,99.5809,94.158,0.0028807,0.35495,20.6942,-288.68,0.502576,0.0,0.0
2296,573.75,64.1263,68.5251,133.557,99.6304,93.8579,0.00352216,0.361116,20.6857,-290.272,0.535691,0.0,0.0
2352,587.75,64.5483,69.1506,126.622,99.6482,94.1288,0.00336513,0.369152,20.6727,-291.843,0.511423,0.0,0.0
2408,601.75,65.4068,69.5903,134.097,99.6675,94.3556,0.00337329,0.370944,20.6688,-293.384,0.491562,0.0,0.0
2464,615.75,65.7056,69.8492,128.426,99.6865,93.728,0.00396555,0.367933,20.6717,-294.986,0.553168,0.0,0.0
2520,629.75,65.8493,69.4324,130.635,99.7276,93.9726,0.00352493,0.361985,20.6803,-296.517,0.533475,0.0,0.0
2576,643.75,66.0008,70.0797,133.304,99.7227,93.9565,0.00344328,0.362598,20.6789,-298.059,0.534576,0.0,0.0
2632,657.75,66.002,71.0489,128.55,99.7219,94.566,0.00312224,0.368733,20.67,-299.55,0.476474,0.0,0.0
2688,671.75,66.9842,70.7647,129.184,99.7191,93.9472,0.00300087,0.372579,20.6662,-301.091,0.535138,0.0,0.0
2744,685.75,67.4809,70.6379,129.767,99.7223,94.2198,0.00361492,0.370425,20.6633,-302.613,0.509428,0.0,0.0
2800,699.75,67.5381,71.5163,131.054,99.7131,94.0848,0.00347232,0.372492,20.6606,-304.144,0.521464,0.0,0.0
2856,713.75,67.6336,71.4372,132.254,99.7159,94.1601,0.00327764,0.365871,20.6663,-305.595,0.514533,0.0,0.0
2912,727.75,66.704,71.3542,131.767,99.6832,94.4449,0.00289728,0.345701,20.6928,-306.967,0.484487,0.0,0.0
2968,741.75,66.7869,70.5984,133.393,99.6091,93.9074,0.00314415,0.331252,20.7143,-308.288,0.529032,0.0,0.0
3024,755.75,65.8728,69.8843,133.923,99.5426,93.7428,0.00282291,0.315149,20.7327,-309.509,0.538788,0.0,0.0
3080,769.75,64.7605,69.0369,130.892,99.4374,94.4208,0.00226104,0.303251,20.7465,-310.66,0.464617,0.0,0.0
3136,783.75,64.3575,67.4459,134.301,99.3322,94.2168,0.00248949,0.283424,20.7697,-311.721,0.47453,0.0,0.0
3192,797.75,62.6259,66.3072,134.964,99.2089,94.3349,0.00200894,0.253533,20.8052,-312.632,0.452138,0.0,0.0
3248,811.75,60.8029,64.2175,135.625,99.4636,95.1369,0.00196481,0.213159,20.8511,-313.362,0.399169,0.0,0.0
3304,825.75,59.0237,60.8531,136.98,99.7961,94.9253,0.00270745,0.172292,20.897,-313.853,0.449108,0.0,0.0
3360,839.75,55.8369,58.5594,140.846,100.027,95.4319,0.00495391,0.14965,20.9252,-314.283,0.422081,0.0,0.0
3416,853.75,53.1299,56.0786,139.024,100.083,95.6168,0.00544746,0.139999,20.9341,-314.573,0.409729,0.0,0.0
3472,867.75,51.528,53.8452,139.443,100.072,95.9745,0.00581306,0.138003,20.9366,-314.854,0.375247,0.0,0.0
3528,881.75,49.872,52.6581,140.715,100.016,95.8115,0.00610668,0.135356,20.9421,-315.114,0.385472,0.0,0.0
3584,895.75,49.1529,50.7452,136.508,99.9291,95.5225,0.00647516,0.132269,20.944,-315.384,0.404776,0.0,0.0
3640,909.75,48.4583,49.4141,141.076,99.8565,95.5661,0.00680559,0.131132,20.9498,-315.614,0.394163,0.0,0.0
3696,923.75,47.0022,49.0659,138.364,99.7514,95.3858,0.00692273,0.130667,20.9506,-315.825,0.401651,0.0,0.0
3752,937.75,46.835,48.0214,140.418,99.6982,95.4031,0.00716045,0.129606,20.951,-316.055,0.395231,0.0,0.0
3808,951.75,45.8412,47.5142,139.195,99.6377,95.4349,0.0073965,0.129378,20.9501,-316.295,0.386802,0.0,0.0
3864,965.75,45.9274,46.6537,141.175,99.6433,95.2338,0.00745634,0.127963,20.9522,-316.465,0.406236,0.0,0.0
3920,979.75,45.4917,46.1279,143.451,99.6683,95.3756,0.00801946,0.129187,20.9509,-316.645,0.395135,0.0,0.0
3976,993.75,44.5915,45.4714,139.756,99.6248,95.2965,0.00814486,0.128257,20.9486,-316.885,0.398664,0.0,0.0
4032,1007.75,44.7066,45.2719,142.866,99.6127,95.2199,0.00787957,0.12732,20.953,-317.086,0.404794,0.0,0.0
4088,1021.75,43.8301,45.1378,140.209,99.618,95.5093,0.00831775,0.127096,20.9522,-317.276,0.37802,0.0,0.0
4144,1035.75,43.3163,44.7655,138.876,99.6361,95.0472,0.00859156,0.126384,20.9519,-317.476,0.423189,0.0,0.0
4200,1049.75,43.5111,44.6307,140.249,99.6703,95.1183,0.00928541,0.125915,20.954,-317.666,0.419563,0.0,0.0
4256,1063.75,42.7279,44.4866,142.689,99.7062,95.437,0.00969108,0.124697,20.9585,-317.856,0.392772,0.0,0.0
4312,1077.75,42.8277,43.8261,141.352,99.7679,95.6185,0.0100764,0.125417,20.9602,-318.067,0.381262,0.0,0.0
4368,1091.75,42.1098,43.5902,142.69,99.8332,95.597,0.0110818,0.124706,20.9617,-318.237,0.389161,0.0,0.0
4424,1105.75,42.4591,43.3107,139.842,99.867,95.6774,0.0108309,0.124043,20.9616,-318.467,0.384658,0.0,0.0
4480,1119.75,42.3747,43.2116,139.701,99.9198,95.5123,0.011493,0.127259,20.9615,-318.647,0.404898,0.0,0.0
4536,1133.75,41.684,43.2734,140.627,99.9879,95.7188,0.0120431,0.12501,20.9635,-318.787,0.391626,0.0,0.0
4592,1147.75,41.7068,42.9172,144.593,100.043,95.58,0.0117253,0.124993,20.9617,-319.037,0.409571,0.0,0.0
4648,1161.75,41.8711,42.796,140.248,100.069,95.4734,0.0124434,0.126508,20.9608,-319.178,0.421904,0.0,0.0
4704,1175.75,41.2597,42.7216,142.655,100.083,95.5148,0.0122431,0.129322,20.9595,-319.358,0.419272,0.0,0.0
4760,1189.75,41.5831,42.859,142.489,100.076,96.5598,0.0123011,0.124565,20.9673,-319.568,0.321038,0.0,0.0
4816,1203.75,41.0066,42.7262,144.257,100.071,95.8877,0.0123644,0.123959,20.9647,-319.738,0.383255,0.0,0.0
4872,1217.75,40.023,41.551,142.534,100.079,95.6659,0.0125002,0.124531,20.9659,-319.888,0.404797,0.0,0.0
4928,1231.75,40.377,41.9378,142.39,100.05,95.6444,0.0125168,0.123359,20.9701,-320.068,0.404219,0.0,0.0
4984,1245.75,40.5897,41.5524,143.06,100.037,96.0206,0.012631,0.120629,20.9708,-320.249,0.367752,0.0,0.0
5040,1259.75,40.5414,41.3331,143.469,100.023,96.0748,0.0122275,0.120344,20.9692,-320.429,0.361497,0.0,0.0
5096,1273.75,40.0164,41.5108,144.351,100.022,95.7595,0.0128148,0.121224,20.9733,-320.609,0.390856,0.0,0.0
5152,1287.75,39.1508,41.0877,146.007,100.05,95.7116,0.0121216,0.120227,20.9715,-320.769,0.397907,0.0,0.0
5208,1301.75,39.5673,41.2556,143.58,100.055,95.7938,0.0126605,0.12092,20.972,-320.939,0.390608,0.0,0.0
5264,1315.75,39.788,40.9166,144.512,100.028,96.3461,0.0125132,0.121256,20.9695,-321.089,0.336587,0.0,0.0
5320,1329.75,39.8472,40.7257,139.728,100.001,96.0748,,,,-321.279,0.359508,0.0,0.0
5323,1330.5,39.5885,40.945,140.4,100.01,95.7159,,,,-321.289,0.39393,0.0,0.0