Folder: fsri_materials_database/01_Data/Engineered_Wood_Furniture/Cone (part 5)

File: Engineered_Wood_Furniture_Cone_HF75Scan_220330_R3.csv
Names,Time,Stack TC,Smoke TC,Exh Press,Smoke Comp,Smoke Meas,CO Meter,CO2 Meter,O2 Meter,Sample Mass,Ext Coeff,Start Test,Flame Verif
Chan Gain,,500,500,1,1,1,1,1,1,1,1,1.0,1.0
Offset,,0,0,0.135377,0,0,0,0,0,0,0,0.0,0.0
Gain,,1,1,25.011,13.2062,13.8682,1,1,1,1.0009,1.02317,1.0,1.0
Units,sec,C,C,Pa,%,%,%,%,%,g,/m,,
Baseline,,45.1891,47.2438,141.027,100.043,95.4417,0.000867039,0.0433281,21.0698,-836.396,0.422634,,
42,10.25,44.5005,45.8644,133.349,100.036,96.6779,0.00345348,0.137205,20.9505,-228.566,0.30649,0.0,1.0
84,20.75,60.816,64.8313,111.069,100.028,94.7789,0.00979069,1.05743,19.8337,-231.479,0.483781,0.0,0.0
126,31.25,67.5513,72.6588,115.5,100.006,93.9895,0.00661266,0.687981,20.273,-233.35,0.556851,0.0,0.0
168,41.75,76.9495,83.4365,109.153,100.005,91.4743,0.00804468,0.888065,20.0374,-235.893,0.800269,0.0,0.0
210,52.25,84.1341,91.8177,112.1,100.037,91.1607,0.00812292,0.822813,20.0958,-238.265,0.833912,0.0,0.0
252,62.75,87.5641,95.8735,117.694,100.042,92.1426,0.00751325,0.685083,20.2614,-240.427,0.738228,0.0,0.0
294,73.25,89.0551,97.7245,120.119,100.041,94.4492,0.00623668,0.591767,20.3697,-242.308,0.51625,0.0,0.0
336,83.75,88.3157,97.5061,121.039,100.067,95.2254,0.00521525,0.528653,20.4518,-243.99,0.445069,0.0,0.0
378,94.25,88.0281,96.5791,124.453,100.048,94.5474,0.00513264,0.496046,20.4971,-245.651,0.507575,0.0,0.0
420,104.75,87.2552,96.0175,125.311,100.068,95.2254,0.0047195,0.475108,20.5254,-247.263,0.445178,0.0,0.0
462,115.25,86.2338,95.1491,124.873,100.037,96.4459,0.00437743,0.457321,20.5465,-248.774,0.328155,0.0,0.0
504,125.75,85.4753,94.5504,122.631,100.008,95.6355,0.00449174,0.438955,20.5717,-250.296,0.401221,0.0,0.0
546,136.25,84.7162,93.106,124.56,99.9686,96.0604,0.00416042,0.421623,20.5927,-251.757,0.357922,0.0,0.0
588,146.75,83.8307,92.2845,124.831,99.9093,96.2136,0.00379355,0.40572,20.6137,-253.178,0.338298,0.0,0.0
630,157.25,83.1636,91.4098,124.844,99.8336,96.7646,0.00394975,0.391233,20.6308,-254.599,0.280233,0.0,0.0
672,167.75,82.3686,90.2586,125.113,99.7788,96.043,0.003331,0.379363,20.647,-255.931,0.342484,0.0,0.0
714,178.25,81.4498,89.4001,122.306,99.682,96.1412,0.00286711,0.367669,20.6624,-257.242,0.324608,0.0,0.0
756,188.75,80.6427,87.7697,126.437,99.599,97.1963,0.00314095,0.358626,20.6724,-258.573,0.21917,0.0,0.0
798,199.25,80.0405,87.3414,124.146,99.5539,97.0943,0.00297636,0.349649,20.6844,-259.804,0.224524,0.0,0.0
840,209.75,79.1926,86.588,126.908,99.491,96.7409,0.00296089,0.345646,20.6905,-261.075,0.25158,0.0,0.0
882,220.25,78.6445,85.5998,123.296,99.4652,96.5852,0.00261415,0.338431,20.6979,-262.286,0.263715,0.0,0.0
924,230.75,78.3136,85.0469,124.475,99.4539,97.1713,0.00289305,0.336207,20.7019,-263.507,0.208392,0.0,0.0
966,241.25,78.234,84.2669,123.444,99.4515,97.0888,0.00248707,0.331145,20.7101,-264.719,0.2158,0.0,0.0
1008,251.75,77.7104,83.8515,123.242,99.4567,97.5878,0.00258972,0.330728,20.7104,-265.92,0.170263,0.0,0.0
1050,262.25,77.2617,83.3922,122.697,99.4511,96.9259,0.00246238,0.327332,20.7115,-267.081,0.230838,0.0,0.0
1092,272.75,76.9853,82.894,126.601,99.4209,96.7134,0.00240346,0.326435,20.7141,-268.312,0.247805,0.0,0.0
1134,283.25,76.8278,82.6982,123.13,99.4975,96.3613,0.00250655,0.330192,20.7096,-269.473,0.287452,0.0,0.0
1176,293.75,76.6464,82.2994,128.709,99.6337,96.545,0.00234421,0.33513,20.702,-270.684,0.28264,0.0,0.0
1218,304.25,76.749,82.2496,127.878,99.8118,97.2725,0.00231469,0.339742,20.6995,-271.815,0.231293,0.0,0.0
1260,314.75,76.9206,82.5415,126.427,99.938,97.0918,0.00271934,0.342898,20.6955,-273.036,0.259318,0.0,0.0
1302,325.25,76.7816,82.5183,123.184,99.9972,97.606,0.00292347,0.351163,20.6873,-274.267,0.217229,0.0,0.0
1344,335.75,77.1366,82.9895,121.294,100.06,97.5925,0.00255825,0.354723,20.6805,-275.498,0.224152,0.0,0.0
1386,346.25,77.3695,82.7648,125.109,100.129,96.6275,0.00312014,0.363795,20.6691,-276.739,0.319479,0.0,0.0
1428,356.75,77.8684,83.5722,122.833,100.179,95.9516,0.00338425,0.372454,20.6612,-278.01,0.386958,0.0,0.0
1470,367.25,77.8385,83.7844,123.29,100.249,96.7308,0.00303811,0.382988,20.6504,-279.242,0.320652,0.0,0.0
1512,377.75,78.83,84.5126,127.942,100.269,96.2627,0.00326166,0.387431,20.6424,-280.543,0.365956,0.0,0.0
1554,388.25,78.8432,84.3086,125.373,100.276,95.9135,0.00346832,0.397936,20.6281,-281.894,0.399256,0.0,0.0
1596,398.75,79.2599,84.8035,124.531,100.226,96.2386,0.00365893,0.402598,20.6235,-283.215,0.364381,0.0,0.0
1638,409.25,79.7348,85.4947,123.023,100.123,95.6596,0.00399162,0.403838,20.6226,-284.556,0.409259,0.0,0.0
1680,419.75,80.0806,85.4766,123.24,99.9843,95.3248,0.00409468,0.410217,20.6126,-285.878,0.428323,0.0,0.0
1722,430.25,80.2585,86.1583,123.113,99.8557,94.3277,0.00405222,0.413257,20.6096,-287.219,0.511151,0.0,0.0
1764,440.75,80.5916,86.8106,120.768,99.8344,94.1419,0.00443506,0.414025,20.607,-288.57,0.526927,0.0,0.0
1806,451.25,80.3829,86.4078,122.546,99.9247,93.9045,0.00451294,0.414057,20.6108,-289.861,0.557704,0.0,0.0
1848,461.75,80.313,86.5699,123.715,100.019,94.2333,0.00431148,0.40845,20.6162,-291.152,0.534832,0.0,0.0
1890,472.25,81.0069,86.912,126.395,100.069,93.8258,0.00444408,0.414475,20.6087,-292.564,0.578218,0.0,0.0
1932,482.75,81.4238,87.3707,119.044,100.163,95.4772,0.00414732,0.41108,20.6117,-293.855,0.430037,0.0,0.0
1974,493.25,81.3902,87.1416,128.167,100.238,94.9816,0.00404616,0.410078,20.6144,-295.206,0.483462,0.0,0.0
2016,503.75,81.4984,87.6525,123.348,100.297,95.0184,0.00461682,0.419105,20.6016,-296.487,0.485286,0.0,0.0
2058,514.25,82.1893,87.692,119.557,100.381,95.1069,0.00444184,0.425295,20.5954,-297.828,0.484432,0.0,0.0
2100,524.75,82.2185,88.0695,124.75,100.454,94.7801,0.0042656,0.426066,20.593,-299.22,0.521804,0.0,0.0
2142,535.25,82.6559,88.6221,122.637,100.497,94.4225,0.00427675,0.43142,20.584,-300.461,0.55962,0.0,0.0
2184,545.75,82.8477,88.6011,125.44,100.554,94.5397,0.0046807,0.432504,20.5807,-301.822,0.553557,0.0,0.0
2226,556.25,83.0947,89.2776,125.256,100.605,93.8126,0.00424852,0.442637,20.5645,-303.203,0.627419,0.0,0.0
2268,566.75,83.6434,89.8477,121.126,100.663,94.4238,0.0042368,0.450465,20.5531,-304.594,0.574317,0.0,0.0
2310,577.25,84.367,90.3785,123.828,100.682,94.1999,0.00418396,0.454439,20.5479,-305.936,0.597276,0.0,0.0
2352,587.75,84.9203,90.5989,123.973,100.666,94.2041,0.00418273,0.448608,20.5527,-307.267,0.595472,0.0,0.0
2394,598.25,84.7616,90.7458,121.357,100.594,94.4576,0.00429326,0.440751,20.5648,-308.578,0.564917,0.0,0.0
2436,608.75,84.6567,90.6598,126.775,100.477,93.8393,0.00399481,0.431307,20.5735,-309.839,0.613428,0.0,0.0
2478,619.25,84.0095,90.1292,123.45,100.294,95.1788,0.00387198,0.416428,20.5899,-311.06,0.469858,0.0,0.0
2520,629.75,83.9228,90.2202,126.901,100.089,93.6946,0.00363531,0.393782,20.6165,-312.171,0.592547,0.0,0.0
2562,640.25,82.8968,88.8325,127.015,99.8549,94.8186,0.00332603,0.367102,20.6489,-313.202,0.464488,0.0,0.0
2604,650.75,81.4087,87.379,129.752,99.5869,94.9439,0.00284401,0.337686,20.6822,-314.133,0.428517,0.0,0.0
2646,661.25,80.1459,85.8151,126.648,99.3967,95.1737,0.00252025,0.290984,20.7403,-314.914,0.389658,0.0,0.0
2688,671.75,78.8105,84.0042,131.189,99.2504,95.561,0.0022543,0.246633,20.7918,-315.534,0.339993,0.0,0.0
2730,682.25,75.6,80.6435,131.484,99.1456,96.5433,0.00222083,0.19855,20.852,-315.925,0.238725,0.0,0.0
2772,692.75,73.6041,77.8948,130.201,99.0912,95.6676,0.00281874,0.171705,20.8846,-316.265,0.315573,0.0,0.0
2814,703.25,70.9683,75.2474,133.859,99.0235,96.0583,0.00337783,0.163648,20.8931,-316.565,0.272866,0.0,0.0
2856,713.75,68.8456,72.7866,131.988,98.9784,95.8441,0.00364062,0.164069,20.8916,-316.805,0.288805,0.0,0.0
2898,724.25,67.5843,71.0126,131.85,98.9401,95.492,0.00376811,0.166117,20.8858,-316.976,0.318368,0.0,0.0
2940,734.75,66.5901,69.9838,130.206,98.9131,95.4844,0.00389151,0.169008,20.8798,-317.236,0.316634,0.0,0.0
2982,745.25,65.5358,68.6573,132.732,98.9018,95.4492,0.003942,0.166564,20.8832,-317.446,0.318912,0.0,0.0
3024,755.75,64.0675,67.5406,131.94,98.9199,95.3862,0.00397361,0.161361,20.8912,-317.676,0.32649,0.0,0.0
3066,766.25,64.2629,66.5282,132.663,98.9078,95.5686,0.00427047,0.1596,20.8909,-317.876,0.308246,0.0,0.0
3108,776.75,63.3647,65.7744,138.894,98.9574,95.2999,0.00440373,0.160702,20.8923,-318.057,0.338016,0.0,0.0
3150,787.25,62.8116,65.1145,133.197,98.9989,95.5432,0.00463661,0.157429,20.8989,-318.277,0.318892,0.0,0.0
3192,797.75,62.2868,64.7002,135.664,99.0497,95.4145,0.00465506,0.159072,20.8976,-318.447,0.335588,0.0,0.0
3234,808.25,61.754,64.0621,136.687,99.1259,95.4835,0.00504843,0.160948,20.8969,-318.637,0.336002,0.0,0.0
3276,818.75,60.9337,63.5362,134.002,99.1964,95.6769,0.00510389,0.16079,20.8979,-318.877,0.324223,0.0,0.0
3318,829.25,60.7364,63.1408,136.077,99.2758,96.0464,0.00539126,0.159369,20.9031,-319.037,0.296811,0.0,0.0
3360,839.75,60.4933,62.4512,137.58,99.3935,95.6494,0.00602209,0.164284,20.9008,-319.128,0.344618,0.0,0.0
3402,850.25,59.3218,62.374,136.048,99.4942,95.7667,0.00625043,0.170299,20.8945,-319.368,0.342718,0.0,0.0
3444,860.75,59.3749,61.8305,133.563,99.593,95.7756,0.00677078,0.166477,20.9005,-319.548,0.350787,0.0,0.0
3486,871.25,59.0922,61.0159,132.583,99.682,95.9182,0.00718205,0.170262,20.8958,-319.708,0.345455,0.0,0.0
3528,881.75,58.9819,60.9115,138.922,99.7223,95.5601,0.00693295,0.16925,20.8988,-319.898,0.382648,0.0,0.0
3570,892.25,58.0201,59.7208,134.612,99.7703,95.6215,0.00764627,0.165833,20.903,-320.098,0.381202,0.0,0.0
3612,902.75,57.4156,59.5034,132.908,99.811,95.7624,0.00801809,0.167118,20.9042,-320.269,0.371644,0.0,0.0
3654,913.25,57.2419,58.8725,137.027,99.861,95.9165,0.00832447,0.165512,20.9086,-320.469,0.361711,0.0,0.0
3696,923.75,57.611,59.6297,139.455,99.9057,95.9977,0.00812727,0.166377,20.9089,-320.629,0.35813,0.0,0.0
3738,934.25,56.4397,58.8519,135.18,99.9343,95.9584,0.00879785,0.16579,20.9117,-320.799,0.364381,0.0,0.0
3780,944.75,56.8631,59.2223,131.457,99.9674,96.1116,0.00878218,0.165468,20.914,-320.979,0.353029,0.0,0.0
3822,955.25,56.0536,58.374,135.12,99.996,96.826,0.00893311,0.166784,20.9104,-321.129,0.289132,0.0,0.0
3864,965.75,56.1058,57.9846,136.322,99.996,96.2407,0.0096163,0.164568,20.913,-321.329,0.343552,0.0,0.0
3906,976.25,55.9016,57.9072,134.858,100.017,96.0113,0.00954707,0.167718,20.9076,-321.47,0.366851,0.0,0.0
3948,986.75,56.42,57.8908,137.025,100.025,96.0236,0.00965828,0.164065,20.9143,-321.7,0.366427,0.0,0.0
3990,997.25,55.6986,57.6411,138.49,100.042,96.404,0.0099431,0.162655,20.9144,-321.82,0.332418,0.0,0.0
4032,1007.75,55.3105,57.7435,134.724,100.058,96.4798,,,,-322.01,0.326813,0.0,0.0
4042,1010.25,55.3721,57.5784,133.257,100.075,95.9563,,,,-322.07,0.377238,0.0,0.0