Folder: fsri_materials_database/01_Data/Engineered_Wood_Furniture/Cone

Note: 01_Data/README.md
# Materials and Products Database
## 01_Data

Raw data generated from each apparatus are included here in plain-text format. The data is organized first by material, next by the short name of test apparatus used, and where applicable additional filtering by test settings.

### material.json

Each material directory contains a json file of the same name as the material. This file links the data stored in the repository as well as data and graphs produced by the accompanying scripts (__02_Scripts__) to the respective landing page for the material on the front-end website.

File: Engineered_Wood_Furniture_Cone_HF25Scalar_220330_R2.csv
LABORATORY,FSRI
TEST IDENT,EngWoodFurn_HF25_2
OPERATOR,Dow
MATERIAL,Engineered Wood Furniture - Wood Veneer on MDF
ORIENTATION,Horizontal
HEAT FLUX,25
SURF AREA,0.01
C FACTOR,0.0395835
SPEC HOLDER DIFF,-566
SPECIMEN MASS,112.57
SCAN TIME,0.25
O2 DELAY TIME,11
CO DELAY TIME,11
CO2 DELAY TIME,8
FLOW FACTOR,1
SCAN COUNT,5301
TIME TO IGN,88
END OF TEST SCAN,4821
END OF TEST TIME,1205.25
TEST STATUS,1
PRE TEST CMT,Dimensions: 101.14 x 100.90 x 13.74 mm
POST TEST CMT,"After ignition, gases that formed between the MDF and the veneer released from an edge of the sample in a brief horizontal jet of flame. "

File: Engineered_Wood_Furniture_Cone_HF25Scan_220330_R1.csv
Names,Time,Stack TC,Smoke TC,Exh Press,Smoke Comp,Smoke Meas,CO Meter,CO2 Meter,O2 Meter,Sample Mass,Ext Coeff,Start Test,Flame Verif
Chan Gain,,500,500,1,1,1,1,1,1,1,1,1.0,1.0
Offset,,0,0,0.138301,0,0,0,0,0,0,0,0.0,0.0
Gain,,1,1,25.011,13.2062,13.8682,1,1,1,1.0009,1.02317,1.0,1.0
Units,sec,C,C,Pa,%,%,%,%,%,g,/m,,
Baseline,,14.7268,15.4642,158.659,100.222,97.452,0.000944562,0.0723249,20.996,-835.964,0.251566,,
58,14.25,14.4727,15.3104,159.118,100.606,98.3195,0.000974511,0.0786018,20.9904,-230.968,0.20631,0.0,0.0
116,28.75,14.7478,15.5138,153.069,100.06,97.6183,0.000712173,0.0778966,20.99,-231.158,0.221741,0.0,0.0
174,43.25,14.499,15.204,155.23,100.326,97.3821,0.000796159,0.0810138,20.9895,-231.258,0.267308,0.0,0.0
232,57.75,14.8279,15.1325,157.629,99.8094,96.2428,0.000924663,0.073365,21.0019,-231.378,0.326591,0.0,0.0
290,72.25,14.7399,15.6048,158.929,100.015,96.2496,0.000475771,0.0724589,21.0034,-231.459,0.34446,0.0,0.0
348,86.75,15.4626,16.1704,160.888,99.4422,95.3667,0.000650581,0.0739246,21.0017,-231.609,0.375589,0.0,0.0
406,101.25,16.0176,16.5288,157.965,98.6584,93.1888,0.00126512,0.0775755,20.9974,-231.809,0.511903,0.0,0.0
464,115.75,16.2611,16.8665,158.678,98.99,92.6018,0.00186308,0.0799464,20.996,-232.099,0.598742,0.0,0.0
522,130.25,23.2639,24.5316,139.233,100.11,95.1136,0.00616794,0.565695,20.4192,-234.251,0.459473,0.0,0.0
580,144.75,30.0109,31.782,141.286,100.662,95.7684,0.0038643,0.391745,20.628,-235.983,0.447304,0.0,0.0
638,159.25,34.504,36.8083,139.639,100.26,95.5656,0.00418514,0.435252,20.5764,-237.884,0.430426,0.0,0.0
696,173.75,39.0027,41.6027,136.143,99.9823,95.2723,0.00400329,0.459065,20.5442,-239.896,0.433085,0.0,0.0
754,188.25,40.9129,44.3562,136.17,100.41,95.6071,0.00357371,0.426331,20.5808,-241.838,0.439942,0.0,0.0
812,202.75,42.7407,46.3849,141.486,99.9355,95.605,0.00328806,0.379448,20.6376,-243.569,0.397603,0.0,0.0
870,217.25,41.958,46.0594,144.606,99.6776,95.0595,0.00319685,0.329025,20.6957,-245.111,0.425769,0.0,0.0
928,231.75,40.9172,44.6541,143.474,99.8477,95.6456,0.00292025,0.297074,20.733,-246.462,0.385896,0.0,0.0
986,246.25,39.8822,43.4145,146.12,99.892,96.2563,0.00315485,0.282879,20.747,-247.763,0.332755,0.0,0.0
1044,260.75,38.886,41.739,143.714,99.6091,96.1433,0.00327664,0.265056,20.7671,-248.984,0.317841,0.0,0.0
1102,275.25,37.9142,41.0418,147.481,99.0303,94.9189,0.00308489,0.257567,20.7788,-250.175,0.380576,0.0,0.0
1160,289.75,36.4611,39.8592,150.736,98.5959,94.2812,0.0025864,0.243561,20.7955,-251.336,0.401626,0.0,0.0
1218,304.25,36.2953,38.4499,147.903,98.477,95.1953,0.00305647,0.239997,20.7985,-252.457,0.30419,0.0,0.0
1276,318.75,35.0027,37.9877,148.45,98.8575,94.7801,0.00323891,0.235336,20.8043,-253.568,0.378028,0.0,0.0
1334,333.25,34.7073,38.23,146.128,99.5281,95.5216,0.00341573,0.229135,20.8101,-254.619,0.368766,0.0,0.0
1392,347.75,33.9041,36.6711,143.752,100.067,96.2496,0.00325182,0.218883,20.8237,-255.69,0.349051,0.0,0.0
1450,362.25,33.8753,36.3063,148.677,100.476,96.6647,0.00356519,0.210962,20.8351,-256.711,0.347034,0.0,0.0
1508,376.75,33.6926,36.0016,146.87,100.484,96.5429,0.00383172,0.204289,20.8424,-257.672,0.359115,0.0,0.0
1566,391.25,32.593,35.027,149.344,100.196,96.7574,0.0038788,0.194961,20.8549,-258.593,0.313414,0.0,0.0
1624,405.75,31.9667,34.4978,151.824,99.815,96.2407,0.00438188,0.188467,20.8616,-259.464,0.327296,0.0,0.0
1682,420.25,31.7497,33.2034,148.46,99.9988,96.7498,0.00466185,0.184434,20.8643,-260.385,0.296449,0.0,0.0
1740,434.75,30.82,32.3126,151.148,100.291,96.8099,0.00448606,0.179669,20.8715,-261.185,0.317063,0.0,0.0
1798,449.25,30.1708,31.9462,151.671,100.16,96.8594,0.00525008,0.177205,20.8762,-262.046,0.300744,0.0,0.0
1856,463.75,29.8737,31.5416,150.231,99.5515,95.922,0.00454425,0.176036,20.8769,-262.867,0.333333,0.0,0.0
1914,478.25,29.765,31.3731,148.575,99.5914,95.4801,0.00476309,0.178626,20.8742,-263.728,0.378368,0.0,0.0
1972,492.75,29.9048,31.133,152.705,99.7344,96.3609,0.00479705,0.179431,20.8714,-264.498,0.308843,0.0,0.0
2030,507.25,29.8533,31.3487,150.786,99.7852,96.8408,0.0045471,0.181564,20.8694,-265.309,0.268821,0.0,0.0
2088,521.75,29.616,30.8476,152.734,99.7336,96.1023,0.00451878,0.184927,20.8663,-266.17,0.332889,0.0,0.0
2146,536.25,29.8294,31.3458,147.533,99.6284,96.1311,0.00423913,0.188425,20.8608,-267.011,0.320731,0.0,0.0
2204,550.75,29.6777,31.2724,153.218,99.4052,95.9905,0.0041656,0.191053,20.856,-267.831,0.313722,0.0,0.0
2262,565.25,29.8955,31.3699,152.967,99.0932,96.104,0.00366583,0.193624,20.8549,-268.662,0.274913,0.0,0.0
2320,579.75,29.9914,31.8421,151.471,98.7986,95.2453,0.00364622,0.195057,20.8526,-269.523,0.328747,0.0,0.0
2378,594.25,30.5369,31.766,152.855,98.5673,95.3676,0.00375786,0.196276,20.8528,-270.394,0.296189,0.0,0.0
2436,608.75,30.512,31.8821,150.152,98.4049,96.0964,0.00319373,0.199272,20.8481,-271.234,0.213061,0.0,0.0
2494,623.25,30.7251,31.9014,149.385,98.3162,94.7018,0.00329604,0.202112,20.8448,-272.095,0.33617,0.0,0.0
2552,637.75,31.0833,32.0269,150.505,98.2799,94.7247,0.00304041,0.202131,20.8444,-272.986,0.330692,0.0,0.0
2610,652.25,30.909,32.4209,147.72,98.2985,94.9896,0.00296292,0.203881,20.8425,-273.797,0.307317,0.0,0.0
2668,666.75,30.564,31.9542,147.056,98.3388,95.1987,0.00256345,0.205583,20.8415,-274.728,0.291263,0.0,0.0
2726,681.25,31.2607,32.7391,149.024,98.4028,95.0832,0.00253718,0.207509,20.8401,-275.568,0.30801,0.0,0.0
2784,695.75,31.6168,33.0183,149.31,98.5121,95.481,0.00234695,0.211003,20.8371,-276.459,0.280492,0.0,0.0
2842,710.25,31.686,33.402,148.465,98.6704,95.0319,0.00218005,0.216293,20.8318,-277.32,0.33722,0.0,0.0
2900,724.75,31.9407,33.3493,152.634,98.8127,96.0062,0.00217606,0.220477,20.8273,-278.241,0.258606,0.0,0.0
2958,739.25,32.3412,34.5274,150.709,98.9731,96.1082,0.00195898,0.226369,20.8174,-279.161,0.263634,0.0,0.0
3016,753.75,32.7169,34.3236,141.708,99.2065,96.6643,0.00179083,0.233724,20.8094,-280.162,0.232985,0.0,0.0
3074,768.25,33.051,35.0578,148.618,99.4305,96.0257,0.00212093,0.244479,20.7957,-281.143,0.312729,0.0,0.0
3132,782.75,34.0019,35.8098,146.95,99.6429,95.9774,0.001771,0.255049,20.7841,-282.184,0.336391,0.0,0.0
3190,797.25,34.8886,36.9399,146.111,99.8114,95.9563,0.00179938,0.268395,20.7682,-283.315,0.353532,0.0,0.0
3248,811.75,35.1391,37.6782,145.867,99.9359,97.2852,0.0018113,0.284908,20.7475,-284.536,0.241276,0.0,0.0
3306,826.25,36.2394,39.0023,144.36,100.106,96.3397,0.00220332,0.302541,20.7246,-285.787,0.344191,0.0,0.0
3364,840.75,38.3571,40.7295,150.075,100.267,95.641,0.0021031,0.318442,20.7085,-287.139,0.423967,0.0,0.0
3422,855.25,37.4152,42.3896,144.838,100.357,95.5208,0.00232298,0.334464,20.6898,-288.56,0.443258,0.0,0.0
3480,869.75,40.3135,43.1339,143.194,100.358,94.9922,0.00265139,0.350995,20.6716,-290.061,0.493209,0.0,0.0
3538,884.25,42.5178,44.8585,140.135,100.327,94.7695,0.0032082,0.365447,20.6542,-291.643,0.511492,0.0,0.0
3596,898.75,43.2682,46.1736,141.904,100.3,93.9654,0.003342,0.379526,20.6349,-293.264,0.585556,0.0,0.0
3654,913.25,44.977,47.6168,142.069,100.2,93.4334,0.00338358,0.389952,20.6224,-294.956,0.627529,0.0,0.0
3712,927.75,45.7713,49.0203,140.816,100.098,93.7779,0.0034073,0.398712,20.6096,-296.677,0.585323,0.0,0.0
3770,942.25,47.02,49.8969,137.696,100.049,93.8008,0.00388262,0.407948,20.6004,-298.409,0.578762,0.0,0.0
3828,956.75,48.1166,51.7074,138.868,100.036,93.5062,0.0038341,0.412693,20.5925,-300.18,0.605835,0.0,0.0
3886,971.25,49.1236,52.7107,134.644,100.069,93.0834,0.00361812,0.412712,20.59,-301.902,0.64951,0.0,0.0
3944,985.75,49.5496,52.7831,142.119,100.094,93.2819,0.00388212,0.414728,20.5854,-303.634,0.632561,0.0,0.0
4002,1000.25,50.6399,53.6621,136.904,100.118,92.7999,0.00391709,0.415895,20.5821,-305.385,0.68123,0.0,0.0
4060,1014.75,50.983,54.6265,140.093,100.121,93.4089,0.004379,0.412369,20.5858,-307.077,0.62281,0.0,0.0
4118,1029.25,50.6707,54.5374,140.963,100.169,93.9045,0.00390025,0.395243,20.6045,-308.698,0.579614,0.0,0.0
4176,1043.75,50.6279,54.2472,137.592,100.228,93.951,0.00368228,0.379573,20.6199,-310.239,0.580436,0.0,0.0
4234,1058.25,50.0563,53.8728,139.396,100.291,94.1961,0.00344666,0.361392,20.6417,-311.671,0.562757,0.0,0.0
4292,1072.75,49.6165,52.341,143.008,100.335,94.1546,0.00315464,0.348319,20.6552,-312.982,0.570569,0.0,0.0
4350,1087.25,48.1207,51.5801,144.306,100.336,94.0179,0.0031076,0.313435,20.6966,-314.133,0.583717,0.0,0.0
4408,1101.75,46.3435,49.6606,146.935,100.312,95.9364,0.00399975,0.255843,20.7595,-315.004,0.400326,0.0,0.0
4466,1116.25,42.8729,45.8862,148.804,100.305,96.779,0.00536707,0.192725,20.8309,-315.524,0.321154,0.0,0.0
4524,1130.75,40.3348,42.9826,147.366,100.303,97.4921,0.00763361,0.174553,20.8525,-315.935,0.255153,0.0,0.0
4582,1145.25,37.854,39.7034,149.773,100.277,97.9234,0.00872413,0.162185,20.8688,-316.255,0.213193,0.0,0.0
4640,1159.75,35.8307,37.5925,147.895,100.247,97.3601,0.00918456,0.159665,20.8729,-316.605,0.262231,0.0,0.0
4698,1174.25,33.7984,35.8175,153.069,100.25,98.2133,0.00980055,0.169064,20.8638,-316.926,0.184208,0.0,0.0
4756,1188.75,32.9674,34.3329,150.201,100.243,98.1401,0.00923246,0.163737,20.871,-317.246,0.190324,0.0,0.0
4814,1203.25,31.7218,32.9645,153.793,100.228,97.6602,0.00905841,0.166075,20.8701,-317.566,0.232952,0.0,0.0
4872,1217.75,31.395,32.3158,147.589,100.222,98.1122,0.00921513,0.164358,20.8708,-317.866,0.190967,0.0,0.0
4930,1232.25,30.5843,31.3453,152.714,100.238,97.6525,0.00935232,0.163739,20.8743,-318.157,0.234555,0.0,0.0
4988,1246.75,30.1086,30.9975,157.033,100.274,98.2459,0.00904895,0.161862,20.8782,-318.427,0.183358,0.0,0.0
5046,1261.25,28.5604,29.8363,152.855,100.285,98.0885,0.0128186,0.149362,20.8939,-318.717,0.198799,0.0,0.0
5104,1275.75,27.5987,27.6709,152.29,100.322,98.576,0.0138822,0.146894,20.8957,-318.967,0.157579,0.0,0.0
5162,1290.25,26.9806,27.4082,153.068,100.288,98.4232,0.0132844,0.147386,20.8948,-319.218,0.168472,0.0,0.0
5220,1304.75,26.2861,26.7501,157.729,100.244,99.0293,0.0124811,0.137528,20.9102,-319.438,0.109407,0.0,0.0
5278,1319.25,25.1923,25.5661,152.941,100.197,99.0043,0.0115559,0.1383,20.9123,-319.608,0.107484,0.0,0.0
5336,1333.75,25.8032,25.5831,157.478,100.09,98.8181,0.0109932,0.136564,20.9146,-319.818,0.114809,0.0,0.0
5394,1348.25,24.8533,25.3482,156.784,100,98.7699,0.0103365,0.138198,20.9128,-320.008,0.11113,0.0,0.0
5452,1362.75,24.1625,23.9391,154.539,99.9452,97.9539,0.0101056,0.140472,20.9073,-320.188,0.180628,0.0,0.0
5510,1377.25,24.5922,25.0057,148.875,99.9758,98.8147,,0.136706,,-320.349,0.104848,0.0,0.0
5550,1387.25,24.0124,24.5166,156.7,100.017,98.9726,,,,-320.449,0.0942095,0.0,0.0

File: Engineered_Wood_Furniture_Cone_HF25Scan_220330_R2.csv
Names,Time,Stack TC,Smoke TC,Exh Press,Smoke Comp,Smoke Meas,CO Meter,CO2 Meter,O2 Meter,Sample Mass,Ext Coeff,Start Test,Flame Verif
Chan Gain,,500,500,1,1,1,1,1,1,1,1,1.0,1.0
Offset,,0,0,0.138301,0,0,0,0,0,0,0,0.0,0.0
Gain,,1,1,25.011,13.2062,13.8682,1,1,1,1.0009,1.02317,1.0,1.0
Units,sec,C,C,Pa,%,%,%,%,%,g,/m,,
Baseline,,19.474,19.86,156.729,100.034,99.6513,0.000890777,0.0720078,20.9959,-835.928,0.0343871,,
55,13.5,18.1092,18.7927,153.544,99.6309,98.7246,0.000993706,0.0746073,20.9957,-226.044,0.082015,0.0,0.0
110,27.25,18.709,18.9535,152.645,99.9295,98.6662,0.000729847,0.0795682,20.991,-226.214,0.114189,0.0,0.0
165,41,17.993,19.0591,159.564,100.237,98.4804,0.000769259,0.0712145,21.0008,-226.334,0.158681,0.0,0.0
220,54.75,18.7354,19.0558,155.092,100.277,97.9078,0.00102642,0.0715821,21.0022,-226.454,0.21463,0.0,0.0
275,68.5,18.7969,19.4087,157.798,99.8977,97.4363,0.000939957,0.0712505,21.0033,-226.594,0.22391,0.0,0.0
330,82.25,18.7645,19.0453,157.63,99.1448,96.2254,0.000831754,0.0721789,21.0041,-226.704,0.268248,0.0,0.0
385,96,23.6472,24.1504,131.215,98.3932,93.0322,0.0055887,0.473034,20.5021,-228.246,0.502841,0.0,0.0
440,109.75,31.1645,32.2409,149.746,98.2215,95.6736,0.00394027,0.345686,20.6741,-229.857,0.235895,0.0,0.0
495,123.5,32.3359,34.2035,143.408,98.7462,95.6884,0.00378261,0.277441,20.772,-231.038,0.282327,0.0,0.0
550,137.25,34.6223,37.3251,144.948,99.4241,95.7036,0.00381873,0.339679,20.6956,-232.519,0.342302,0.0,0.0
605,151,37.1067,39.5341,140.399,99.6159,96.0388,0.00419396,0.360293,20.6719,-234.081,0.328222,0.0,0.0
660,164.75,39.0857,41.952,145.531,99.6022,95.2605,0.00406013,0.356878,20.6704,-235.712,0.40002,0.0,0.0
715,178.5,40.9724,43.0814,142.323,99.4656,95.2503,0.00364096,0.346439,20.6788,-237.204,0.388658,0.0,0.0
770,192.25,40.7673,44.3094,139.441,99.3749,94.9405,0.00277414,0.336667,20.6851,-238.695,0.409711,0.0,0.0
825,206,41.9072,45.2903,144.63,99.3326,95.2317,0.00363529,0.330727,20.6893,-240.126,0.378403,0.0,0.0
880,219.75,41.7988,45.5722,144.143,99.4088,95.3853,0.00310033,0.318992,20.7033,-241.498,0.370816,0.0,0.0
935,233.5,42.1716,45.8341,145.912,99.3181,95.6994,0.00276967,0.300568,20.7223,-242.819,0.333125,0.0,0.0
990,247.25,41.7648,45.0962,142.181,99.3294,96.4946,0.00309161,0.286964,20.7356,-244.04,0.259872,0.0,0.0
1045,261,41.0077,44.4213,141.749,99.3874,96.6741,0.00281042,0.275172,20.7516,-245.311,0.248439,0.0,0.0
1100,274.75,40.6396,43.1845,145.72,99.4789,96.0959,0.00330471,0.267845,20.7621,-246.462,0.31053,0.0,0.0
1155,288.5,39.9409,42.3281,142.931,99.5712,96.6237,0.00283612,0.259556,20.7722,-247.643,0.269696,0.0,0.0
1210,302.25,38.8256,42.4415,150.079,99.6135,95.8763,0.00271943,0.254821,20.7775,-248.814,0.343205,0.0,0.0
1265,316,38.7684,41.3379,149.441,99.5845,96.0824,0.00279956,0.241142,20.7937,-249.855,0.321317,0.0,0.0
1320,329.75,37.3704,39.6726,146.915,99.4515,96.972,0.00282295,0.229471,20.806,-250.856,0.226604,0.0,0.0
1375,343.5,36.6434,40.3867,145,99.1339,96.2817,0.00329535,0.221103,20.8123,-251.847,0.262014,0.0,0.0
1430,357.25,36.085,38.8126,147.331,98.7164,95.6638,0.00351669,0.213365,20.8251,-252.758,0.281918,0.0,0.0
1485,371,36.0516,37.6416,146.409,98.34,95.8238,0.00401396,0.203248,20.8374,-253.719,0.232633,0.0,0.0
1540,384.75,34.8873,37.0806,145.717,98.1643,95.0713,0.00414189,0.192502,20.8518,-254.499,0.287341,0.0,0.0
1595,398.5,35.0125,35.1337,153.241,98.2985,95.2859,0.00465626,0.189377,20.8512,-255.39,0.279368,0.0,0.0
1650,412.25,33.2006,35.3823,147.979,98.6656,95.6003,0.00441418,0.179453,20.8674,-256.191,0.283259,0.0,0.0
1705,426,32.4836,34.402,155.27,99.1613,96.6838,0.00458937,0.172923,20.8732,-256.941,0.227094,0.0,0.0
1760,439.75,31.1739,34.3403,153.138,99.5212,97.4435,0.004759,0.168826,20.8783,-257.682,0.189363,0.0,0.0
1815,453.5,31.2535,33.5858,151.79,99.8356,96.8717,0.00510933,0.167152,20.8802,-258.383,0.270487,0.0,0.0
1870,467.25,31.9598,31.5923,151.429,100.09,97.2581,0.00576414,0.164534,20.8828,-259.113,0.257591,0.0,0.0
1925,481,30.2461,32.3379,147.861,100.231,97.8519,0.00588493,0.163027,20.887,-259.794,0.215566,0.0,0.0
1980,494.75,29.9143,31.9182,147.55,100.286,97.399,0.00566261,0.161113,20.8886,-260.485,0.262178,0.0,0.0
2035,508.5,30.0441,31.1493,145.966,100.246,98.6772,0.00597995,0.16055,20.8885,-261.165,0.141557,0.0,0.0
2090,522.25,29.812,31.5131,153.008,100.14,97.6856,0.00599291,0.159761,20.8912,-261.886,0.222711,0.0,0.0
2145,536,28.9049,30.308,149.625,100.033,97.496,0.00633769,0.158418,20.894,-262.527,0.230572,0.0,0.0
2200,549.75,29.775,30.5322,152.991,99.9234,98.237,0.0060397,0.157626,20.8961,-263.207,0.152768,0.0,0.0
2255,563.5,29.3113,30.252,152.486,99.8791,98.1782,0.00624323,0.159407,20.8948,-263.868,0.154162,0.0,0.0
2310,577.25,30.2253,29.4199,143.745,99.9791,97.5861,0.00623013,0.161148,20.8923,-264.538,0.21743,0.0,0.0
2365,591,29.3178,30.1548,156.101,100.189,97.8405,0.00596487,0.163374,20.8888,-265.249,0.212897,0.0,0.0
2420,604.75,29.6275,30.2556,149.702,100.287,97.4989,0.00580769,0.164149,20.889,-265.92,0.253087,0.0,0.0
2475,618.5,29.3093,30.7711,151.389,99.8009,97.0643,0.00547877,0.167353,20.8842,-266.64,0.249548,0.0,0.0
2530,632.25,29.0048,30.6636,150.156,98.7128,95.9525,0.00527399,0.171682,20.8806,-267.301,0.25455,0.0,0.0
2585,646,29.586,30.9588,154.32,98.2376,95.266,0.00510675,0.176177,20.8767,-268.041,0.275684,0.0,0.0
2640,659.75,29.5683,32.1772,148.298,99.1444,95.9779,0.00447101,0.182745,20.8683,-268.752,0.291334,0.0,0.0
2695,673.5,29.8659,31.3758,147.035,99.6369,96.3249,0.00412038,0.186531,20.8644,-269.453,0.303413,0.0,0.0
2750,687.25,30.7096,31.904,147.819,99.6712,96.5369,0.00380946,0.191687,20.86,-270.203,0.286763,0.0,0.0
2805,701,31.4777,32.7686,146.864,99.5369,96.2259,0.0032483,0.197686,20.8534,-270.984,0.303638,0.0,0.0
2860,714.75,31.6574,33.1534,151.158,100.32,96.6618,0.00313604,0.201508,20.8468,-271.745,0.333367,0.0,0.0
2915,728.5,31.8348,33.305,150.142,98.8321,95.5974,0.00280631,0.206494,20.8426,-272.566,0.298665,0.0,0.0
2970,742.25,32.7145,33.8738,151.785,98.695,95.4827,0.00211788,0.211935,20.8344,-273.376,0.296988,0.0,0.0
3025,756,32.7693,34.2368,146.357,99.5801,95.4789,0.00212703,0.217461,20.8304,-274.187,0.37747,0.0,0.0
3080,769.75,33.2042,35.1555,143.852,100.125,96.5103,0.00186826,0.222003,20.8244,-275.058,0.329978,0.0,0.0
3135,783.5,34.1336,35.0506,149.755,100.295,96.2212,0.00177172,0.226229,20.8227,-275.919,0.372132,0.0,0.0
3190,797.25,33.8451,36.3555,146.692,98.8192,94.6692,0.0018819,0.232277,20.8159,-276.839,0.385058,0.0,0.0
3245,811,34.6455,37.1795,147.824,98.8659,94.6667,0.00198776,0.240328,20.805,-277.78,0.389544,0.0,0.0
3300,824.75,35.4435,37.7894,146.08,99.5462,95.2537,0.00183365,0.24963,20.793,-278.761,0.395609,0.0,0.0
3355,838.5,36.3862,38.5198,148.13,100.04,95.6566,0.00204625,0.259816,20.7811,-279.762,0.402091,0.0,0.0
3410,852.25,37.157,39.1162,146.015,99.7796,95.7078,0.0019963,0.271766,20.7696,-280.873,0.373936,0.0,0.0
3465,866,37.9415,40.3401,144.472,100.258,95.6278,0.00219066,0.286517,20.7514,-281.974,0.424332,0.0,0.0
3520,879.75,38.8324,40.9129,141.933,99.0791,94.7433,0.00208989,0.304141,20.7295,-283.215,0.401617,0.0,0.0
3575,893.5,40.7394,43.0286,142.114,98.2787,93.7712,0.00219304,0.327868,20.7037,-284.566,0.421387,0.0,0.0
3630,907.25,41.9866,44.6131,141.137,98.845,93.32,0.00225958,0.353059,20.6706,-285.988,0.516236,0.0,0.0
3685,921,43.6529,46.2776,138.325,99.5579,93.2286,0.00303177,0.380263,20.6389,-287.549,0.589535,0.0,0.0
3740,934.75,45.5837,48.4073,140.047,99.5245,92.4799,0.00307454,0.406174,20.6062,-289.181,0.658887,0.0,0.0
3795,948.5,47.3305,50.6575,132.813,99.2714,92.1663,0.00369549,0.429013,20.5789,-290.972,0.666521,0.0,0.0
3850,962.25,49.2518,52.461,138.226,99.8086,92.3462,0.00382366,0.442701,20.5611,-292.734,0.697462,0.0,0.0
3905,976,50.766,53.9162,135.276,100.089,92.62,0.0041108,0.446466,20.5535,-294.605,0.696113,0.0,0.0
3960,989.75,51.9708,55.7317,137.439,99.8307,92.0334,0.00459435,0.456947,20.5395,-296.457,0.729904,0.0,0.0
4015,1003.5,53.3599,56.8766,136.742,99.6171,91.5251,0.00440271,0.454089,20.5412,-298.299,0.760387,0.0,0.0
4070,1017.25,53.5854,58.1186,139.935,99.9061,93.1181,0.00454927,0.455351,20.5397,-300.08,0.631513,0.0,0.0
4125,1031,54.6246,58.9482,132.719,100.106,93.3915,0.00450895,0.453127,20.5414,-301.892,0.623103,0.0,0.0
4180,1044.75,55.0428,59.6699,136.565,100.184,93.9307,0.00401725,0.448679,20.5438,-303.614,0.578478,0.0,0.0
4235,1058.5,55.5565,59.8563,133.34,100.204,93.7377,0.00415821,0.438259,20.5516,-305.315,0.598671,0.0,0.0
4290,1072.25,55.3954,59.3072,138.491,100.199,92.7093,0.00376497,0.406617,20.586,-306.816,0.697253,0.0,0.0
4345,1086,53.9362,58.345,143.326,100.189,92.3013,0.00345484,0.361468,20.6368,-308.128,0.736007,0.0,0.0
4400,1099.75,52.2561,55.9634,145.388,100.147,94.4475,0.00340562,0.296949,20.708,-309.179,0.525914,0.0,0.0
4455,1113.5,48.8281,52.3479,146.819,100.085,95.1043,0.00459912,0.225455,20.7922,-309.839,0.458112,0.0,0.0
4510,1127.25,45.3074,48.7646,146.54,99.9895,95.4429,0.00648053,0.183154,20.8425,-310.29,0.417682,0.0,0.0
4565,1141,41.7212,44.5959,148.498,99.8787,95.5999,0.00881792,0.158021,20.8762,-310.65,0.392975,0.0,0.0
4620,1154.75,38.7161,41.4494,155.314,99.7566,95.6033,0.0102614,0.147342,20.8913,-310.97,0.381678,0.0,0.0
4675,1168.5,36.3876,38.147,156.475,99.6659,95.8246,0.0116473,0.142574,20.8986,-311.25,0.352759,0.0,0.0
4730,1182.25,34.3342,35.8115,154.508,99.5611,95.8132,0.0119009,0.140909,20.9014,-311.541,0.344389,0.0,0.0
4785,1196,32.4936,34.0348,152.621,99.5954,95.9567,0.0143269,0.134013,20.9128,-311.781,0.334046,0.0,0.0
4840,1209.75,30.2617,31.5086,152.255,99.8166,95.693,0.0157631,0.129181,20.9195,-312.021,0.378659,0.0,0.0
4895,1223.5,28.8034,30.1751,148.524,99.9831,96.5522,0.0155005,0.129343,20.9187,-312.271,0.313393,0.0,0.0
4950,1237.25,28.3468,28.9318,154.691,100.071,96.9496,0.0148693,0.130578,20.9166,-312.482,0.284374,0.0,0.0
5005,1251,27.5783,28.0794,155.05,100.074,96.5479,0.0146607,0.131367,20.9195,-312.722,0.321959,0.0,0.0
5060,1264.75,26.9483,27.2058,156.217,100,96.8378,0.014106,0.132506,20.9151,-312.952,0.288432,0.0,0.0
5115,1278.5,26.1996,26.8204,150.453,99.8183,96.6377,0.0141146,0.132572,20.9155,-313.182,0.29064,0.0,0.0
5170,1292.25,25.7513,25.5162,155.104,99.493,96.3241,0.0133775,0.132769,20.9148,-313.382,0.290522,0.0,0.0
5225,1306,25.6473,25.6337,155.696,99.2254,95.9652,0.0128364,0.133595,20.9138,-313.613,0.299852,0.0,0.0
5280,1319.75,25.5414,25.4222,153.541,99.2798,95.8615,,,,-313.793,0.314475,0.0,0.0
5301,1325,25.1152,25.4275,154.263,99.2943,95.8568,,,,-313.873,0.316222,0.0,0.0