Folder: fsri_materials_database/01_Data/Engineered_Wood_Furniture/Cone (part 2)

File: Engineered_Wood_Furniture_Cone_HF25Scan_220330_R3.csv
Names,Time,Stack TC,Smoke TC,Exh Press,Smoke Comp,Smoke Meas,CO Meter,CO2 Meter,O2 Meter,Sample Mass,Ext Coeff,Start Test,Flame Verif
Chan Gain,,500,500,1,1,1,1,1,1,1,1,1.0,1.0
Offset,,0,0,0.138301,0,0,0,0,0,0,0,0.0,0.0
Gain,,1,1,25.011,13.2062,13.8682,1,1,1,1.0009,1.02317,1.0,1.0
Units,sec,C,C,Pa,%,%,%,%,%,g,/m,,
Baseline,,19.7685,20.1634,156.227,99.3501,97.6164,0.000972582,0.0725806,20.9946,-835.874,0.15803,,
56,13.75,18.7666,19.0854,154.622,98.6966,97.7368,0.000748328,0.0744408,20.993,-230.217,0.0877159,0.0,0.0
112,27.75,19.0691,18.7366,159.98,99.1779,97.8735,0.00102711,0.0735986,20.9941,-230.378,0.118825,0.0,0.0
168,41.75,19.1338,19.448,153.413,99.6224,97.8358,0.000877032,0.0769671,20.9892,-230.488,0.162417,0.0,0.0
224,55.75,19.0525,19.9251,155.819,99.9895,97.6293,0.000956661,0.0725376,20.9965,-230.568,0.214401,0.0,0.0
280,69.75,19.0115,19.6428,155,100.205,97.7097,0.000971286,0.0727034,20.9961,-230.688,0.226309,0.0,0.0
336,83.75,19.4654,19.3986,157.641,100.293,98.3331,0.000874211,0.0744059,20.9951,-230.788,0.177166,0.0,0.0
392,97.75,19.3015,19.8599,157.991,100.319,96.148,0.00122543,0.0778383,20.9934,-230.978,0.381165,0.0,0.0
448,111.75,19.1486,20.0861,156.495,100.229,95.4471,0.00180812,0.0800215,20.9932,-231.248,0.438711,0.0,0.0
504,125.75,25.4411,25.6538,130.47,100.023,94.6104,0.00486645,0.578518,20.3893,-232.97,0.499312,0.0,1.0
560,139.75,33.3403,35.0305,141.324,99.7433,95.8991,0.00319447,0.374778,20.6348,-234.721,0.352751,0.0,0.0
616,153.75,36.2542,38.7755,136.926,99.5204,95.7045,0.0034449,0.408513,20.6003,-236.433,0.350913,0.0,0.0
672,167.75,40.9644,44.4041,138.849,99.8868,95.5978,0.00418195,0.475182,20.5221,-238.445,0.393898,0.0,0.0
728,181.75,44.6305,47.9901,135.399,100.052,95.6837,0.00379678,0.443684,20.5536,-240.357,0.400707,0.0,0.0
784,195.75,45.5371,49.9673,141.961,100.111,96.261,0.00338007,0.398454,20.6062,-242.108,0.351962,0.0,0.0
840,209.75,45.7089,49.7254,146.035,100.056,96.4548,0.00297448,0.35259,20.6587,-243.639,0.329028,0.0,0.0
896,223.75,45.1945,49.6116,141.391,99.8348,96.4332,0.00271354,0.310252,20.7106,-245.021,0.311131,0.0,0.0
952,237.75,44.1335,48.0727,145.304,99.5474,96.1175,0.00363408,0.292387,20.7313,-246.282,0.314694,0.0,0.0
1008,251.75,43.2829,46.9008,144.222,99.3137,96.0629,0.00400849,0.277303,20.7453,-247.523,0.298693,0.0,0.0
1064,265.75,42.157,45.4869,142.716,99.3737,96.2618,0.00419318,0.271365,20.7517,-248.724,0.285553,0.0,0.0
1120,279.75,41.1998,44.8887,143.552,99.4692,95.966,0.00350232,0.261803,20.7665,-249.925,0.321801,0.0,0.0
1176,293.75,40.2274,43.6724,146.018,99.5527,96.2627,0.00328032,0.250241,20.7824,-251.046,0.301622,0.0,0.0
1232,307.75,39.7425,43.0736,144.036,99.5926,96.5903,0.00334163,0.238062,20.7984,-252.137,0.274727,0.0,0.0
1288,321.75,39.0765,40.9998,148.414,99.6228,96.3092,0.00341884,0.227575,20.8119,-253.188,0.303602,0.0,0.0
1344,335.75,38.1127,40.7415,145.293,99.5615,96.8747,0.00377018,0.217406,20.8216,-254.149,0.245542,0.0,0.0
1400,349.75,36.4003,39.6751,147.482,99.4511,96.3634,0.00380435,0.21586,20.8204,-255.13,0.283073,0.0,0.0
1456,363.75,36.2835,38.417,147.668,99.2718,95.9343,0.00348739,0.207929,20.8303,-256.071,0.306934,0.0,0.0
1512,377.75,35.0549,37.5199,150.763,99.0368,96.2927,0.00395992,0.197771,20.8437,-256.971,0.252191,0.0,0.0
1568,391.75,34.992,36.9505,152.36,98.7648,96.1607,0.00422677,0.189065,20.8543,-257.822,0.239819,0.0,0.0
1624,405.75,33.6238,36.3284,147,98.5262,95.9842,0.00422194,0.18248,20.8631,-258.643,0.234599,0.0,0.0
1680,419.75,32.8329,35.5281,148.236,98.3226,95.8445,0.00468262,0.178546,20.8685,-259.464,0.229108,0.0,0.0
1736,433.75,32.8035,34.847,147.79,98.2348,95.5898,0.00469982,0.175314,20.8728,-260.264,0.244976,0.0,0.0
1792,447.75,32.1334,33.3276,147.707,98.2062,95.7984,0.00516702,0.172368,20.8756,-261.005,0.222791,0.0,0.0
1848,461.75,31.7682,33.5905,149.75,98.2348,95.6697,0.00524431,0.170649,20.8788,-261.766,0.237468,0.0,0.0
1904,475.75,31.5548,32.988,149.567,98.2618,95.5457,0.00551626,0.170405,20.8777,-262.527,0.251576,0.0,0.0
1960,489.75,31.3503,32.532,152.358,98.2626,96.115,0.00591108,0.169012,20.8802,-263.257,0.198337,0.0,0.0
2016,503.75,30.8688,32.1753,150.542,98.2674,95.6528,0.00573565,0.169064,20.8796,-264.028,0.242038,0.0,0.0
2072,517.75,30.4642,31.7774,150.826,98.2702,96.2551,0.00591809,0.167308,20.8824,-264.799,0.185964,0.0,0.0
2128,531.75,30.4162,31.692,151.803,98.2848,96.9161,0.00627409,0.166826,20.8829,-265.499,0.125859,0.0,0.0
2184,545.75,30.152,31.3559,148.121,98.3521,95.7722,0.00614324,0.169391,20.8814,-266.25,0.238575,0.0,0.0
2240,559.75,30.7011,31.231,149.63,98.4625,96.4722,0.00597017,0.171978,20.8774,-266.98,0.183283,0.0,0.0
2296,573.75,30.1004,31.4784,146.973,98.6519,96.0418,0.00604049,0.174946,20.8754,-267.731,0.240665,0.0,0.0
2352,587.75,30.1921,31.5054,150.113,98.8393,96.3511,0.00610366,0.179095,20.8698,-268.542,0.228834,0.0,0.0
2408,601.75,30.5546,31.7551,146.835,98.9945,97.3889,0.00529505,0.185378,20.8627,-269.293,0.146763,0.0,0.0
2464,615.75,30.8908,32.2245,149.192,99.0989,96.6063,0.00450481,0.190369,20.8556,-270.093,0.228631,0.0,0.0
2520,629.75,31.4472,32.4234,150.407,99.1823,96.6923,0.00424227,0.195053,20.8479,-270.904,0.228205,0.0,0.0
2576,643.75,31.4276,32.9644,151.01,99.3274,96.8594,0.004414,0.199306,20.8444,-271.675,0.22582,0.0,0.0
2632,657.75,31.4855,33.0429,151.677,99.5083,96.9703,0.00383591,0.204243,20.8384,-272.495,0.231887,0.0,0.0
2688,671.75,32.1949,33.4985,150.625,99.6885,97.0169,0.00327465,0.207459,20.836,-273.326,0.243814,0.0,0.0
2744,685.75,32.4606,33.7577,142.138,99.9033,97.2454,0.00304073,0.211635,20.8294,-274.197,0.242015,0.0,0.0
2800,699.75,33.1843,34.0932,146.999,100.06,97.3292,0.00235861,0.216144,20.8235,-275.038,0.248394,0.0,0.0
2856,713.75,32.8131,34.7844,144.486,100.187,97.2251,0.00219781,0.220987,20.8198,-275.919,0.269308,0.0,0.0
2912,727.75,33.45,34.3866,144.143,100.274,97.4325,0.00193297,0.224777,20.8137,-276.789,0.258015,0.0,0.0
2968,741.75,33.902,35.4829,148.153,100.295,97.4329,0.00193767,0.22945,20.8088,-277.69,0.259852,0.0,0.0
3024,755.75,34.0549,35.7685,147.702,100.266,97.8426,0.0021015,0.234705,20.8039,-278.621,0.219596,0.0,0.0
3080,769.75,34.7018,36.7327,144.962,100.186,97.1443,0.00203578,0.240364,20.7987,-279.562,0.276737,0.0,0.0
3136,783.75,34.5525,37.2937,143.371,100.058,96.9022,0.0017661,0.247605,20.7874,-280.543,0.287642,0.0,0.0
3192,797.75,35.6612,37.2051,147.923,99.8771,96.9352,0.00185992,0.257855,20.7732,-281.554,0.268339,0.0,0.0
3248,811.75,36.4034,38.4192,145.827,99.7469,96.1713,0.00182725,0.266114,20.7658,-282.615,0.327645,0.0,0.0
3304,825.75,37.1085,38.8813,147.699,99.6595,96.7701,0.00195872,0.278121,20.7524,-283.726,0.264057,0.0,0.0
3360,839.75,37.3822,39.4847,142.14,99.5519,95.9905,0.00170782,0.289726,20.7382,-284.907,0.326958,0.0,0.0
3416,853.75,38.5873,41.1749,146.212,99.5865,96.2877,0.00249088,0.303719,20.7227,-286.118,0.302345,0.0,0.0
3472,867.75,39.661,42.3178,141.031,99.8896,96.184,0.00231862,0.319042,20.703,-287.409,0.339288,0.0,0.0
3528,881.75,40.9361,43.0389,143.425,100.057,95.5288,0.00235995,0.332845,20.6865,-288.77,0.415682,0.0,0.0
3584,895.75,41.9309,44.713,142.152,100.102,94.5393,0.00237244,0.348401,20.6687,-290.211,0.513145,0.0,0.0
3640,909.75,43.1247,45.9993,144.104,100.09,96.1302,0.00275721,0.361122,20.6515,-291.693,0.362284,0.0,0.0
3696,923.75,45.0001,46.8123,140.015,100.028,94.7272,0.00302348,0.375516,20.6332,-293.194,0.488708,0.0,0.0
3752,937.75,45.1052,48.0486,139.225,99.9569,94.4157,0.00353054,0.388951,20.6158,-294.796,0.511868,0.0,0.0
3808,951.75,47.518,49.7232,138.829,99.8501,93.8186,0.00355667,0.400354,20.6013,-296.407,0.559219,0.0,0.0
3864,965.75,48.14,51.0355,143.552,99.6865,94.5994,0.00371524,0.402722,20.5975,-298.059,0.470109,0.0,0.0
3920,979.75,48.5585,52.1716,145.555,99.593,93.6095,0.00374795,0.400092,20.599,-299.71,0.556101,0.0,0.0
3976,993.75,49.5217,52.7317,138.459,99.5019,94.6316,0.00395333,0.395175,20.6055,-301.301,0.450424,0.0,0.0
4032,1007.75,49.7025,53.0111,136.201,99.3729,93.2625,0.00322308,0.386511,20.6157,-302.883,0.569585,0.0,0.0
4088,1021.75,49.8752,52.9651,136.658,99.3,93.4851,0.00364333,0.382037,20.6173,-304.364,0.541596,0.0,0.0
4144,1035.75,48.9064,52.7017,140.481,99.3298,93.5706,0.00325839,0.381203,20.6211,-305.866,0.536087,0.0,0.0
4200,1049.75,49.7708,53.1736,141.128,99.3483,94.0353,0.0033248,0.379271,20.6227,-307.357,0.493299,0.0,0.0
4256,1063.75,49.7792,52.9415,142.946,99.3145,93.3513,0.0032052,0.377889,20.6218,-308.778,0.555755,0.0,0.0
4312,1077.75,50.1017,52.8092,138.364,99.4257,93.7242,0.00361445,0.372573,20.6242,-310.169,0.530025,0.0,0.0
4368,1091.75,49.4044,53.1748,140.958,99.8412,94.2062,0.00306805,0.367079,20.6294,-311.551,0.521412,0.0,0.0
4424,1105.75,49.224,52.0355,142.888,100.056,94.745,0.00316129,0.347004,20.6512,-312.792,0.489555,0.0,0.0
4480,1119.75,48.3061,51.3397,147.506,100.043,95.8424,0.00314716,0.278972,20.7281,-313.713,0.385001,0.0,0.0
4536,1133.75,45.6874,49.1778,153.292,99.5337,96.2758,0.00432537,0.207106,20.8101,-314.313,0.29869,0.0,0.0
4592,1147.75,42.9972,45.4908,150.202,100.008,97.0562,0.00669326,0.173662,20.8511,-314.714,0.268938,0.0,0.0
4648,1161.75,39.9749,42.6932,150.02,100.289,97.402,0.00886687,0.155257,20.878,-315.084,0.262194,0.0,0.0
4704,1175.75,37.3836,39.3869,153.508,99.655,96.8603,0.0104911,0.145604,20.8892,-315.394,0.2553,0.0,0.0
4760,1189.75,35.4694,36.996,155.493,98.4258,96.1226,0.0117702,0.140846,20.8979,-315.644,0.212521,0.0,0.0
4816,1203.75,32.7792,34.1907,150.59,98.4814,96.0739,0.0122982,0.139128,20.9007,-315.935,0.222137,0.0,0.0
4872,1217.75,31.8113,32.8486,152.364,99.5023,96.969,0.0127671,0.135414,20.9065,-316.145,0.231461,0.0,0.0
4928,1231.75,29.6194,30.4182,153.082,99.464,96.7739,0.0139937,0.134789,20.9084,-316.385,0.246082,0.0,0.0
4984,1245.75,28.2607,29.1313,148.163,100.082,97.5247,0.0133558,0.130985,20.9128,-316.585,0.232333,0.0,0.0
5040,1259.75,27.6471,28.303,150.913,99.8203,97.0935,0.0131999,0.133421,20.9119,-316.825,0.248587,0.0,0.0
5096,1273.75,26.9598,27.4476,152.428,100.068,97.6102,0.0127037,0.131103,20.9191,-317.006,0.223204,0.0,0.0
5152,1287.75,26.5068,27.2841,155.815,98.3424,95.2529,0.0121418,0.130579,20.9197,-317.196,0.286489,0.0,0.0
5208,1301.75,26.0489,26.825,152.777,99.2226,96.2047,0.012013,0.130947,20.9178,-317.386,0.277221,0.0,0.0
5264,1315.75,25.3692,25.3119,149.868,99.4322,96.4811,0.0118802,0.130684,20.9187,-317.566,0.270413,0.0,0.0
5320,1329.75,25.6636,26.0797,152.135,100.089,97.6327,,0.130422,,-317.796,0.222985,0.0,0.0
5362,1340.25,24.9899,25.4754,156.586,99.6691,96.4413,,,,-317.916,0.295478,0.0,0.0

File: Engineered_Wood_Furniture_Cone_HF50Scan_220330_R1.csv
Names,Time,Stack TC,Smoke TC,Exh Press,Smoke Comp,Smoke Meas,CO Meter,CO2 Meter,O2 Meter,Sample Mass,Ext Coeff,Start Test,Flame Verif
Chan Gain,,500,500,1,1,1,1,1,1,1,1,1.0,1.0
Offset,,0,0,0.135377,0,0,0,0,0,0,0,0.0,0.0
Gain,,1,1,25.011,13.2062,13.8682,1,1,1,1.0009,1.02317,1.0,1.0
Units,sec,C,C,Pa,%,%,%,%,%,g,/m,,
Baseline,,32.5059,33.939,146.474,100.099,96.7849,0.000718081,0.0429428,21.0812,-835.37,0.302234,,
56,13.75,31.1788,32.5819,147.051,100.038,94.1715,0.00131771,0.0480043,21.0748,-229.967,0.542382,0.0,0.0
112,27.75,33.5624,34.0535,113.172,99.9823,86.2894,0.00671766,0.32604,20.6199,-231.168,1.32192,0.0,1.0
168,41.75,50.4727,53.9675,133.978,99.8404,96.4184,0.0051656,0.579211,20.4669,-234.031,0.313017,0.0,0.0
224,55.75,55.9278,60.0481,123.86,99.6893,93.6603,0.00521581,0.584007,20.4279,-236.353,0.559909,0.0,0.0
280,69.75,63.6493,68.8535,125.206,99.512,93.0788,0.00556178,0.643909,20.3556,-239.055,0.599827,0.0,0.0
336,83.75,68.0469,73.9104,128.318,99.5789,94.3933,0.00513763,0.576106,20.4266,-241.508,0.479991,0.0,0.0
392,97.75,68.8889,75.9061,129.467,99.6631,94.3286,0.00380147,0.480532,20.5423,-243.649,0.493739,0.0,0.0
448,111.75,68.4523,75.4081,130.643,99.7586,95.6008,0.00329546,0.41109,20.6282,-245.521,0.382097,0.0,0.0
504,125.75,67.6582,74.4589,129.843,99.8803,96.2352,0.00311195,0.380078,20.6652,-247.273,0.333677,0.0,0.0
560,139.75,66.1471,72.3549,131.296,100.075,96.2974,0.00261169,0.358006,20.6938,-248.934,0.345317,0.0,0.0
616,153.75,65.1927,71.3471,130.364,100.218,96.6774,0.00246053,0.345966,20.7079,-250.566,0.322858,0.0,0.0
672,167.75,63.9322,70.1363,131.608,100.305,96.8565,0.00276866,0.330193,20.7255,-252.147,0.31401,0.0,0.0
728,181.75,63.7281,68.1517,131.589,100.307,96.746,0.00249916,0.319165,20.7411,-253.689,0.324397,0.0,0.0
784,195.75,62.6187,67.9634,131.259,100.219,96.4176,0.0026439,0.307856,20.7541,-255.16,0.347087,0.0,0.0
840,209.75,61.5197,66.9613,132.695,100.073,96.7418,0.00240971,0.295686,20.7672,-256.581,0.303848,0.0,0.0
896,223.75,61.3445,65.5066,129.948,99.9069,95.9406,0.00239665,0.288692,20.7778,-258.052,0.363582,0.0,0.0
952,237.75,60.5947,65.5372,133.113,99.6784,96.906,0.00233749,0.279429,20.7889,-259.404,0.253171,0.0,0.0
1008,251.75,59.5484,64.2855,130.373,99.3894,96.6123,0.00209064,0.272117,20.7996,-260.785,0.254358,0.0,0.0
1064,265.75,59.277,63.6533,132.244,99.0723,95.5826,0.00184667,0.265304,20.808,-262.106,0.321842,0.0,0.0
1120,279.75,58.3435,62.7301,131.397,98.7035,94.9795,0.00199202,0.261737,20.8136,-263.387,0.345183,0.0,0.0
1176,293.75,57.9898,62.2947,134.904,98.4319,94.8212,0.0019799,0.259178,20.8133,-264.678,0.335418,0.0,0.0
1232,307.75,57.8666,61.7662,133.317,98.2715,94.8643,0.00214305,0.252383,20.8225,-265.91,0.316696,0.0,0.0
1288,321.75,56.9418,60.8193,134.251,98.2437,94.5672,0.0019121,0.252558,20.8223,-267.211,0.342309,0.0,0.0
1344,335.75,56.9746,60.8668,136.36,98.3904,94.9985,0.00174564,0.250469,20.8273,-268.442,0.314864,0.0,0.0
1400,349.75,56.5481,60.0911,134.994,98.6551,94.9041,0.00210601,0.252792,20.8229,-269.613,0.347906,0.0,0.0
1456,363.75,56.5126,59.9615,136.016,98.9687,96.0155,0.00164809,0.255119,20.8193,-270.884,0.271892,0.0,0.0
1512,377.75,56.2034,59.4406,131.586,99.1992,95.7866,0.00204911,0.256858,20.8198,-272.085,0.314202,0.0,0.0
1568,391.75,56.3097,60.3927,134.127,99.3979,95.7726,0.00217068,0.261973,20.8113,-273.336,0.333469,0.0,0.0
1624,405.75,56.593,60.7006,134.204,99.5704,96.0159,0.00165746,0.266639,20.8074,-274.617,0.326254,0.0,0.0
1680,419.75,56.7303,60.3231,139.394,99.6171,95.8606,0.00210166,0.273768,20.7994,-275.849,0.344999,0.0,0.0
1736,433.75,57.2774,60.8385,135.209,99.568,95.5851,0.00205063,0.282919,20.7856,-277.16,0.366401,0.0,0.0
1792,447.75,57.1619,60.8035,130.842,99.4918,95.0252,0.00225409,0.29096,20.7771,-278.491,0.412262,0.0,0.0
1848,461.75,58.3489,61.5236,134.578,99.3778,94.5922,0.00215023,0.299656,20.7641,-279.852,0.442954,0.0,0.0
1904,475.75,58.9264,62.2193,131.204,99.2806,94.3573,0.00236999,0.31059,20.7561,-281.263,0.456491,0.0,0.0
1960,489.75,59.2904,62.8781,132.195,99.2899,94.4949,0.00246435,0.320384,20.743,-282.675,0.444255,0.0,0.0
2016,503.75,59.8132,63.6294,133.805,99.6828,94.5744,0.00239238,0.329129,20.7312,-284.096,0.472152,0.0,0.0
2072,517.75,60.3406,64.1928,133.759,99.9283,94.4978,0.00254664,0.333705,20.7259,-285.637,0.501496,0.0,0.0
2128,531.75,60.9926,65.051,131.701,100.052,94.6015,0.00261376,0.340721,20.716,-287.119,0.502723,0.0,0.0
2184,545.75,61.3394,64.3401,135.046,100.07,94.3954,0.00288705,0.34599,20.7102,-288.66,0.523925,0.0,0.0
2240,559.75,62.5452,66.1542,133.701,99.9746,94.2033,0.0030864,0.352224,20.7011,-290.201,0.533679,0.0,0.0
2296,573.75,62.8647,66.8755,129.37,99.7917,93.6078,0.00299651,0.35545,20.6978,-291.783,0.574151,0.0,0.0
2352,587.75,63.0434,67.1847,131.542,99.4886,93.816,0.00290429,0.367115,20.6817,-293.384,0.526909,0.0,0.0
2408,601.75,63.5068,67.7225,128.1,99.6188,93.4571,0.0032344,0.370244,20.6791,-294.956,0.573046,0.0,0.0
2464,615.75,64.4946,68.2898,131.99,99.8021,93.2548,0.00292057,0.371021,20.6755,-296.547,0.609,0.0,0.0
2520,629.75,64.5036,69.0469,129.174,99.9956,94.1313,0.00315727,0.369635,20.6779,-298.149,0.542417,0.0,0.0
2576,643.75,65.1415,69.4335,131.228,100.163,94.7039,0.00284217,0.3731,20.6719,-299.74,0.502984,0.0,0.0
2632,657.75,65.3096,69.9578,128.979,100.287,95.2757,0.0025391,0.379705,20.6625,-301.301,0.46004,0.0,0.0
2688,671.75,66.2326,70.5355,127.683,100.244,95.4349,0.00290997,0.388965,20.6498,-302.923,0.441237,0.0,0.0
2744,685.75,66.485,70.9681,135.737,99.9911,95.1073,0.00290693,0.392962,20.6431,-304.554,0.449443,0.0,0.0
2800,699.75,66.8868,71.7187,131.239,99.6744,93.9214,0.00283309,0.382123,20.6567,-306.126,0.533578,0.0,0.0
2856,713.75,67.0209,71.6225,131.669,99.3157,95.156,0.00274213,0.375207,20.6654,-307.637,0.384016,0.0,0.0
2912,727.75,66.8355,71.2817,134.042,99.0106,94.0094,0.00293401,0.360969,20.6834,-309.058,0.4652,0.0,0.0
2968,741.75,66.7374,70.8933,131.061,98.7144,93.7911,0.00286316,0.348078,20.6971,-310.44,0.459182,0.0,0.0
3024,755.75,65.9744,70.7174,128.84,98.4641,93.1164,0.00292322,0.337102,20.7103,-311.791,0.501187,0.0,0.0
3080,769.75,65.1631,69.5416,130.422,98.2928,93.6937,0.00275896,0.322069,20.728,-313.032,0.43009,0.0,0.0
3136,783.75,63.9719,68.0814,132.986,98.288,94.29,0.00241202,0.298166,20.759,-314.143,0.372706,0.0,0.0
3192,797.75,62.6101,66.5375,133.662,98.429,94.2947,0.0021259,0.262722,20.7979,-315.104,0.385134,0.0,0.0
3248,811.75,61.041,64.7779,134.665,98.6447,94.6413,0.00245981,0.220872,20.8453,-315.835,0.371842,0.0,0.0
3304,825.75,58.9243,61.6016,138.718,98.9199,95.2745,0.00405173,0.18583,20.8831,-316.365,0.33701,0.0,0.0
3360,839.75,56.4527,59.1239,134.826,99.1851,95.2702,0.00614229,0.181511,20.8785,-316.805,0.361436,0.0,0.0
3416,853.75,54.8917,57.634,137.62,99.4128,95.5728,0.00661038,0.172717,20.8908,-317.236,0.353554,0.0,0.0
3472,867.75,52.9781,55.3548,139.072,99.5551,95.71,0.00646243,0.159187,20.9096,-317.556,0.353523,0.0,0.0
3528,881.75,51.0819,53.3344,141.01,99.6167,95.919,0.00646761,0.15032,20.9212,-317.836,0.339496,0.0,0.0
3584,895.75,49.802,51.7299,142.69,99.6147,95.718,0.00642458,0.143643,20.9333,-318.127,0.358144,0.0,0.0
3640,909.75,48.643,50.2148,141.466,99.5575,95.4962,0.00663569,0.140009,20.9381,-318.377,0.373805,0.0,0.0
3696,923.75,47.3897,49.1684,137.517,99.5023,95.4488,0.00723446,0.137232,20.9429,-318.647,0.373283,0.0,0.0
3752,937.75,46.7013,48.29,140.403,99.441,96.0566,0.00728558,0.133762,20.9485,-318.867,0.310788,0.0,0.0
3808,951.75,45.5877,47.1229,142.163,99.4048,95.6575,0.00760725,0.130854,20.9528,-319.067,0.344882,0.0,0.0
3864,965.75,45.2924,46.3731,144.005,99.3737,96.0295,0.00802498,0.130113,20.9543,-319.268,0.307243,0.0,0.0
3920,979.75,44.5837,45.9199,139.688,99.3782,95.4082,0.00844536,0.128682,20.9584,-319.428,0.365899,0.0,0.0
3976,993.75,44.2789,45.2403,141.277,99.3568,96.3427,0.00905081,0.133054,20.9552,-319.638,0.27649,0.0,0.0
4032,1007.75,43.3158,44.5021,141.51,99.3246,95.4027,0.00937993,0.125748,20.9643,-319.858,0.361575,0.0,0.0
4088,1021.75,42.9759,44.0407,141.842,99.2826,95.8014,0.010038,0.126329,20.9644,-320.038,0.320359,0.0,0.0
4144,1035.75,42.7623,43.8927,140.737,99.2238,95.2469,0.010105,0.122995,20.9742,-320.239,0.36713,0.0,0.0
4200,1049.75,42.494,43.6914,144.783,99.1891,96.2927,0.0103118,0.122058,20.972,-320.419,0.265987,0.0,0.0
4256,1063.75,42.0146,43.1099,143.544,99.4144,95.3739,0.0102177,0.119036,20.976,-320.559,0.3724,0.0,0.0
4312,1077.75,41.7073,42.8713,146.555,99.6526,95.7832,0.0111213,0.118628,20.9787,-320.759,0.355447,0.0,0.0
4368,1091.75,41.6725,42.6597,140.419,99.8594,96.0007,0.0111111,0.119954,20.9751,-320.929,0.353688,0.0,0.0
4424,1105.75,41.2593,42.1755,141.669,99.9521,95.8081,0.0115844,0.126948,20.9694,-321.119,0.380037,0.0,0.0
4480,1119.75,40.87,41.8742,145.074,100.028,96.2466,0.0114066,0.118006,20.9808,-321.249,0.345893,0.0,0.0
4536,1133.75,40.5363,41.6241,141.81,100.038,96.2538,0.0118601,0.117135,20.9829,-321.43,0.346127,0.0,0.0
4592,1147.75,40.5195,41.5434,141.931,100.027,96.3118,0.0112481,0.117393,20.9823,-321.6,0.339745,0.0,0.0
4648,1161.75,40.2186,41.4124,141.22,99.998,97.104,0.011713,0.115904,20.9821,-321.75,0.263576,0.0,0.0
4704,1175.75,39.9142,41.1897,140.758,99.9311,96.2779,0.0114884,0.11512,20.9827,-321.9,0.334255,0.0,0.0
4760,1189.75,40.2978,41.1701,140.459,99.7715,96.0219,0.0112406,0.115666,20.9817,-322.04,0.34381,0.0,0.0
4816,1203.75,39.975,41.0499,142.571,99.5245,95.9537,0.0112606,0.112938,20.9862,-322.24,0.327929,0.0,0.0
4872,1217.75,39.6395,40.8993,141.467,99.5551,95.7095,0.01132,0.112994,20.9888,-322.38,0.353563,0.0,0.0
4928,1231.75,38.8583,40.5769,142.868,99.6405,95.7976,0.0114042,0.113059,20.9877,-322.521,0.353009,0.0,0.0
4984,1245.75,39.122,40.2598,143.835,99.7518,96.3702,0.0109632,0.110993,20.9873,-322.681,0.309536,0.0,0.0
5040,1259.75,38.825,39.9408,142.864,99.915,96.5928,0.0110908,0.11079,20.9899,-322.801,0.3035,0.0,0.0
5096,1273.75,38.6054,39.8162,143.161,100.083,96.1002,0.0109838,0.110363,20.9919,-322.991,0.364476,0.0,0.0
5152,1287.75,39.0743,39.977,144.678,100.22,96.6745,0.0107586,0.110313,20.9915,-323.121,0.323278,0.0,0.0
5208,1301.75,38.5418,40.0004,140.73,100.29,96.0832,0.0106044,0.109235,20.9928,-323.281,0.384615,0.0,0.0
5264,1315.75,38.6715,40.1671,147.314,100.276,96.7689,0.0107253,0.109869,20.9933,-323.411,0.319499,0.0,0.0
5320,1329.75,38.1851,40.1504,144.282,100.158,96.3296,0.0108029,0.109206,20.9932,-323.561,0.349798,0.0,0.0
5365,1341,38.1828,39.548,143.914,100.044,96.4252,,,,-323.672,0.330664,0.0,0.0