Folder: fsri_materials_database/01_Data/Engineered_Wood_Furniture/MCC (part 2)

File: Engineered_Wood_Furniture_MCC_30K_min_211216_R3.txt
Sample ID:	C:\MCC\MCC Cal\Test\Engineered_Wood_Furniture_MCC_30K_min_211216_R3.txt
Sample Weight (mg):	4.98
Heating Rate (C/s):	0.5
Combustor Temp (C):	900
N2 Flow Rate (cc/min):	80
O2 Flow Rate (cc/min):	20
Calibration File:	C:\MCC\MCC Cal\Coeff1 JN10440_30_210304.txt.txt
T Correction Coefficients:	0	1.024463	0
Time Shift (s):	14
*
Time (s)	Temperature (C)	N2 flow rate (cc/min)	O2 flow rate (cc/min)	Flow Rate (cc/min)	Oxygen (%)	HRR (W/g)	Heating rate (C/s)
0.000	111.154	80.001	19.994	103.060	20.001	0.007	-0.008
8.000	111.136	80.003	19.994	103.062	19.998	0.165	-0.020
16.001	111.168	80.002	19.994	103.102	19.995	0.347	0.004
24.000	111.429	80.001	19.992	103.156	19.979	1.413	0.057
32.000	111.981	80.003	19.993	103.202	19.970	1.979	0.103
40.000	112.945	80.003	19.995	103.214	19.964	2.353	0.129
48.001	114.247	80.002	19.994	103.256	19.957	2.841	0.206
56.000	115.921	80.000	19.994	103.270	19.955	2.979	0.215
64.000	117.977	80.001	19.993	103.296	19.949	3.356	0.257
72.000	120.416	79.999	19.994	103.297	19.947	3.462	0.322
80.000	123.082	80.001	19.995	103.298	19.950	3.251	0.354
88.001	126.035	80.003	19.993	103.302	19.950	3.257	0.392
96.001	129.213	80.004	19.994	103.308	19.945	3.582	0.377
104.001	132.509	80.003	19.994	103.307	19.944	3.642	0.447
112.000	135.994	80.003	19.994	103.300	19.944	3.686	0.469
120.000	139.559	80.002	19.994	103.313	19.939	4.011	0.447
128.000	143.307	80.002	19.992	103.300	19.943	3.745	0.448
136.000	147.159	80.002	19.994	103.307	19.939	3.971	0.497
144.000	151.030	80.001	19.994	103.298	19.938	4.034	0.485
152.000	154.966	80.000	19.995	103.300	19.940	3.932	0.504
160.000	158.972	80.001	19.994	103.307	19.942	3.775	0.529
168.000	162.945	80.001	19.994	103.297	19.933	4.388	0.508
176.000	167.005	80.002	19.994	103.285	19.930	4.544	0.497
184.000	170.986	80.003	19.994	103.293	19.931	4.537	0.486
192.000	174.972	80.002	19.993	103.285	19.929	4.664	0.456
200.000	178.947	80.003	19.994	103.291	19.920	5.223	0.470
208.000	182.951	79.999	19.993	103.293	19.914	5.597	0.495
216.000	186.945	80.002	19.994	103.291	19.910	5.848	0.492
224.000	190.899	80.001	19.993	103.295	19.904	6.244	0.512
232.000	194.847	80.000	19.996	103.282	19.897	6.683	0.494
240.000	198.793	80.000	19.995	103.287	19.892	7.024	0.497
248.000	202.707	80.001	19.993	103.278	19.883	7.618	0.493
256.000	206.619	80.002	19.994	103.285	19.877	8.022	0.501
264.000	210.580	80.003	19.994	103.268	19.872	8.358	0.523
272.000	214.483	80.003	19.993	103.267	19.866	8.721	0.484
280.000	218.379	80.004	19.992	103.289	19.865	8.787	0.503
288.000	222.305	80.001	19.994	103.278	19.861	9.012	0.495
296.000	226.311	80.001	19.993	103.268	19.868	8.557	0.517
304.000	230.239	80.001	19.994	103.271	19.867	8.670	0.467
312.000	234.170	80.002	19.993	103.276	19.847	9.918	0.497
320.000	238.205	80.003	19.994	103.287	19.843	10.226	0.540
328.000	242.154	80.002	19.994	103.286	19.836	10.641	0.523
336.000	246.080	80.002	19.995	103.294	19.826	11.278	0.499
344.000	250.121	80.001	19.993	103.294	19.825	11.352	0.555
352.000	254.066	80.001	19.996	103.298	19.803	12.819	0.534
360.000	258.034	80.005	19.995	103.293	19.788	13.781	0.523
368.000	261.983	80.003	19.993	103.297	19.770	14.907	0.462
376.000	265.917	80.000	19.994	103.311	19.754	15.941	0.488
384.000	269.927	80.000	19.994	103.326	19.740	16.861	0.508
392.000	273.962	80.002	19.995	103.333	19.708	18.948	0.573
400.000	277.961	80.003	19.994	103.339	19.686	20.381	0.463
408.000	282.042	80.001	19.994	103.345	19.654	22.482	0.524
416.000	286.018	80.002	19.995	103.349	19.634	23.758	0.444
424.000	290.054	80.002	19.995	103.356	19.595	26.293	0.516
432.000	294.122	80.002	19.993	103.368	19.558	28.701	0.520
440.000	298.191	80.003	19.996	103.368	19.536	30.079	0.477
448.000	302.284	80.002	19.995	103.372	19.522	30.979	0.460
456.000	306.328	80.000	19.995	103.378	19.475	34.079	0.530
464.000	310.491	80.001	19.992	103.395	19.447	35.894	0.528
472.000	314.656	80.003	19.993	103.390	19.417	37.827	0.539
480.000	318.773	79.999	19.993	103.415	19.384	39.973	0.514
488.000	322.931	80.001	19.993	103.406	19.343	42.599	0.526
496.000	326.963	80.003	19.994	103.415	19.303	45.208	0.526
504.000	331.031	80.003	19.993	103.434	19.250	48.638	0.474
512.000	335.113	80.003	19.994	103.450	19.200	51.941	0.519
520.000	339.091	80.001	19.994	103.479	19.144	55.563	0.494
528.000	343.050	80.004	19.995	103.493	19.088	59.207	0.507
536.000	346.977	80.001	19.994	103.521	19.037	62.501	0.485
544.000	351.012	80.006	19.994	103.507	19.003	64.682	0.478
552.000	354.978	80.003	19.994	103.489	18.999	64.883	0.511
560.000	358.946	80.004	19.993	103.449	19.038	62.345	0.503
568.001	363.009	80.002	19.994	103.392	19.137	55.890	0.513
576.000	367.030	80.000	19.993	103.322	19.289	46.023	0.520
584.000	371.068	80.003	19.993	103.255	19.459	35.006	0.503
592.000	375.156	80.001	19.994	103.220	19.614	25.012	0.492
600.000	379.288	80.006	19.994	103.192	19.723	17.977	0.533
608.000	383.369	80.002	19.993	103.190	19.778	14.412	0.514
616.000	387.399	80.003	19.994	103.193	19.813	12.114	0.480
624.000	391.460	80.000	19.995	103.198	19.836	10.673	0.510
632.000	395.608	80.001	19.996	103.195	19.836	10.669	0.511
640.000	399.691	80.004	19.993	103.177	19.843	10.172	0.522
648.000	403.733	80.002	19.993	103.200	19.849	9.819	0.500
656.000	407.764	79.994	19.994	103.184	19.851	9.666	0.494
664.000	411.829	79.995	19.993	103.182	19.860	9.117	0.510
672.000	415.821	80.003	19.992	103.186	19.858	9.196	0.562
680.000	419.901	80.003	19.992	103.179	19.866	8.701	0.530
688.000	423.950	80.001	19.993	103.182	19.874	8.206	0.504
696.000	427.998	80.001	19.995	103.180	19.868	8.544	0.479
704.000	432.023	79.999	19.994	103.176	19.873	8.238	0.497
712.000	436.043	79.997	19.993	103.180	19.882	7.643	0.488
720.000	440.104	79.990	19.995	103.180	19.893	6.945	0.516
728.000	444.155	79.994	19.995	103.177	19.882	7.665	0.526
736.000	448.219	80.000	19.994	103.183	19.882	7.652	0.530
744.000	452.320	79.992	19.994	103.155	19.891	7.057	0.495
752.000	456.408	79.995	19.995	103.172	19.889	7.217	0.494
760.000	460.455	79.990	19.996	103.169	19.896	6.786	0.514
768.000	464.536	79.990	19.993	103.171	19.898	6.646	0.480
776.000	468.572	80.012	19.993	103.175	19.899	6.572	0.483
784.000	472.671	79.997	19.992	103.174	19.905	6.199	0.514
792.000	476.778	80.005	19.993	103.183	19.909	5.900	0.529
800.000	480.960	80.013	19.992	103.172	19.910	5.842	0.553
808.000	485.035	79.999	19.995	103.177	19.915	5.532	0.507
816.000	489.172	80.000	19.995	103.165	19.919	5.305	0.540
824.000	493.289	80.008	19.994	103.164	19.921	5.145	0.533
832.000	497.484	79.985	19.995	103.160	19.925	4.911	0.551
840.000	501.550	80.002	19.993	103.158	19.923	5.030	0.499
848.000	505.691	79.997	19.992	103.147	19.920	5.219	0.544
856.000	509.746	80.002	19.993	103.161	19.919	5.285	0.493
864.000	513.811	79.997	19.994	103.154	19.921	5.181	0.485
872.000	517.959	80.010	19.993	103.161	19.928	4.670	0.501
880.000	522.055	79.996	19.994	103.163	19.924	4.955	0.472
888.000	526.215	79.999	19.995	103.162	19.924	4.974	0.499
896.000	530.369	80.000	19.994	103.138	19.925	4.864	0.521
904.000	534.439	80.004	19.994	103.159	19.930	4.542	0.508
912.000	538.563	80.001	19.995	103.143	19.931	4.480	0.524
920.000	542.674	80.005	19.994	103.139	19.927	4.749	0.517
928.000	546.710	80.006	19.994	103.139	19.934	4.288	0.490
936.000	550.876	79.994	19.993	103.139	19.931	4.505	0.542
944.000	554.964	80.002	19.993	103.156	19.927	4.774	0.487
952.000	559.030	80.007	19.993	103.152	19.942	3.761	0.459
960.000	563.141	80.005	19.994	103.150	19.929	4.631	0.462
968.000	567.831	79.988	19.994	103.142	19.931	4.503	1.150
976.000	571.411	80.011	19.991	103.142	19.930	4.558	0.590
984.000	575.666	80.004	19.994	103.138	19.934	4.297	0.555
992.000	579.893	80.000	19.994	103.147	19.932	4.427	0.509
1000.000	584.191	79.990	19.996	103.137	19.930	4.562	0.537
1008.000	588.431	80.004	19.996	103.132	19.926	4.809	0.527
1016.000	592.697	80.000	19.994	103.133	19.927	4.765	0.533
1024.001	596.959	80.010	19.993	103.139	19.931	4.471	0.550
1032.000	601.122	80.000	19.994	103.143	19.932	4.449	0.527
1040.000	605.220	80.001	19.993	103.140	19.930	4.559	0.508
1048.001	609.343	79.991	19.995	103.141	19.930	4.584	0.493
1056.000	613.500	80.005	19.993	103.142	19.933	4.388	0.522
1064.000	617.652	79.994	19.994	103.138	19.932	4.456	0.515
1072.001	621.844	80.019	19.992	103.120	19.929	4.614	0.556
1080.000	625.915	80.007	19.994	103.134	19.932	4.434	0.505
1088.000	630.073	80.010	19.995	103.142	19.931	4.487	0.532
1096.000	634.132	80.006	19.993	103.135	19.937	4.123	0.485
1104.001	638.238	79.996	19.995	103.135	19.934	4.325	0.530
1112.000	642.266	80.001	19.993	103.139	19.936	4.188	0.527
1120.000	646.304	80.000	19.993	103.145	19.937	4.128	0.504
1128.000	650.443	80.003	19.994	103.141	19.932	4.462	0.540
1136.000	654.581	79.998	19.994	103.138	19.931	4.482	0.522
1144.000	658.767	80.008	19.992	103.143	19.936	4.209	0.539
1152.000	662.901	79.993	19.993	103.134	19.937	4.127	0.532
1160.000	666.914	79.998	19.995	103.134	19.935	4.265	0.506
1168.000	670.904	80.001	19.994	103.136	19.935	4.263	0.508
1176.000	674.880	80.004	19.993	103.136	19.930	4.540	0.511
1184.000	678.828	80.002	19.993	103.140	19.936	4.205	0.505
1192.000	682.860	80.001	19.995	103.125	19.939	3.987	0.487
1200.000	686.959	80.002	19.994	103.137	19.936	4.186	0.517
1208.000	691.044	80.002	19.993	103.132	19.937	4.142	0.509
1216.000	695.232	80.000	19.995	103.129	19.935	4.271	0.515
1224.000	699.492	79.999	19.994	103.131	19.934	4.277	0.505
1232.000	703.658	80.007	19.993	103.135	19.932	4.421	0.492
1240.000	707.844	80.005	19.993	103.138	19.931	4.490	0.491
1248.000	712.051	80.004	19.993	103.123	19.930	4.562	0.557
1256.000	716.217	80.003	19.994	103.132	19.929	4.655	0.489
1264.000	720.403	80.006	19.993	103.125	19.933	4.354	0.560
1272.000	724.489	80.001	19.994	103.113	19.928	4.700	0.529
1280.000	728.507	80.002	19.994	103.115	19.927	4.793	0.475
1288.000	732.495	80.001	19.994	103.124	19.928	4.663	0.479
1296.001	736.366	80.001	19.995	103.117	19.927	4.775	0.451
1304.001	740.336	80.000	19.993	103.133	19.931	4.483	0.525
1310.500	743.546	79.993	19.995	103.125	19.928	4.708	0.488