Folder: fsri_materials_database/01_Data/Polyester_Bed_Skirt/Cone (part 5)

File: Polyester_Bed_Skirt_Cone_HF75Scan_220523_R3.csv
Names,Time,Stack TC,Smoke TC,Exh Press,Smoke Comp,Smoke Meas,CO Meter,CO2 Meter,O2 Meter,Sample Mass,Ext Coeff,Start Test,Flame Verif
Chan Gain,,500,500,1,1,1,1,1,1,1,1,1.0,1.0
Offset,,0,0,0.139323,0,0,0,0,0,0,0,0.0,0.0
Gain,,1,1,25.011,13.8491,15.2622,1,1,1,1.00087,1.03118,1.0,1.0
Units,sec,C,C,Pa,%,%,%,%,%,g,/m,,
Baseline,,49.8797,51.6068,133.888,104.435,108.223,0.000116447,0.0428406,21.0024,-453.296,-0.322198,,
14,3.25,46.5262,48.642,139.611,104.427,108.792,0.000397196,0.0448806,20.999,599.432,-0.370389,0.0,0.0
28,6.75,46.8534,48.8091,131.775,104.422,107.852,0.000420074,0.0448772,20.999,599.422,-0.292338,0.0,0.0
42,10.25,47.5188,48.2817,134.737,104.405,107.511,0.000304089,0.0446619,20.9989,599.382,-0.265126,0.0,0.0
56,13.75,47.4806,48.7448,136.723,104.378,108.501,0.000213066,0.0446254,20.9979,599.452,-0.350437,0.0,0.0
70,17.25,47.0433,49.2283,128.293,104.371,105.1,0.00118345,0.0644903,20.9804,599.462,-0.063026,0.0,1.0
84,20.75,48.3882,49.72,127.232,104.386,93.071,0.00528274,0.182233,20.8475,599.152,1.03783,0.0,1.0
98,24.25,50.0868,50.2669,100.503,104.391,63.5946,0.0221581,0.591365,20.293,598.331,4.4831,0.0,0.0
112,27.75,60.7999,57.3634,103.682,104.431,62.5084,0.0355962,1.2418,19.6775,597.04,4.6424,0.0,0.0
126,31.25,67.7899,64.6676,121.56,104.458,78.5806,0.0289709,1.10504,19.8284,596.329,2.57486,0.0,0.0
140,34.75,69.0016,67.0937,125.576,104.509,97.4338,0.0165466,0.660492,20.2996,596.169,0.634102,0.0,0.0
154,38.25,67.6499,67.2349,128.395,104.548,103.008,0.00908804,0.381158,20.6094,596.029,0.13427,0.0,0.0
168,41.75,66.3103,66.7725,129.965,104.593,107.1,0.00586738,0.253327,20.7483,595.869,-0.214216,0.0,0.0
182,45.25,64.9736,66.2871,135.66,104.642,107.382,0.00479905,0.192003,20.8227,595.829,-0.233822,0.0,0.0
196,48.75,63.6909,64.8845,133.669,104.682,108.794,0.00444342,0.158598,20.8625,595.689,-0.348532,0.0,0.0
210,52.25,62.2436,64.4904,127.406,104.737,108.456,0.00463244,0.141398,20.8878,595.759,-0.315628,0.0,0.0
224,55.75,61.3577,64.0331,130.979,104.752,109.371,0.00514919,0.128833,20.9022,595.599,-0.390325,0.0,0.0
238,59.25,60.2202,63.2941,130.362,104.812,110.285,0.00545399,0.119552,20.9128,595.538,-0.460409,0.0,0.0
252,62.75,59.5435,62.772,132.279,104.843,109.613,0.00564191,0.112904,20.9191,595.448,-0.402418,0.0,0.0
266,66.25,58.8375,61.9274,131.049,104.895,110.048,0.00575065,0.107048,20.9237,595.388,-0.433763,0.0,0.0
280,69.75,57.8465,61.5067,129.891,104.955,108.867,0.00586684,0.102955,20.9276,595.318,-0.331013,0.0,0.0
294,73.25,57.2667,61.0287,132.498,104.971,110.493,0.00609647,0.10063,20.9308,595.308,-0.463729,0.0,0.0
308,76.75,57.0518,60.3771,133.483,104.999,109.714,0.00602893,0.0977233,20.9322,595.218,-0.397344,0.0,0.0
322,80.25,56.3634,60.2531,131.288,105.029,109.594,0.0060973,0.0954065,20.9355,595.258,-0.384851,0.0,0.0
336,83.75,55.8177,59.9113,130.998,105.064,109.128,0.00604965,0.092146,20.9399,595.108,-0.343264,0.0,0.0
350,87.25,55.6898,59.6671,130.724,105.068,109.706,0.00588866,0.0894257,20.9426,595.098,-0.39076,0.0,0.0
364,90.75,55.2427,59.1933,131.517,105.087,110.051,0.00568328,0.0889897,20.9449,595.048,-0.417461,0.0,0.0
378,94.25,55.0038,58.7482,128.302,105.053,110.723,0.00496364,0.0857462,20.9511,594.918,-0.47548,0.0,0.0
392,97.75,54.5714,58.7501,131.177,105.052,109.713,0.00437033,0.0806562,20.9556,594.848,-0.392681,0.0,0.0
406,101.25,54.0826,57.8622,132.431,105.008,109.415,0.00404496,0.0767379,20.961,594.848,-0.371856,0.0,0.0
420,104.75,54.1304,57.3402,131.365,104.965,110.473,0.00371568,0.0735766,20.9632,594.828,-0.462673,0.0,0.0
434,108.25,53.6783,57.7108,133.764,104.899,108.824,0.00355999,0.0719283,20.9663,594.758,-0.332222,0.0,0.0
448,111.75,53.2168,57.2996,130.668,104.842,110.075,0.00370654,0.0697846,20.9678,594.738,-0.440574,0.0,0.0
462,115.25,53.1353,56.8376,134.006,104.763,109.804,0.00357893,0.0681394,20.9696,594.688,-0.425056,0.0,0.0
476,118.75,52.792,56.6864,137.769,104.669,108.515,0.00339811,0.0668903,20.9721,594.648,-0.326404,0.0,0.0
490,122.25,52.2971,56.1753,134.991,104.595,108.938,0.00317932,0.0662707,20.9727,594.648,-0.368056,0.0,0.0
504,125.75,52.8046,56.114,131.142,104.511,108.891,0.00294586,0.0651767,20.9729,594.628,-0.371313,0.0,0.0
518,129.25,52.4402,56.1491,133.477,104.466,108.436,0.00266767,0.0640549,20.9745,594.618,-0.337348,0.0,0.0
532,132.75,52.7175,55.7709,130.703,104.412,108.679,0.00282707,0.0633487,20.9758,594.578,-0.362294,0.0,0.0
546,136.25,52.3779,56.0753,130.975,104.387,108.88,0.00298474,0.062815,20.9771,594.558,-0.381223,0.0,0.0
560,139.75,52.4755,55.9015,136.137,104.406,107.685,0.00285281,0.0621716,20.9794,594.548,-0.279736,0.0,0.0
574,143.25,51.9613,55.9193,132.299,104.546,107.908,0.00279471,0.0611528,20.9821,594.528,-0.286306,0.0,0.0
588,146.75,52.2405,55.2314,135.469,104.651,107.989,0.00271158,0.0600361,20.9841,594.508,-0.283996,0.0,0.0
602,150.25,52.3243,54.2174,133.154,104.791,108.584,0.00235533,0.0590432,20.985,594.487,-0.32156,0.0,0.0
616,153.75,52.0757,54.96,135.371,104.909,107.955,0.00211431,0.0583244,20.9852,594.437,-0.258894,0.0,0.0
630,157.25,51.6498,54.8793,132.704,104.974,108.744,0.00203369,0.0579543,20.9846,594.417,-0.319151,0.0,0.0
644,160.75,51.741,54.6574,132.262,105.063,108.73,0.00198992,0.0575769,20.986,594.357,-0.310307,0.0,0.0
658,164.25,52.4396,54.1812,134.439,105.09,108.982,0.00211889,0.0568151,20.9875,594.357,-0.328954,0.0,0.0
672,167.75,51.2465,54.9901,132.39,105.132,109.094,0.00213423,0.0562479,20.9884,594.347,-0.33459,0.0,0.0
686,171.25,52.2616,54.726,134.79,105.144,109.502,0.00198772,0.0554261,20.9896,594.317,-0.367378,0.0,0.0
700,174.75,52.2883,54.591,135.593,105.175,110.066,0.00191484,0.0544197,20.9912,594.277,-0.411161,0.0,0.0
714,178.25,51.4299,54.3127,128.733,105.176,110.06,0.00206928,0.0534278,20.9925,594.227,-0.410588,0.0,0.0
728,181.75,51.935,54.8017,131.917,105.179,109.02,0.00212347,0.0524489,20.9917,594.157,-0.324412,0.0,0.0
742,185.25,51.6728,54.2509,132.186,105.176,109.508,0.0020989,0.0517199,20.9909,594.157,-0.365113,0.0,0.0
756,188.75,52.041,54.1423,130.993,105.181,108.859,0.00214422,0.0518353,20.9923,594.147,-0.310963,0.0,0.0
770,192.25,52.1316,54.5606,133.159,105.174,109.006,0.00207504,0.0516817,20.9928,594.137,-0.323727,0.0,0.0
784,195.75,51.4068,54.769,130.456,105.167,108.886,0.00211644,0.0513083,20.9929,594.097,-0.314329,0.0,0.0
798,199.25,51.8095,53.7866,131.431,105.155,109.437,0.00207227,0.0506325,20.993,594.057,-0.361046,0.0,0.0
812,202.75,51.3417,54.2116,131.994,105.119,108.99,0.00201512,0.0500729,20.9942,594.047,-0.327104,0.0,0.0
826,206.25,51.3896,54.3262,133.542,105.103,107.996,0.00187484,0.0495657,20.996,594.047,-0.245653,0.0,0.0
840,209.75,51.809,54.1572,131.678,105.083,109.38,0.00168864,0.0489931,20.9958,594.017,-0.362529,0.0,0.0
854,213.25,50.3449,52.8195,134.623,105.091,110.166,0.00171108,0.0485647,20.9961,594.047,-0.426584,0.0,0.0
868,216.75,47.1987,49.6348,135.315,105.073,109.409,0.0016266,0.048218,20.9979,593.997,-0.365788,0.0,0.0
882,220.25,47.2375,49.6603,131.578,105.05,109.128,0.00147629,0.0477338,20.9983,593.977,-0.344504,0.0,0.0
896,223.75,47.1003,49.9255,133.239,105.037,108.773,0.00169297,0.0474113,20.9993,593.937,-0.31613,0.0,0.0
910,227.25,47.3194,49.4749,127.835,105.022,109.399,0.00170037,0.0470478,20.9985,593.927,-0.369384,0.0,0.0
924,230.75,47.2675,49.4529,129.48,104.999,109.302,0.00157974,0.0469276,20.9969,593.887,-0.363373,0.0,0.0
938,234.25,47.5585,49.1779,133.596,104.969,110.492,0.00153025,0.0469412,20.9968,593.917,-0.463832,0.0,0.0
952,237.75,46.8702,49.6575,132.913,104.947,109.396,0.00141817,0.0467504,20.9985,593.897,-0.37556,0.0,0.0
966,241.25,47.1996,49.7295,131.983,104.911,109.977,0.00141534,0.0467084,20.999,593.867,-0.426518,0.0,0.0
980,244.75,47.4565,49.3566,131.488,104.876,109.068,0.00142764,0.0466564,20.9967,593.847,-0.354529,0.0,0.0
994,248.25,47.4449,49.3198,132.464,104.836,109.051,0.00135705,0.0465645,20.9963,593.817,-0.356563,0.0,0.0
1008,251.75,47.2982,48.8569,132.407,104.808,109.249,0.00136319,0.0464512,20.9965,593.817,-0.375338,0.0,0.0
1022,255.25,47.5271,49.2771,134.531,104.767,109.087,0.00139174,0.0463341,20.9966,593.807,-0.365559,0.0,0.0
1036,258.75,47.0708,49.2638,130.985,104.775,109.063,0.00140596,0.0463401,20.9966,593.807,-0.36286,0.0,0.0
1050,262.25,47.2907,49.6793,131.656,104.782,109.277,0.00126446,0.0462709,20.9976,593.787,-0.379914,0.0,0.0
1064,265.75,47.0878,49.5865,132.352,104.784,109.135,0.00133916,0.0461767,20.999,593.737,-0.368003,0.0,0.0
1078,269.25,47.5316,49.3959,136.111,104.778,108.992,0.00152313,0.0463026,20.9992,593.787,-0.356616,0.0,0.0
1092,272.75,47.4213,49.6004,133.823,104.75,108.298,0.00130061,0.0464134,21.001,593.727,-0.301318,0.0,0.0
1106,276.25,47.0106,49.3627,129.558,104.717,109.124,0.00102739,0.0462731,21.0001,593.697,-0.372877,0.0,0.0
1120,279.75,47.1751,49.678,133.372,104.665,109.638,0.00114426,0.0463512,21.0007,593.687,-0.419892,0.0,0.0
1134,283.25,47.8188,49.6336,128.858,104.609,109.369,0.00120839,0.0465342,21.0014,593.747,-0.402441,0.0,0.0
1148,286.75,47.4436,49.8273,132.258,104.553,108.392,0.00100928,0.0466928,21.0011,593.697,-0.326198,0.0,0.0
1162,290.25,47.0845,49.3426,130.946,104.531,109.29,0.000787556,0.0467571,21.001,593.717,-0.402728,0.0,0.0
1176,293.75,47.2522,49.5799,130.943,104.492,108.578,0.000875451,0.0468593,20.9992,593.697,-0.346961,0.0,0.0
1190,297.25,47.1286,49.3304,133.506,104.438,108.564,0.0013442,0.0472703,20.9987,593.667,-0.350478,0.0,0.0
1204,300.75,47.4159,48.9759,132.871,104.36,109.358,0.00118711,0.0474269,20.9986,593.597,-0.423178,0.0,0.0
1218,304.25,47.105,49.3439,128.867,104.354,109.519,0.000958877,0.0476372,20.9985,593.687,-0.436973,0.0,0.0
1232,307.75,47.4415,49.0549,133.518,104.374,109.2,0.00108699,0.0476709,20.9992,593.597,-0.408866,0.0,0.0
1246,311.25,47.5854,49.7879,133.198,104.406,109.117,0.00103906,0.0476439,20.9976,593.527,-0.39921,0.0,0.0
1260,314.75,47.1658,49.0557,134.574,104.441,108.905,0.000863207,0.0477299,20.9987,593.557,-0.378587,0.0,0.0
1274,318.25,46.9869,49.3135,133.535,104.472,107.759,0.000630308,0.0477241,20.9983,593.557,-0.280241,0.0,0.0
1288,321.75,47.0374,48.9526,130.618,104.512,109.552,,0.0478522,,593.547,-0.426015,0.0,0.0
1302,325.25,47.3063,49.2822,131.597,104.505,109.505,,,,593.577,-0.422754,0.0,0.0
1316,328.75,47.0557,49.0496,131.93,104.538,109.229,,,,593.607,-0.397057,0.0,0.0
1329,332,47.0598,49.6801,134.017,104.543,108.458,,,,593.507,-0.332593,0.0,0.0