Folder: fsri_materials_database/01_Data/Polyester_Bed_Skirt/Cone (part 4)

File: Polyester_Bed_Skirt_Cone_HF75Scan_220523_R1.csv
Names,Time,Stack TC,Smoke TC,Exh Press,Smoke Comp,Smoke Meas,CO Meter,CO2 Meter,O2 Meter,Sample Mass,Ext Coeff,Start Test,Flame Verif
Chan Gain,,500,500,1,1,1,1,1,1,1,1,1.0,1.0
Offset,,0,0,0.139323,0,0,0,0,0,0,0,0.0,0.0
Gain,,1,1,25.011,13.8491,15.2622,1,1,1,1.00087,1.03118,1.0,1.0
Units,sec,C,C,Pa,%,%,%,%,%,g,/m,,
Baseline,,50.3859,52.3132,133.911,105.083,109.228,0.000495665,0.0466291,20.9911,-453.178,-0.349818,,
11,2.5,42.9769,45.5119,133.758,104.994,108.332,0.000640275,0.0514444,20.988,600.413,-0.283125,0.0,0.0
22,5.25,43.0202,45.2269,136.553,104.904,108.993,0.000634678,0.0515213,20.9876,600.443,-0.345863,0.0,0.0
33,8,43.9801,45.8119,134.561,104.815,108.967,0.000627077,0.050801,20.9875,600.353,-0.351394,0.0,0.0
44,10.75,43.354,45.7571,131.803,104.782,108.261,0.000615613,0.049823,20.9889,600.323,-0.295473,0.0,0.0
55,13.5,43.6733,45.7311,131.345,104.835,108.552,0.000612614,0.0490726,20.9895,600.373,-0.315125,0.0,0.0
66,16.25,44.4737,46.445,132.317,104.875,107.864,0.000720597,0.0491882,20.9882,600.353,-0.254194,0.0,0.0
77,19,44.2623,46.2116,134.337,104.924,107.596,0.00158261,0.0567079,20.9849,600.193,-0.227515,0.0,1.0
88,21.75,45.1709,46.9653,123.814,104.983,93.2163,0.00508803,0.13207,20.8417,600.112,1.07532,0.0,1.0
99,24.5,45.3315,46.0601,112.079,105.033,77.2201,0.0141116,0.3299,20.5501,599.672,2.78251,0.0,0.0
110,27.25,49.4965,48.8398,99.4537,105.08,63.5988,0.0278986,0.732354,20.0625,598.911,4.542,0.0,0.0
121,30,57.0364,53.8983,113.777,105.166,63.4716,0.0356284,1.05452,19.8188,597.991,4.56745,0.0,0.0
132,32.75,62.1271,58.786,121.867,105.208,76.9863,0.0307062,0.998222,19.955,597.51,2.825,0.0,0.0
143,35.5,63.7464,61.4813,117.415,105.27,89.5042,0.021106,0.76008,20.26,597.28,1.46756,0.0,0.0
154,38.25,63.9571,62.6365,129.06,105.291,102.246,0.0128556,0.528614,20.482,597.16,0.265411,0.0,0.0
165,41,63.1422,62.6194,131.474,105.331,106.857,0.00843714,0.367533,20.6309,597.05,-0.13014,0.0,0.0
176,43.75,61.9882,62.7174,130.011,105.384,108.471,0.00628556,0.269094,20.7465,596.99,-0.261159,0.0,0.0
187,46.5,61.2755,62.083,128.528,105.407,109.274,0.00537092,0.21166,20.8126,596.89,-0.325918,0.0,0.0
198,49.25,60.2936,61.6704,133.298,105.425,110.138,0.00509132,0.175589,20.8508,596.87,-0.395558,0.0,0.0
209,52,59.4298,61.1374,132.486,105.449,109.78,0.00509305,0.155299,20.8714,596.84,-0.364104,0.0,0.0
220,54.75,59.0252,61.1695,132.068,105.461,109.313,0.00543399,0.141456,20.8866,596.78,-0.324513,0.0,0.0
231,57.5,58.2244,60.5468,131.685,105.46,109.782,0.00569519,0.131721,20.8971,596.699,-0.363351,0.0,0.0
242,60.25,57.5376,59.7577,130.821,105.481,109.671,0.0058875,0.124212,20.9045,596.649,-0.352362,0.0,0.0
253,63,57.0153,59.1254,132.901,105.48,109.493,0.00606878,0.118035,20.9094,596.599,-0.337786,0.0,0.0
264,65.75,56.0953,59.2192,129.998,105.471,110.125,0.00610982,0.114203,20.9137,596.549,-0.390612,0.0,0.0
275,68.5,55.3248,59.0289,132.737,105.47,110.571,0.00611432,0.111609,20.9174,596.469,-0.427258,0.0,0.0
286,71.25,55.0612,58.5268,130.441,105.483,110.899,0.00614372,0.109987,20.9199,596.439,-0.452846,0.0,0.0
297,74,54.9381,58.1738,132.816,105.476,110.416,0.00633067,0.107849,20.922,596.379,-0.414016,0.0,0.0
308,76.75,54.3958,58.346,130.558,105.458,110.628,0.00646165,0.105346,20.9244,596.379,-0.432995,0.0,0.0
319,79.5,53.6653,58.075,131.78,105.45,110.32,0.00642232,0.103355,20.9268,596.319,-0.408401,0.0,0.0
330,82.25,54.2701,57.5487,127.687,105.435,110.77,0.00623101,0.101902,20.9294,596.269,-0.446485,0.0,0.0
341,85,53.3071,57.1581,133.165,105.411,109.894,0.00583347,0.100233,20.9317,596.269,-0.376727,0.0,0.0
352,87.75,53.1956,56.7336,130.278,105.417,110.376,0.00541252,0.0992626,20.9317,596.199,-0.415773,0.0,0.0
363,90.5,52.844,56.8177,129.334,105.399,110.052,0.00505528,0.0992057,20.9312,596.189,-0.390729,0.0,0.0
374,93.25,52.552,56.652,129.728,105.392,110.254,0.00479255,0.0987588,20.9326,596.149,-0.407908,0.0,0.0
385,96,52.5424,56.641,129.244,105.357,109.345,0.004711,0.0976051,20.9343,596.089,-0.33602,0.0,0.0
396,98.75,52.5694,56.356,133.676,105.349,108.929,0.00474691,0.0953324,20.9377,596.029,-0.302312,0.0,0.0
407,101.5,52.2115,56.0066,131.461,105.332,110.472,0.00455356,0.0921442,20.942,595.979,-0.431001,0.0,0.0
418,104.25,52.5007,55.9106,133.646,105.292,109.976,0.00432891,0.0887062,20.9467,595.959,-0.393743,0.0,0.0
429,107,52.3523,55.7286,131.375,105.279,110.539,0.00421688,0.0849286,20.9507,595.909,-0.440991,0.0,0.0
440,109.75,51.9657,55.4762,132.028,105.259,110.86,0.00405843,0.0811482,20.954,595.869,-0.46892,0.0,0.0
451,112.5,51.8791,55.5511,129.079,105.244,110.857,0.00396825,0.0780479,20.9569,595.839,-0.469963,0.0,0.0
462,115.25,51.8287,55.3838,135.565,105.221,109.286,0.00405564,0.0747681,20.9603,595.839,-0.342856,0.0,0.0
473,118,51.3254,55.1112,131.218,105.179,109.993,0.00405087,0.0717967,20.9646,595.799,-0.404784,0.0,0.0
484,120.75,51.5231,55.174,134.809,105.149,109.685,0.00394938,0.0689735,20.9683,595.739,-0.382049,0.0,0.0
495,123.5,51.516,54.9597,135.492,105.124,110.196,0.00388914,0.0665092,20.9715,595.769,-0.426231,0.0,0.0
506,126.25,51.3654,54.8109,132.793,105.111,110.555,0.0038515,0.0647502,20.9741,595.729,-0.456753,0.0,0.0
517,129,50.971,54.5449,129.183,105.064,109.863,0.00377971,0.0634576,20.9751,595.679,-0.403984,0.0,0.0
528,131.75,50.8958,54.1723,134.35,105.041,108.937,0.00378859,0.0620987,20.9762,595.689,-0.329423,0.0,0.0
539,134.5,50.9874,54.2416,133.914,105.002,109.163,0.0038414,0.0606043,20.9776,595.639,-0.351513,0.0,0.0
550,137.25,50.7195,53.6707,132.014,104.983,109.517,0.00382319,0.059345,20.9782,595.568,-0.382435,0.0,0.0
561,140,50.5288,53.9145,132.053,104.955,109.39,0.00368327,0.0583793,20.9789,595.618,-0.374331,0.0,0.0
572,142.75,50.5647,53.5815,130.737,104.926,109.356,0.00373987,0.057542,20.9801,595.548,-0.373994,0.0,0.0
583,145.5,50.3832,53.6847,134.954,104.895,109,0.00374309,0.0563056,20.9814,595.518,-0.347173,0.0,0.0
594,148.25,50.2247,53.6527,130.896,104.891,109.107,0.00335905,0.055106,20.982,595.488,-0.356458,0.0,0.0
605,151,48.7197,51.8114,136.25,104.877,108.854,0.00289621,0.0542442,20.9822,595.498,-0.336672,0.0,0.0
616,153.75,49.9545,52.8942,131.504,104.854,108.455,0.00289174,0.0544298,20.9837,595.488,-0.305484,0.0,0.0
627,156.5,50.1194,52.7686,134.772,104.83,109.509,0.00291446,0.0544463,20.9847,595.418,-0.395047,0.0,0.0
638,159.25,49.9335,53.1287,131.431,104.817,108.198,0.00286379,0.0543424,20.984,595.428,-0.287151,0.0,0.0
649,162,49.9042,53.153,131.809,104.816,109.257,0.00276795,0.0540987,20.9832,595.438,-0.375374,0.0,0.0
660,164.75,49.7122,53.0028,133.22,104.801,108.819,0.0025131,0.0540772,20.983,595.408,-0.340369,0.0,0.0
671,167.5,50.4523,52.9779,130.106,104.785,109.893,0.00239536,0.0539616,20.983,595.358,-0.43052,0.0,0.0
682,170.25,50.2462,52.5497,133.652,104.78,108.859,0.00240408,0.0537957,20.9839,595.348,-0.345522,0.0,0.0
693,173,49.7805,53.1067,130.895,104.786,109.666,0.00230065,0.0534225,20.9848,595.368,-0.411796,0.0,0.0
704,175.75,49.9978,52.9485,131.231,104.788,109.594,0.00233929,0.0531345,20.9863,595.338,-0.405582,0.0,0.0
715,178.5,49.8868,52.4923,129.008,104.802,109.911,0.00237976,0.0529135,20.9876,595.308,-0.430556,0.0,0.0
726,181.25,49.8697,52.7275,132.926,104.815,109.742,0.00240801,0.0527098,20.9891,595.298,-0.4155,0.0,0.0
737,184,50.2314,52.8275,134.925,104.824,108.821,0.00230713,0.0522718,20.9896,595.278,-0.338481,0.0,0.0
748,186.75,49.8418,52.6566,134.755,104.892,110.078,0.00206497,0.0519157,20.9902,595.268,-0.436506,0.0,0.0
759,189.5,49.988,52.5814,133.035,104.936,109.559,0.0021035,0.0517817,20.9905,595.288,-0.389938,0.0,0.0
770,192.25,50.0623,52.4808,133.061,104.976,109.859,0.00216989,0.0521086,20.9921,595.298,-0.411322,0.0,0.0
781,195,49.6724,52.4892,135.119,105.015,110.506,0.00201593,0.0521781,20.9923,595.258,-0.461046,0.0,0.0
792,197.75,49.9673,52.5224,129.839,105.062,110.213,0.00213907,0.0525863,20.9906,595.268,-0.433031,0.0,0.0
803,200.5,49.5434,52.4464,134.876,105.104,109.279,0.00222204,0.0527139,20.988,595.308,-0.352309,0.0,0.0
814,203.25,49.729,52.5411,130.015,105.133,110.999,0.00215619,0.0531819,20.9861,595.178,-0.491106,0.0,0.0
825,206,49.4388,52.0631,133.313,105.15,110.38,0.00212572,0.053533,20.9855,595.198,-0.439029,0.0,0.0
836,208.75,49.8085,52.3669,132.695,105.201,109.124,0.00210394,0.0538475,20.9847,595.098,-0.331177,0.0,0.0
847,211.5,49.2452,51.8314,133.226,105.211,110.324,0.00200686,0.0537654,20.9845,595.118,-0.429252,0.0,0.0
858,214.25,49.4022,52.0666,131.183,105.228,111.731,0.00195377,0.0539973,20.9835,595.148,-0.542436,0.0,0.0
869,217,49.1811,52.0372,133.116,105.223,112.157,0.00186472,0.0540652,20.9825,595.098,-0.577232,0.0,0.0
880,219.75,49.58,51.6608,133.736,105.197,110.59,0.00173547,0.0539665,20.9833,595.008,-0.452266,0.0,0.0
891,222.5,49.5041,52.0259,129.407,105.148,110.481,0.00176235,0.0540586,20.984,595.048,-0.447526,0.0,0.0
902,225.25,49.8303,52.0829,131.158,105.074,110.554,0.00172909,0.0540826,20.9853,595.028,-0.459915,0.0,0.0
913,228,50.0465,52.0421,134.875,105.011,109.484,0.00177468,0.0539928,20.9857,595.028,-0.377262,0.0,0.0
924,230.75,49.5067,51.9692,131.892,104.908,110.104,0.00169999,0.0535664,20.9874,595.038,-0.437262,0.0,0.0
935,233.5,49.6947,52.1109,131.372,104.805,109.846,0.00163097,0.0534146,20.9879,594.928,-0.42501,0.0,0.0
946,236.25,50.0546,52.2179,126.847,104.709,109.118,0.00149635,0.0537348,20.9881,594.968,-0.373073,0.0,0.0
957,239,50.0283,51.9602,131.417,104.611,110.512,0.00137863,0.0534803,20.9878,594.928,-0.496412,0.0,0.0
968,241.75,50.2338,52.0304,132.584,104.536,109.661,0.00144567,0.0530462,20.9875,594.888,-0.432925,0.0,0.0
979,244.5,50.0629,51.9977,134.166,104.434,108.626,0.00168853,0.052847,20.9874,594.908,-0.35597,0.0,0.0
990,247.25,49.8959,52.2776,134.113,104.354,108.923,0.00162201,0.0526799,20.9874,594.878,-0.387601,0.0,0.0
1001,250,50.0383,52.0949,132.739,104.377,108.944,0.00159554,0.0524883,20.9875,594.878,-0.387326,0.0,0.0
1012,252.75,49.837,52.0853,128.051,104.398,108.804,0.00170132,0.0524501,20.9875,594.828,-0.373921,0.0,0.0
1023,255.5,49.5481,51.8132,133.343,104.422,109.399,0.00179715,0.0521708,20.989,594.758,-0.421148,0.0,0.0
1034,258.25,49.7106,52.0631,130.282,104.428,109.182,,0.0522296,,594.768,-0.40271,0.0,0.0
1045,261,49.8062,52.2696,132.287,104.444,108.362,,,,594.898,-0.333112,0.0,0.0
1056,263.75,49.8407,51.4686,131.022,104.452,110.155,,,,594.798,-0.480875,0.0,0.0
1067,266.5,49.931,52.2532,132.097,104.496,110.057,,,,594.758,-0.469072,0.0,0.0
1075,268.5,49.7949,52.3979,133.945,104.507,109.367,,,,594.748,-0.411136,0.0,0.0

File: Polyester_Bed_Skirt_Cone_HF75Scan_220523_R2.csv
Names,Time,Stack TC,Smoke TC,Exh Press,Smoke Comp,Smoke Meas,CO Meter,CO2 Meter,O2 Meter,Sample Mass,Ext Coeff,Start Test,Flame Verif
Chan Gain,,500,500,1,1,1,1,1,1,1,1,1.0,1.0
Offset,,0,0,0.139323,0,0,0,0,0,0,0,0.0,0.0
Gain,,1,1,25.011,13.8491,15.2622,1,1,1,1.00087,1.03118,1.0,1.0
Units,sec,C,C,Pa,%,%,%,%,%,g,/m,,
Baseline,,49.8135,51.6797,134.105,103.889,107.575,0.000168286,0.046148,20.995,-453.226,-0.315281,,
15,3.5,44.0505,46.7913,132.123,103.89,107.722,0.000299153,0.0490162,20.9905,612.603,-0.327643,0.0,0.0
30,7.25,44.7335,47.1877,138.981,103.854,107.526,0.000163233,0.0480328,20.9913,612.583,-0.314331,0.0,0.0
45,11,45.9695,47.5756,133.352,103.829,107.444,0.000179783,0.046961,20.9937,612.543,-0.309528,0.0,0.0
60,14.75,45.9533,47.3388,132.193,103.822,106.255,0.00038886,0.0460275,20.9931,612.533,-0.209564,0.0,0.0
75,18.5,46.2176,47.4429,132.37,103.843,106.527,0.00123401,0.0517953,20.9895,612.483,-0.230813,0.0,0.0
90,22.25,46.9193,48.1754,115.959,103.819,74.8847,0.0116658,0.226552,20.7561,612.143,2.95518,0.0,1.0
105,26,53.269,50.4412,90.0998,103.818,57.3892,0.0314702,0.99185,19.9289,610.682,5.36202,0.0,0.0
120,29.75,65.5614,61.4182,121.511,103.817,77.7347,0.0305125,1.12064,19.857,609.931,2.61709,0.0,0.0
135,33.5,66.5663,64.8482,124.43,103.838,90.7151,0.0177033,0.700005,20.2673,609.591,1.22211,0.0,0.0
150,37.25,65.7449,65.3606,124.955,103.863,101.393,0.00921281,0.431989,20.5752,609.37,0.217688,0.0,0.0
165,41,64.3708,64.8171,125.742,103.89,105.564,0.00602876,0.278668,20.7323,609.32,-0.144571,0.0,0.0
180,44.75,63.5133,64.3798,127.702,103.914,106.683,0.00574283,0.199029,20.8206,609.21,-0.237946,0.0,0.0
195,48.5,62.5248,63.9503,128.915,103.942,106.934,0.00631282,0.158806,20.8666,609.14,-0.256663,0.0,0.0
210,52.25,61.1521,62.8839,132.464,103.961,108.333,0.00680937,0.137835,20.8845,609.05,-0.372633,0.0,0.0
225,56,60.0791,62.3002,134.583,104.018,107.839,0.00733657,0.122142,20.9041,609.07,-0.326317,0.0,0.0
240,59.75,59.0731,61.8124,129.125,104.035,108.528,0.00824338,0.111852,20.9162,608.99,-0.382443,0.0,0.0
255,63.5,58.6163,61.2279,132.099,104.053,107.872,0.00889261,0.103926,20.9249,608.91,-0.325999,0.0,0.0
270,67.25,57.6586,60.8016,133.563,104.082,108.036,0.00921828,0.0964557,20.9328,608.85,-0.337202,0.0,0.0
285,71,56.6945,60.1054,126.642,104.118,107.686,0.00933149,0.0900166,20.9398,608.87,-0.304821,0.0,0.0
300,74.75,55.9525,59.4419,136.61,104.159,107.389,0.00913768,0.085205,20.9461,608.74,-0.276228,0.0,0.0
315,78.5,55.3798,59.456,131.69,104.166,107.732,0.00943933,0.079347,20.9526,608.65,-0.304508,0.0,0.0
330,82.25,54.7943,58.4478,133.149,104.204,107.973,0.00910216,0.0751812,20.9579,608.63,-0.3214,0.0,0.0
345,86,54.4159,57.8028,128.914,104.218,109.21,0.00823032,0.0720723,20.9609,608.58,-0.423163,0.0,0.0
360,89.75,53.9471,57.628,131.336,104.257,107.93,0.00724285,0.0699353,20.9635,608.53,-0.31315,0.0,0.0
375,93.5,53.8491,57.2521,133.755,104.297,108.322,0.00625228,0.0689023,20.9663,608.41,-0.342588,0.0,0.0
390,97.25,53.3645,56.9684,133.379,104.308,107.271,0.00535941,0.0680441,20.9672,608.38,-0.253348,0.0,0.0
405,101,53.356,56.7572,129.252,104.308,108.329,0.00463641,0.0686301,20.9662,608.35,-0.34218,0.0,0.0
420,104.75,53.0332,56.4649,133.207,104.323,107.627,0.00402074,0.0703382,20.9653,608.32,-0.282021,0.0,0.0
435,108.5,53.2103,56.1559,128.799,104.344,107.743,0.0038649,0.0739319,20.9624,608.27,-0.289895,0.0,0.0
450,112.25,52.8422,55.8124,129.909,104.359,108.203,0.00380573,0.0773728,20.9607,608.219,-0.32724,0.0,0.0
465,116,53.2333,56.5315,133.779,104.385,108.111,0.00363702,0.0787957,20.9595,608.139,-0.317219,0.0,0.0
480,119.75,52.7607,55.8291,133.242,104.402,108.133,0.00346926,0.0803176,20.9592,608.139,-0.317585,0.0,0.0
495,123.5,52.4455,55.7647,134.706,104.417,108.656,0.00341886,0.0794584,20.9599,608.059,-0.359989,0.0,0.0
510,127.25,52.6888,55.9704,127.296,104.405,108.025,0.00309913,0.0789697,20.9603,607.999,-0.308325,0.0,0.0
525,131,53.0734,55.7928,132.224,104.384,108.589,0.00305473,0.0786834,20.9597,607.959,-0.357263,0.0,0.0
540,134.75,52.1261,56.0238,130.071,104.354,108.657,0.00312566,0.0782805,20.9614,607.929,-0.365488,0.0,0.0
555,138.5,52.7095,55.3866,135.695,104.311,108.933,0.00301629,0.0776398,20.9625,607.929,-0.39215,0.0,0.0
570,142.25,52.2842,55.9165,137.49,104.261,108.274,0.0029396,0.0758973,20.9649,607.849,-0.341622,0.0,0.0
585,146,52.5228,55.0299,129.639,104.203,107.734,0.00308498,0.0723465,20.9696,607.769,-0.301437,0.0,0.0
600,149.75,52.5552,55.2984,134.288,104.179,107.437,0.00316797,0.0711283,20.9694,607.809,-0.278541,0.0,0.0
615,153.5,51.6823,55.4571,130.766,104.117,107.854,0.00322484,0.0705587,20.9695,607.729,-0.319044,0.0,0.0
630,157.25,52.4487,54.3422,131.019,104.062,108.712,0.00316742,0.0695445,20.9727,607.679,-0.395414,0.0,0.0
645,161,51.964,54.6399,130.819,104.035,108.307,0.00308607,0.0688431,20.9737,607.689,-0.36406,0.0,0.0
660,164.75,51.5721,54.56,132.159,104.009,107.956,0.00314074,0.0673633,20.9756,607.559,-0.336963,0.0,0.0
675,168.5,51.3589,54.6812,129.695,103.982,110.096,0.00317315,0.0662006,20.9761,607.459,-0.516846,0.0,0.0
690,172.25,51.541,54.3392,132.974,103.946,108.26,0.00328216,0.0654825,20.9772,607.489,-0.367851,0.0,0.0
705,176,51.6311,54.0985,129.834,103.917,109.507,0.00332963,0.0645678,20.9783,607.489,-0.473972,0.0,0.0
720,179.75,51.8441,54.1376,129.19,103.93,109.846,0.00330707,0.0630839,20.9773,607.439,-0.500797,0.0,0.0
735,183.5,51.8863,54.0523,129.246,103.952,108.392,0.00326126,0.062366,20.977,607.339,-0.378381,0.0,0.0
750,187.25,51.8985,54.6607,130.349,103.991,108.607,0.00325591,0.0620095,20.9785,607.309,-0.392825,0.0,0.0
765,191,51.66,54.0459,136.046,104.015,108.823,0.00319088,0.0613319,20.9795,607.329,-0.40871,0.0,0.0
780,194.75,51.4886,54.1255,134.506,104.062,108.676,0.00317424,0.0609146,20.9799,607.289,-0.39239,0.0,0.0
795,198.5,51.8791,53.8788,131.773,104.124,108.061,0.00289492,0.0605992,20.9815,607.259,-0.335708,0.0,0.0
810,202.25,51.0543,54.0064,132.538,104.205,108.415,0.00270718,0.0601776,20.9805,607.199,-0.358283,0.0,0.0
825,206,50.9684,53.4683,132.025,104.299,108.975,0.00268782,0.0599042,20.9808,607.199,-0.396695,0.0,0.0
840,209.75,51.0854,53.6473,134.183,104.365,108.166,0.00270683,0.0593218,20.9808,607.089,-0.323577,0.0,0.0
855,213.5,50.8891,53.3921,135.657,104.421,108.154,0.00276312,0.0588072,20.9809,607.028,-0.317767,0.0,0.0
870,217.25,51.096,53.2127,134.103,104.495,108.587,0.00282685,0.058551,20.9813,606.988,-0.347478,0.0,0.0
885,221,51.5854,52.9073,130.468,104.57,109.584,0.00287991,0.0581397,20.9827,606.888,-0.423583,0.0,0.0
900,224.75,49.2897,51.6443,130.825,104.64,109.065,0.00286959,0.0577478,20.9848,606.828,-0.374661,0.0,0.0
915,228.5,49.1576,51.8909,132.393,104.688,109.05,0.00264386,0.0568172,20.9876,606.888,-0.369258,0.0,0.0
930,232.25,49.3581,51.6515,134.52,104.742,108.739,0.00254502,0.0562196,20.9884,606.758,-0.338816,0.0,0.0
945,236,49.6199,51.677,129.664,104.812,110.71,0.00251234,0.0558819,20.9891,606.788,-0.495184,0.0,0.0
960,239.75,49.7333,51.6062,134.269,104.872,109.118,0.00257721,0.0555828,20.9892,606.778,-0.358987,0.0,0.0
975,243.5,49.7189,51.9553,133.601,104.928,108.751,0.00271824,0.0552541,20.9899,606.748,-0.323705,0.0,0.0
990,247.25,49.3575,51.7875,137.912,104.972,108.291,0.00263761,0.0548752,20.9887,606.738,-0.281521,0.0,0.0
1005,251,49.9402,51.809,128.801,105.004,108.737,0.00259778,0.0546118,20.9898,606.608,-0.315909,0.0,0.0
1020,254.75,49.4326,52.0646,131.296,105.037,110.266,0.00255701,0.054133,20.9896,606.578,-0.439423,0.0,0.0
1035,258.5,49.2093,51.7305,128.201,105.063,109.811,0.00242088,0.0538017,20.9893,606.548,-0.399872,0.0,0.0
1050,262.25,49.3764,52.2718,128.557,105.076,110.656,0.00251002,0.053956,20.9892,606.528,-0.468074,0.0,0.0
1065,266,49.4225,51.8899,129.865,105.077,110.121,0.0024864,0.0539415,20.9883,606.498,-0.424113,0.0,0.0
1080,269.75,49.5351,51.4144,131.351,105.051,109.938,0.00222017,0.0540363,20.9883,606.408,-0.411246,0.0,0.0
1095,273.5,49.6682,52.2736,132.948,105.026,110.131,0.00212459,0.0542407,20.9897,606.458,-0.429319,0.0,0.0
1110,277.25,49.8723,51.8045,130.479,105.011,110.291,0.00195034,0.0541484,20.9877,606.438,-0.443706,0.0,0.0
1125,281,49.4159,51.5299,130.617,104.969,109.173,0.0020892,0.0538606,20.9871,606.308,-0.355236,0.0,0.0
1140,284.75,49.6526,51.1265,129.364,104.93,109.121,0.00210807,0.0535596,20.9871,606.348,-0.354228,0.0,0.0
1155,288.5,49.7718,51.6523,135.483,104.9,109.613,0.00198311,0.0530857,20.9886,606.288,-0.397531,0.0,0.0
1170,292.25,49.3506,51.9264,133.412,104.865,109.254,0.00189906,0.0531356,20.9898,606.318,-0.370875,0.0,0.0
1185,296,49.5043,51.1357,131.238,104.839,109.779,0.00195745,0.0532037,20.9897,606.328,-0.416456,0.0,0.0
1200,299.75,49.4803,52.1687,132.435,104.799,108.597,0.00179813,0.0535216,20.9897,606.278,-0.32199,0.0,0.0
1215,303.5,49.4396,51.5536,131.504,104.762,109.461,0.00186834,0.053528,20.9897,606.278,-0.396881,0.0,0.0
1230,307.25,49.5569,51.2818,130.971,104.711,109.006,0.00187566,0.053608,20.9897,606.218,-0.363654,0.0,0.0
1245,311,49.2399,51.706,128.88,104.682,109.76,0.00181887,0.0535037,20.9883,606.158,-0.428458,0.0,0.0
1260,314.75,49.423,51.8132,131.008,104.652,109.241,0.00178653,0.0535587,20.9887,606.178,-0.388191,0.0,0.0
1275,318.5,49.5262,52.0898,131.902,104.611,109.575,0.00179453,0.0534024,20.9902,606.168,-0.419343,0.0,0.0
1290,322.25,49.6525,51.8374,132.245,104.587,108.834,0.00165179,0.0529447,20.9906,606.148,-0.360049,0.0,0.0
1305,326,49.4889,51.8404,129.918,104.58,109.767,0.00155175,0.0528382,20.9911,606.058,-0.437913,0.0,0.0
1320,329.75,50.1383,51.7335,133.569,104.562,108.172,0.00150814,0.0526093,20.9909,606.058,-0.306951,0.0,0.0
1335,333.5,49.222,52.2983,130.414,104.547,109.345,,,,606.068,-0.405886,0.0,0.0
1350,337.25,49.8021,51.8252,131.29,104.566,108.747,,,,606.038,-0.354635,0.0,0.0
1365,341,50.2746,52.3265,132.611,104.549,108.375,,,,605.958,-0.325089,0.0,0.0