Folder: fsri_materials_database/01_Data/Polyester_Bed_Skirt/Cone

Note: 01_Data/README.md
# Materials and Products Database
## 01_Data

Raw data generated from each apparatus are included here in plain-text format. The data is organized first by material, next by the short name of test apparatus used, and where applicable additional filtering by test settings.

### material.json

Each material directory contains a json file of the same name as the material. This file links the data stored in the repository as well as data and graphs produced by the accompanying scripts (__02_Scripts__) to the respective landing page for the material on the front-end website.

File: Polyester_Bed_Skirt_Cone_HF25Scalar_220523_R1.csv
LABORATORY,FSRI
TEST IDENT,Polyester_Skirt_25_1
OPERATOR,Dow
MATERIAL,Polyester Bed Skirt
ORIENTATION,Horizontal
HEAT FLUX,25
SURF AREA,0.00884
C FACTOR,0.0418335
SPEC HOLDER DIFF,-566
SPECIMEN MASS,4.56
SCAN TIME,0.25
O2 DELAY TIME,11
CO DELAY TIME,11
CO2 DELAY TIME,8
FLOW FACTOR,1
SCAN COUNT,2121
TIME TO IGN,350.5
END OF TEST SCAN,1641
END OF TEST TIME,410.25
TEST STATUS,1
PRE TEST CMT,Dimensions: 103 x 102 x 0.72 mm; with frame and grid; with calcium silicate substrate; sample includes 5 layers
POST TEST CMT,Intermitttent flashes of flames prior to ignition.

File: Polyester_Bed_Skirt_Cone_HF25Scalar_220523_R2.csv
LABORATORY,FSRI
TEST IDENT,Polyester_Skirt_25_2
OPERATOR,Dow
MATERIAL,Polyester Bed Skirt
ORIENTATION,Horizontal
HEAT FLUX,25
SURF AREA,0.00884
C FACTOR,0.0418335
SPEC HOLDER DIFF,-566
SPECIMEN MASS,4.65
SCAN TIME,0.25
O2 DELAY TIME,11
CO DELAY TIME,11
CO2 DELAY TIME,8
FLOW FACTOR,1
SCAN COUNT,2287
TIME TO IGN,387.25
END OF TEST SCAN,1807
END OF TEST TIME,451.75
TEST STATUS,1
PRE TEST CMT,Dimensions: 102 x 102 x 0.70 mm; with frame and grid; with calcium silicate substrate; sample includes 5 layers
POST TEST CMT,Intermittent flashes of flames prior to ignition.

File: Polyester_Bed_Skirt_Cone_HF25Scalar_220523_R3.csv
LABORATORY,FSRI
TEST IDENT,Polyester_Skirt_25_3
OPERATOR,Dow
MATERIAL,Polyester Bed Skirt
ORIENTATION,Horizontal
HEAT FLUX,25
SURF AREA,0.00884
C FACTOR,0.0418335
SPEC HOLDER DIFF,-566
SPECIMEN MASS,4.6
SCAN TIME,0.25
O2 DELAY TIME,11
CO DELAY TIME,11
CO2 DELAY TIME,8
FLOW FACTOR,1
SCAN COUNT,2063
TIME TO IGN,327.25
END OF TEST SCAN,1583
END OF TEST TIME,395.75
TEST STATUS,1
PRE TEST CMT,Dimensions: 102 x 103 x 0.75 mm; with frame and grid; with calcium silicate substrate; sample includes 5 layers
POST TEST CMT,Intermittent flashes of flames prior to ignition.

File: Polyester_Bed_Skirt_Cone_HF25Scan_220523_R1.csv
Names,Time,Stack TC,Smoke TC,Exh Press,Smoke Comp,Smoke Meas,CO Meter,CO2 Meter,O2 Meter,Sample Mass,Ext Coeff,Start Test,Flame Verif
Chan Gain,,500,500,1,1,1,1,1,1,1,1,1.0,1.0
Offset,,0,0,0.135828,0,0,0,0,0,0,0,0.0,0.0
Gain,,1,1,25.011,13.8491,15.2622,1,1,1,1.00087,1.03118,1.0,1.0
Units,sec,C,C,Pa,%,%,%,%,%,g,/m,,
Baseline,,34.1216,35.0019,135.52,104.565,111.707,0.000204817,0.0460522,20.9923,-451.211,-0.597626,,
23,5.5,28.1312,29.8642,135.565,104.63,111.66,0.00028383,0.0482018,20.992,612.563,-0.588144,0.0,0.0
46,11.25,28.9946,29.8578,139.038,104.892,111.669,0.000420569,0.047238,20.9935,612.653,-0.566311,0.0,0.0
69,17,28.6397,29.6927,134.899,105.179,111.931,0.00019872,0.046488,20.9944,612.623,-0.562811,0.0,0.0
92,22.75,28.8437,29.616,131.377,105.463,112.973,6.13021e-05,0.0466227,20.9932,612.583,-0.622158,0.0,0.0
115,28.5,28.5764,29.8722,134.932,105.724,113.38,-0.000113018,0.0459261,20.9941,612.573,-0.632391,0.0,0.0
138,34.25,28.8616,30.2481,134.862,105.895,112.455,3.49293e-05,0.0456484,20.9961,612.643,-0.543692,0.0,0.0
161,40,29.1356,29.7076,141.092,105.942,113.228,0.000106382,0.04562,20.9953,612.533,-0.60163,0.0,0.0
184,45.75,28.7593,29.4634,141.025,105.879,113.636,0.000111133,0.0453618,20.9971,612.563,-0.639616,0.0,0.0
207,51.5,29.4632,29.1856,136.52,105.729,111.882,0.00033981,0.0452571,20.9965,612.553,-0.511695,0.0,0.0
230,57.25,28.6981,29.7208,134.247,105.53,111.598,0.000315105,0.0453346,20.9941,612.563,-0.505668,0.0,0.0
253,63,28.9099,29.6473,138.656,105.388,112.511,0.000231419,0.0454886,20.9937,612.513,-0.591578,0.0,0.0
276,68.75,29.5485,29.5272,141.089,105.275,112.413,-9.24034e-05,0.0457702,20.9931,612.553,-0.593403,0.0,0.0
299,74.5,29.4451,30.2034,135.523,105.186,112.147,-0.000284856,0.0469583,20.9924,612.523,-0.579643,0.0,0.0
322,80.25,29.4267,29.9091,134.646,105.127,111.479,5.68913e-05,0.0486128,20.9914,612.543,-0.530663,0.0,0.0
345,86,29.6263,29.7598,134.557,105.089,111.764,0.000153255,0.0502079,20.9889,612.523,-0.557035,0.0,0.0
368,91.75,29.1765,30.2671,133.692,105.033,111.658,6.90782e-05,0.0498321,20.9913,612.533,-0.553277,0.0,0.0
391,97.5,29.5258,30.2356,136.017,105.064,111.445,0.000147925,0.0480493,20.9921,612.463,-0.533324,0.0,0.0
414,103.25,29.4405,30.2777,137.733,105.137,112.022,0.000394371,0.0506974,20.9849,612.513,-0.573747,0.0,0.0
437,109,29.8318,30.3763,132.908,105.201,111.649,0.000212983,0.0552912,20.9809,612.533,-0.538085,0.0,0.0
460,114.75,29.0981,30.2721,137.4,105.277,111.267,0.000226996,0.0554766,20.9794,612.483,-0.500512,0.0,0.0
483,120.5,29.2476,30.4806,133.899,105.314,111.515,1.23022e-05,0.052944,20.9854,612.503,-0.517476,0.0,0.0
506,126.25,30.1736,30.6602,138.189,105.292,111.243,0.000355921,0.0500744,20.9899,612.473,-0.497311,0.0,0.0
529,132,29.6556,30.4229,137.716,105.298,112.128,0.000565275,0.0506942,20.9897,612.483,-0.568512,0.0,0.0
552,137.75,29.7057,30.8004,136.864,105.315,112.385,7.57295e-05,0.0506938,20.9884,612.463,-0.587703,0.0,0.0
575,143.5,29.9942,30.4809,133.234,105.319,112.216,0.000302332,0.0487971,20.991,612.443,-0.573758,0.0,0.0
598,149.25,30.249,30.9387,134.433,105.345,112.04,0.000309621,0.047449,20.9932,612.453,-0.557379,0.0,0.0
621,155,30.5517,30.4608,132.096,105.356,112.693,0.000116258,0.0468511,20.9943,612.463,-0.608928,0.0,0.0
644,160.75,30.1961,30.5068,133.406,105.373,112.035,2.28299e-05,0.0461094,20.9945,612.453,-0.554533,0.0,0.0
667,166.5,29.4081,30.9259,138.08,105.419,112.679,0.000126659,0.0456839,20.9948,612.453,-0.602476,0.0,0.0
690,172.25,30.3129,31.2055,132.648,105.44,111.902,-0.000101738,0.045221,20.9963,612.473,-0.538044,0.0,0.0
713,178,30.3465,30.6269,136.692,105.45,111.819,-0.000157142,0.0447092,20.9972,612.403,-0.530431,0.0,0.0
736,183.75,29.7365,30.7127,135.194,105.466,112.709,-0.000146476,0.0466974,20.9955,612.443,-0.600769,0.0,0.0
759,189.5,30.2191,30.3464,132.067,105.455,112.554,-2.93681e-05,0.0482235,20.9947,612.403,-0.589332,0.0,0.0
782,195.25,30.1787,31.1879,136.974,105.464,112.193,-0.000127778,0.0465108,20.9972,612.433,-0.559476,0.0,0.0
805,201,29.8165,30.9684,137.958,105.481,112.289,0.000308866,0.0455518,20.9983,612.293,-0.565796,0.0,0.0
828,206.75,30.0273,30.4897,136.105,105.49,111.682,0.000368788,0.0473895,20.9982,612.383,-0.515979,0.0,0.0
851,212.5,29.9641,30.669,132.939,105.472,112.367,0.000404289,0.0519034,20.9918,612.383,-0.572747,0.0,0.0
874,218.25,30.0176,30.5936,135.36,105.464,111.656,0.000326347,0.0483423,20.9919,612.433,-0.516039,0.0,0.0
897,224,30.6,31.0197,134.087,105.412,111.572,-1.4083e-05,0.045794,20.9938,612.383,-0.51374,0.0,0.0
920,229.75,30.5987,30.9002,134.243,105.345,111.651,-6.96778e-05,0.0448105,20.9943,612.373,-0.525851,0.0,0.0
943,235.5,30.2791,30.9822,138.08,105.269,111.62,1.88338e-05,0.0446235,20.9954,612.353,-0.529895,0.0,0.0
966,241.25,30.3092,31.1032,136.958,105.138,111.085,-0.00028238,0.0449064,20.9948,612.353,-0.497725,0.0,0.0
989,247,30.5927,30.7685,135.075,105.064,111.457,-0.000154583,0.0445557,20.9949,612.423,-0.534231,0.0,0.0
1012,252.75,30.42,30.8746,134.281,105.058,111.549,-3.74878e-05,0.044589,20.9965,612.413,-0.542295,0.0,0.0
1035,258.5,30.1303,31.0123,136.886,105.029,110.78,0.000171992,0.0449834,20.9958,612.393,-0.482234,0.0,0.0
1058,264.25,30.2425,31.2048,136.393,105.089,111.296,0.000329212,0.0452467,20.9962,612.383,-0.519145,0.0,0.0
1081,270,29.8534,31.4657,137.384,105.208,111.638,3.43544e-05,0.045081,20.9963,612.343,-0.536597,0.0,0.0
1104,275.75,30.1577,30.82,138.686,105.303,111.534,0.000188096,0.0452324,20.9963,612.363,-0.519969,0.0,0.0
1127,281.5,29.5438,30.996,135.092,105.378,111.649,0.000426413,0.0454146,20.9963,612.383,-0.522906,0.0,0.0
1150,287.25,30.5232,31.4685,134.295,105.433,111.665,0.000392423,0.0456191,20.9963,612.363,-0.519438,0.0,0.0
1173,293,30.0403,31.0647,138.211,105.444,111.336,0.000269688,0.0457418,20.9963,612.383,-0.491783,0.0,0.0
1196,298.75,30.1889,31.1376,134.995,105.455,111.302,0.000315074,0.0457547,20.9951,612.283,-0.48815,0.0,0.0
1219,304.5,30.617,30.8776,135.471,105.433,111.022,0.000163197,0.0460344,20.9962,612.293,-0.467295,0.0,0.0
1242,310.25,29.8935,31.4467,131.679,105.329,110.688,4.70664e-05,0.0460206,20.9974,612.263,-0.448859,0.0,0.0
1265,316,30.1448,31.6068,135.847,105.152,110.459,0.000314163,0.045786,20.9963,612.223,-0.445445,0.0,0.0
1288,321.75,29.5406,31.2215,134.33,104.925,109.717,0.000348455,0.0459019,20.9979,612.243,-0.403914,0.0,0.0
1311,327.5,30.2102,31.0936,134.821,104.668,109.526,0.000341814,0.0460857,20.9965,612.243,-0.410409,0.0,0.0
1334,333.25,30.4349,30.7108,134.746,104.825,110.687,0.00028287,0.0463338,20.9947,612.073,-0.492186,0.0,0.0
1357,339,30.0876,31.0514,134.869,105.063,111.071,0.00022432,0.0462327,20.9962,612.223,-0.503063,0.0,0.0
1380,344.75,29.5043,30.9202,134.862,105.274,110.677,0.000375245,0.0469404,20.995,612.153,-0.452738,0.0,0.0
1403,350.5,29.9031,30.9382,135.549,105.411,111.328,0.000503533,0.0520007,20.9922,612.443,-0.494005,0.0,1.0
1426,356.25,28.8637,30.3966,125.618,105.474,96.6019,0.0049783,0.177861,20.8442,611.903,0.794827,0.0,0.0
1449,362,34.0135,32.8905,120.75,105.411,84.5032,0.0145149,0.466451,20.5138,611.052,1.99972,0.0,0.0
1472,367.75,42.3605,40.3337,117.967,105.284,84.5265,0.0174865,0.58805,20.3865,610.241,1.98634,0.0,0.0
1495,373.5,45.3451,43.4363,127.738,105.097,97.9163,0.0122504,0.461635,20.4933,609.611,0.640156,0.0,0.0
1518,379.25,45.7447,44.9169,126.795,104.898,104.858,0.00641429,0.321304,20.6799,609.31,0.00347687,0.0,0.0
1541,385,45.1195,44.9339,128.178,104.73,109.923,0.00372368,0.22223,20.7978,609.09,-0.437756,0.0,0.0
1564,390.75,44.0964,44.2402,131.106,104.588,111.395,0.0026454,0.15769,20.8754,608.99,-0.570341,0.0,0.0
1587,396.5,42.4281,43.5876,136.655,104.506,112.096,0.00231741,0.115975,20.9168,608.91,-0.634177,0.0,0.0
1610,402.25,40.5407,42.8191,136.168,104.469,110.991,0.00183717,0.0875795,20.9504,608.82,-0.547731,0.0,0.0
1633,408,39.346,41.5804,140.001,104.449,110.33,0.00133724,0.0652675,20.9733,608.84,-0.495501,0.0,0.0
1656,413.75,36.4902,39.1965,131.889,104.436,109.82,0.00109623,0.0538839,20.9859,608.81,-0.454689,0.0,0.0
1679,419.5,35.4485,37.9605,134.172,104.464,110.757,0.000887154,0.0519063,20.9888,608.84,-0.529095,0.0,0.0
1702,425.25,34.5891,37.5252,133.333,104.452,110.658,0.000660059,0.0506273,20.9896,608.83,-0.522087,0.0,0.0
1725,431,34.1877,36.7509,134.753,104.458,110.34,0.000383303,0.0497818,20.9907,608.79,-0.495535,0.0,0.0
1748,436.75,33.4487,35.9485,134.377,104.453,110.597,0.00055425,0.048921,20.9918,608.78,-0.516989,0.0,0.0
1771,442.5,33.4956,35.7843,136.807,104.454,110.295,0.000725513,0.0487013,20.9919,608.77,-0.492196,0.0,0.0
1794,448.25,32.4151,35.0622,135.406,104.453,110.99,0.00102099,0.0482776,20.9919,608.8,-0.549046,0.0,0.0
1817,454,32.3744,34.6126,138.993,104.431,111.374,0.000527091,0.0481573,20.9919,608.79,-0.58221,0.0,0.0
1840,459.75,32.1312,34.4288,137.913,104.415,110.201,0.000171708,0.0480137,20.9919,608.77,-0.487845,0.0,0.0
1863,465.5,31.4437,33.9419,131.138,104.396,110.845,0.000878974,0.0480946,20.9906,608.74,-0.54225,0.0,0.0
1886,471.25,31.7154,33.8068,134.076,104.352,111.679,0.000624214,0.0477005,20.9922,608.72,-0.613839,0.0,0.0
1909,477,31.5804,33.8366,137.296,104.326,110.569,0.000660397,0.0473505,20.9922,608.7,-0.525725,0.0,0.0
1932,482.75,31.5581,33.2916,133.59,104.303,110.942,0.000328416,0.0471884,20.9933,608.71,-0.558137,0.0,0.0
1955,488.5,31.5441,33.1159,136.475,104.29,110.361,0.000589086,0.0470775,20.9963,608.71,-0.511793,0.0,0.0
1978,494.25,31.1117,32.5873,134.699,104.267,110.928,0.000883723,0.0471724,20.9967,608.69,-0.560189,0.0,0.0
2001,500,30.7895,32.8445,134.576,104.262,110.79,0.000899596,0.0469815,20.9971,608.69,-0.549305,0.0,0.0
2024,505.75,31.0152,32.0492,135.285,104.263,110.479,0.00060002,0.0468624,20.998,608.68,-0.523868,0.0,0.0
2047,511.5,30.6736,32.3068,136.249,104.245,110.427,0.000536058,0.0470264,20.9959,608.66,-0.521098,0.0,0.0
2070,517.25,30.6646,32.3873,131.859,104.247,111.151,0.000496249,0.0469299,20.9936,608.66,-0.580049,0.0,0.0
2093,523,30.4599,32.0828,136.894,104.259,110.294,,,,608.64,-0.509006,0.0,0.0
2116,528.75,30.9218,31.7877,137.814,104.234,111.086,,,,608.65,-0.575915,0.0,0.0
2121,530,30.3949,32.1646,134.596,104.254,110.35,,,,608.62,-0.514031,0.0,0.0

File: Polyester_Bed_Skirt_Cone_HF25Scan_220523_R2.csv
Names,Time,Stack TC,Smoke TC,Exh Press,Smoke Comp,Smoke Meas,CO Meter,CO2 Meter,O2 Meter,Sample Mass,Ext Coeff,Start Test,Flame Verif
Chan Gain,,500,500,1,1,1,1,1,1,1,1,1.0,1.0
Offset,,0,0,0.135828,0,0,0,0,0,0,0,0.0,0.0
Gain,,1,1,25.011,13.8491,15.2622,1,1,1,1.00087,1.03118,1.0,1.0
Units,sec,C,C,Pa,%,%,%,%,%,g,/m,,
Baseline,,31.1037,31.9155,136.579,105.382,111.954,7.2349e-05,0.0472591,20.9929,-451.14,-0.54716,,
24,5.75,28.3253,28.8253,137.287,105.23,111.723,-9.82047e-05,0.0492872,20.9895,605.988,-0.541613,0.0,0.0
48,11.75,27.9526,29.2488,137.406,105.286,112.503,-4.3821e-05,0.0477115,20.9924,606.008,-0.599725,0.0,0.0
72,17.75,29.127,29.3868,138.625,105.37,111.735,0.000185544,0.0465447,20.9931,606.018,-0.530574,0.0,0.0
96,23.75,28.6445,29.0791,133.966,105.455,111.497,-0.000102736,0.0461566,20.9945,605.997,-0.503996,0.0,0.0
120,29.75,28.8813,29.3311,140.993,105.494,112.407,2.50477e-05,0.0461686,20.9946,605.988,-0.574123,0.0,0.0
144,35.75,28.6202,29.673,134.682,105.484,111.963,0.000144484,0.0460558,20.9946,605.997,-0.539203,0.0,0.0
168,41.75,28.5491,29.1082,137.574,105.389,110.908,-8.37706e-05,0.0462784,20.9944,605.978,-0.461765,0.0,0.0
192,47.75,29.1341,29.927,137.935,105.21,110.945,-0.000138974,0.0461108,20.994,605.988,-0.480087,0.0,0.0
216,53.75,28.8248,29.4111,135.681,104.997,111.236,8.23061e-05,0.0459981,20.994,605.917,-0.522084,0.0,0.0
240,59.75,29.0573,29.1864,138.339,104.808,111.291,0.000264242,0.0463729,20.994,606.008,-0.54288,0.0,0.0
264,65.75,29.0436,29.6314,138.701,104.722,110.791,0.000124874,0.048758,20.993,605.937,-0.509574,0.0,0.0
288,71.75,29.163,29.9709,136.397,104.819,110.397,0.000389644,0.0477789,20.9948,605.988,-0.46899,0.0,0.0
312,77.75,29.3194,29.8357,138.527,104.972,111.532,0.000346319,0.0468037,20.9952,605.917,-0.548399,0.0,0.0
336,83.75,29.3692,29.9994,136.017,105.13,111.221,0.000138916,0.046644,20.9953,605.937,-0.509448,0.0,0.0
360,89.75,29.5006,29.6129,135.511,105.267,110.614,0.000136975,0.0477459,20.9927,605.927,-0.448181,0.0,0.0
384,95.75,29.2564,29.9155,138.56,105.327,110.453,-0.000120456,0.0469399,20.9937,605.907,-0.429799,0.0,0.0
408,101.75,29.3885,29.9397,136.941,105.374,110.95,0.000116516,0.0490202,20.9912,605.907,-0.466453,0.0,0.0
432,107.75,29.521,30.4062,135.218,105.413,111.27,0.000358242,0.0485051,20.9901,605.927,-0.48913,0.0,0.0
456,113.75,28.9248,30.0061,136.734,105.412,111.569,0.000143637,0.0501596,20.9877,605.927,-0.51344,0.0,0.0
480,119.75,29.6381,29.966,135.426,105.429,111.235,8.8644e-05,0.0525397,20.9837,605.917,-0.484911,0.0,0.0
504,125.75,29.505,30.208,135.965,105.441,110.957,0.000309693,0.0532085,20.9822,605.907,-0.461181,0.0,0.0
528,131.75,28.9611,30.4067,135.62,105.447,111.789,0.00014613,0.0542438,20.9821,605.897,-0.528309,0.0,0.0
552,137.75,29.6879,30.2162,136.294,105.451,112.041,-4.07878e-05,0.0536037,20.9836,605.867,-0.548312,0.0,0.0
576,143.75,29.7907,30.3341,138.906,105.467,110.955,0.00018174,0.0514825,20.9858,605.887,-0.458819,0.0,0.0
600,149.75,29.6619,30.5257,139.627,105.48,111.018,9.74128e-05,0.0497298,20.988,605.917,-0.462819,0.0,0.0
624,155.75,29.5229,30.4915,135.852,105.476,111.122,0.000307698,0.0485534,20.9904,605.837,-0.471715,0.0,0.0
648,161.75,30.1773,30.4004,138.308,105.478,111.009,9.73818e-05,0.0498596,20.9871,605.847,-0.462279,0.0,0.0
672,167.75,30.1955,30.4034,139.342,105.489,111.776,6.97437e-05,0.0532342,20.9831,605.887,-0.523628,0.0,0.0
696,173.75,29.9577,30.624,139.361,105.474,110.948,0.000295365,0.0531016,20.9833,605.867,-0.457743,0.0,0.0
720,179.75,29.7808,30.7339,138.259,105.465,110.592,0.000237321,0.0523092,20.9836,605.877,-0.42937,0.0,0.0
744,185.75,30.0229,31.117,135.423,105.452,110.593,5.37285e-05,0.0516508,20.9849,605.827,-0.43057,0.0,0.0
768,191.75,29.655,30.936,137.724,105.448,110.732,-2.55778e-05,0.0502398,20.9865,605.837,-0.442243,0.0,0.0
792,197.75,29.8114,30.9299,135.68,105.389,111.722,-0.000108001,0.0506388,20.9867,605.817,-0.527848,0.0,0.0
816,203.75,30.2345,30.9461,137.643,105.329,111.438,0.000137491,0.0513618,20.9871,605.827,-0.510008,0.0,0.0
840,209.75,30.5067,31.2183,134.821,105.256,109.961,3.91009e-05,0.050988,20.9896,605.817,-0.395529,0.0,0.0
864,215.75,27.8992,29.1462,135.127,105.16,110.302,8.71314e-05,0.0544119,20.9845,605.797,-0.431816,0.0,0.0
888,221.75,28.6475,28.9403,133.64,105.026,110.153,0.000100274,0.0531029,20.987,605.797,-0.431156,0.0,0.0
912,227.75,28.0836,29.49,136.778,104.898,110.513,0.000375924,0.0599129,20.98,605.787,-0.471707,0.0,0.0
936,233.75,28.8378,29.4126,134.455,104.798,110.231,0.000121771,0.0535337,20.9877,605.787,-0.45718,0.0,0.0
960,239.75,28.6835,29.1826,140.532,104.757,109.792,-3.76528e-05,0.0502752,20.989,605.797,-0.424644,0.0,0.0
984,245.75,28.5883,29.3073,137.323,104.94,110.271,0.000267455,0.0499206,20.9881,605.787,-0.448255,0.0,0.0
1008,251.75,29.1458,29.5249,137.468,105.104,110.21,0.000258183,0.0502388,20.9891,605.767,-0.429125,0.0,0.0
1032,257.75,28.7263,29.3421,131.304,105.311,110.632,0.000291901,0.0502372,20.9893,605.757,-0.445814,0.0,0.0
1056,263.75,28.784,29.9093,139.616,105.468,110.81,0.000500154,0.0514804,20.9885,605.757,-0.446929,0.0,0.0
1080,269.75,28.7311,29.6137,139.028,105.553,110.22,0.000228842,0.0533902,20.9851,605.737,-0.391308,0.0,0.0
1104,275.75,28.8468,29.7581,135.496,105.543,110.265,0.000219699,0.0500848,20.9883,605.707,-0.395847,0.0,0.0
1128,281.75,28.397,30.0773,133.888,105.411,110.011,0.000266171,0.0501345,20.9892,605.697,-0.386347,0.0,0.0
1152,287.75,28.3825,29.8763,135.496,105.147,109.921,0.000357652,0.0505438,20.9893,605.727,-0.401646,0.0,0.0
1176,293.75,28.7372,29.6274,133.535,105.233,109.879,0.000329693,0.0507798,20.9893,605.707,-0.390856,0.0,0.0
1200,299.75,28.6995,29.6686,135.341,105.408,110.519,0.00023865,0.0499996,20.9902,605.677,-0.428284,0.0,0.0
1224,305.75,29.0877,29.8443,136.365,105.615,110.923,0.000670379,0.0493062,20.9909,605.657,-0.44352,0.0,0.0
1248,311.75,29.0578,29.9615,132.135,105.791,110.694,0.000500137,0.0502827,20.9896,605.677,-0.409842,0.0,0.0
1272,317.75,28.8594,30.0997,134.665,105.922,110.751,0.000375742,0.0491135,20.9896,605.697,-0.403291,0.0,0.0
1296,323.75,29.2284,29.8151,136.7,105.985,110.506,0.000242701,0.0475883,20.9934,605.707,-0.377919,0.0,0.0
1320,329.75,28.723,29.9391,136.866,106.022,110.56,0.000435717,0.0478579,20.9939,605.677,-0.379092,0.0,0.0
1344,335.75,29.0377,29.9019,141.398,106.006,111.2,0.000115525,0.0481337,20.9927,605.627,-0.43267,0.0,0.0
1368,341.75,29.2424,29.4487,137.377,105.993,110.602,0.000382462,0.0484752,20.9931,605.607,-0.384974,0.0,0.0
1392,347.75,28.3331,29.7224,135.684,105.982,111.223,0.000288324,0.0491363,20.9916,605.537,-0.436547,0.0,0.0
1416,353.75,29.0593,29.54,134.564,105.95,110.689,0.000553728,0.0495646,20.9897,605.577,-0.395848,0.0,0.0
1440,359.75,28.7269,29.8884,136.014,105.931,110.653,0.000389957,0.0497204,20.9886,605.577,-0.394464,0.0,0.0
1464,365.75,28.8797,30.0775,135.393,105.902,110.143,5.06603e-05,0.0497856,20.9879,605.557,-0.355131,0.0,0.0
1488,371.75,29.1585,29.9166,136.594,105.879,111.335,0.000201078,0.0499613,20.9877,605.557,-0.454515,0.0,0.0
1512,377.75,28.998,29.7411,138.129,105.903,110.957,0.000267387,0.0510585,20.9879,605.537,-0.421639,0.0,0.0
1536,383.75,29.1898,29.5962,136.22,105.904,110.256,0.00054229,0.0512796,20.9865,605.467,-0.364278,0.0,0.0
1560,389.75,29.1317,30.1641,135.281,105.945,104.384,0.00270006,0.0977078,20.9525,605.377,0.134262,0.0,1.0
1584,395.75,32.744,31.8108,124.454,105.965,87.8418,0.0111863,0.3921,20.6102,604.676,1.69668,0.0,0.0
1608,401.75,38.7857,35.866,121.097,105.958,86.1171,0.0166163,0.549194,20.4182,603.846,1.8754,0.0,0.0
1632,407.75,41.0294,39.7037,130.142,105.909,96.3304,0.0123684,0.450169,20.529,603.225,0.857473,0.0,0.0
1656,413.75,41.6844,40.9569,127.911,105.794,106.762,0.00559598,0.302544,20.696,602.885,-0.0823981,0.0,0.0
1680,419.75,40.9563,41.1469,134.226,105.61,111.599,0.0025474,0.203412,20.8168,602.705,-0.498937,0.0,0.0
1704,425.75,39.9475,40.389,132.662,105.406,111.657,0.00222739,0.13936,20.8905,602.585,-0.521156,0.0,0.0
1728,431.75,37.8251,39.3907,130.59,105.234,110.609,0.00161762,0.0932608,20.9378,602.565,-0.450593,0.0,0.0
1752,437.75,36.747,38.9519,136.558,105.1,110.406,0.00139849,0.0697211,20.9646,602.535,-0.445496,0.0,0.0
1776,443.75,35.7262,37.9557,132.86,105.266,111.329,0.000816007,0.058146,20.9783,602.535,-0.506529,0.0,0.0
1800,449.75,34.8786,37.4066,133.628,105.45,111.266,0.000779327,0.0532351,20.9859,602.494,-0.485596,0.0,0.0
1824,455.75,32.2545,34.9493,132.547,105.511,111.24,0.000464607,0.0510272,20.9866,602.464,-0.478258,0.0,0.0
1848,461.75,31.2319,33.8795,137.214,105.509,110.854,0.00031254,0.0503773,20.987,602.444,-0.447061,0.0,0.0
1872,467.75,30.9523,33.4,138.166,105.488,110.635,0.000581674,0.0500597,20.9878,602.484,-0.430954,0.0,0.0
1896,473.75,30.5367,32.4446,131.686,105.47,111.235,0.00055879,0.0497837,20.9884,602.424,-0.481356,0.0,0.0
1920,479.75,30.0838,32.7722,133.908,105.45,112.089,0.000256447,0.0497381,20.9879,602.444,-0.552221,0.0,0.0
1944,485.75,30.2139,32.3113,133.962,105.44,111.611,0.000111747,0.0497977,20.9867,602.434,-0.51448,0.0,0.0
1968,491.75,29.5867,31.5658,137.53,105.431,110.692,0.000192221,0.0502314,20.9866,602.384,-0.440459,0.0,0.0
1992,497.75,28.835,31.3024,136.604,105.459,111.321,0.000478237,0.0505061,20.9874,602.444,-0.489266,0.0,0.0
2016,503.75,28.7199,30.8217,133.437,105.481,110.712,0.000341339,0.0503103,20.9876,602.394,-0.437854,0.0,0.0
2040,509.75,28.5949,30.8406,136.636,105.511,110.247,0.000325282,0.0503877,20.9856,-451.103,-0.397187,0.0,0.0
2064,515.75,28.6514,30.5116,139.416,105.528,110.853,0.000257046,0.0516473,20.9846,-451.043,-0.445317,0.0,0.0
2088,521.75,27.8754,30.0914,136.028,105.546,110.876,1.71142e-05,0.0505131,20.9863,-451.083,-0.445585,0.0,0.0
2112,527.75,27.9565,29.8663,136.261,105.563,111.396,-0.000192128,0.0496052,20.9869,-451.073,-0.486443,0.0,0.0
2136,533.75,27.4336,29.0368,135.82,105.556,111.005,-9.95348e-05,0.0490358,20.989,-451.083,-0.455309,0.0,0.0
2160,539.75,27.4114,29.2238,135.672,105.557,111.751,0.000168451,0.0489446,20.9893,-451.073,-0.515835,0.0,0.0
2184,545.75,27.0336,28.4235,134.405,105.545,110.576,-0.000181737,0.0486931,20.9893,-451.083,-0.421226,0.0,0.0
2208,551.75,26.7422,28.4448,136.014,105.564,110.282,-0.000134364,0.0488222,20.9898,-451.083,-0.39556,0.0,0.0
2232,557.75,26.9939,28.1564,138.115,105.545,111.208,-6.62133e-05,0.0488172,20.9899,-451.083,-0.47282,0.0,0.0
2256,563.75,26.9365,28.4083,137.02,105.553,111.201,,,,-451.083,-0.471526,0.0,0.0
2280,569.75,26.8633,28.2943,137.577,105.556,111.04,,,,-451.083,-0.458153,0.0,0.0
2287,571.5,26.8689,27.5778,141.346,105.55,110.995,,,,-451.073,-0.455018,0.0,0.0