Folder: fsri_materials_database/01_Data/Polyester_Bed_Skirt/MCC (part 2)

File: Polyester_Bed_Skirt_MCC_30K_min_211209_R3.txt
Sample ID:	C:\MCC\MCC Cal\Test\Polyester_Bed_Skirt_MCC_30K_min_211209_R3.txt
Sample Weight (mg):	4.35
Heating Rate (C/s):	0.5
Combustor Temp (C):	900
N2 Flow Rate (cc/min):	80
O2 Flow Rate (cc/min):	20
Calibration File:	C:\MCC\MCC Cal\Coeff1 JN10440_30_210304.txt.txt
T Correction Coefficients:	0	1.024463	0
Time Shift (s):	14
*
Time (s)	Temperature (C)	N2 flow rate (cc/min)	O2 flow rate (cc/min)	Flow Rate (cc/min)	Oxygen (%)	HRR (W/g)	Heating rate (C/s)
0.000	109.609	80.006	19.995	103.066	20.115	-0.454	-0.010
8.001	109.556	80.006	19.996	103.071	20.112	-0.231	-0.001
15.999	109.530	80.006	19.994	103.094	20.106	0.211	-0.053
24.000	109.697	80.009	19.994	103.232	20.090	1.409	0.033
32.000	110.384	80.007	19.995	103.316	20.071	2.812	0.117
40.000	111.589	80.006	19.993	103.328	20.065	3.249	0.163
48.000	113.362	80.009	19.994	103.319	20.069	2.959	0.240
55.999	115.493	80.008	19.995	103.321	20.068	3.009	0.297
63.999	117.899	80.007	19.995	103.325	20.066	3.146	0.347
71.999	120.539	80.007	19.997	103.326	20.065	3.243	0.323
79.999	123.450	80.009	19.996	103.329	20.067	3.104	0.398
87.999	126.589	80.006	19.994	103.338	20.065	3.243	0.379
95.999	129.899	80.006	19.995	103.344	20.061	3.498	0.416
103.999	133.409	80.009	19.996	103.346	20.067	3.087	0.452
112.000	137.031	80.009	19.995	103.342	20.073	2.624	0.455
120.000	140.750	80.005	19.995	103.331	20.066	3.128	0.450
127.999	144.650	80.005	19.998	103.344	20.066	3.129	0.487
136.000	148.539	80.007	19.996	103.336	20.062	3.471	0.496
144.000	152.570	80.006	19.994	103.335	20.065	3.255	0.512
152.000	156.553	80.006	19.995	103.325	20.067	3.101	0.524
160.000	160.576	80.008	19.995	103.327	20.072	2.674	0.507
168.000	164.634	80.009	19.997	103.309	20.075	2.521	0.513
176.000	168.658	80.008	19.994	103.319	20.074	2.558	0.500
184.000	172.683	80.009	19.995	103.288	20.076	2.424	0.501
192.000	176.593	80.010	19.996	103.286	20.073	2.625	0.460
200.000	180.552	80.006	19.995	103.287	20.071	2.811	0.461
208.000	184.492	80.005	19.996	103.290	20.072	2.718	0.491
216.000	188.422	80.008	19.994	103.293	20.075	2.515	0.436
224.000	192.363	80.006	19.995	103.289	20.072	2.698	0.477
232.000	196.316	80.003	19.995	103.231	20.075	2.511	0.486
240.000	200.247	80.007	19.993	103.290	20.081	2.056	0.515
248.000	204.166	80.009	19.994	103.286	20.078	2.265	0.486
256.000	208.120	80.009	19.995	103.281	20.075	2.462	0.489
264.000	212.027	80.007	19.994	103.277	20.077	2.361	0.524
272.000	215.935	80.008	19.995	103.271	20.085	1.762	0.472
280.000	219.927	80.008	19.995	103.280	20.085	1.765	0.485
288.000	223.907	80.006	19.995	103.285	20.085	1.756	0.509
296.000	227.879	80.005	19.996	103.287	20.089	1.475	0.507
304.000	231.878	80.007	19.994	103.278	20.092	1.211	0.506
312.000	235.970	80.005	19.995	103.271	20.092	1.197	0.520
320.000	239.994	80.005	19.994	103.257	20.092	1.256	0.500
328.000	244.081	80.010	19.993	103.249	20.092	1.242	0.533
336.000	248.026	80.009	19.994	103.247	20.090	1.384	0.504
344.000	252.053	80.008	19.994	103.251	20.098	0.791	0.503
352.000	256.001	80.009	19.994	103.250	20.098	0.747	0.479
360.000	259.971	80.007	19.995	103.253	20.097	0.838	0.520
368.000	263.965	80.009	19.995	103.252	20.096	0.964	0.486
376.000	267.846	80.005	19.995	103.250	20.094	1.112	0.485
384.000	271.914	80.006	19.995	103.246	20.096	0.897	0.513
392.000	275.851	80.007	19.995	103.246	20.097	0.889	0.492
400.000	279.859	80.007	19.995	103.244	20.097	0.844	0.497
408.000	283.932	80.007	19.994	103.246	20.099	0.674	0.542
416.000	287.929	80.009	19.994	103.245	20.101	0.574	0.485
424.000	292.029	80.008	19.995	103.238	20.102	0.515	0.532
432.000	296.064	80.008	19.993	103.230	20.107	0.120	0.540
440.000	300.098	80.009	19.995	103.242	20.102	0.467	0.511
448.000	304.114	80.006	19.995	103.220	20.108	0.045	0.459
456.000	308.139	80.006	19.994	103.229	20.108	0.075	0.474
464.000	312.194	80.007	19.995	103.226	20.109	0.002	0.488
472.000	316.260	80.006	19.995	103.223	20.106	0.160	0.528
480.000	320.374	80.005	19.996	103.226	20.117	-0.600	0.530
488.000	324.396	80.006	19.996	103.218	20.114	-0.438	0.529
496.000	328.465	80.008	19.996	103.214	20.116	-0.576	0.505
504.000	332.422	80.006	19.995	103.214	20.117	-0.604	0.482
512.000	336.496	80.007	19.996	103.217	20.112	-0.219	0.511
520.000	340.483	80.009	19.996	103.216	20.114	-0.406	0.509
528.000	344.447	80.009	19.996	103.226	20.110	-0.124	0.489
536.000	348.496	80.006	19.995	103.213	20.112	-0.282	0.531
544.000	352.488	80.005	19.996	103.212	20.106	0.183	0.520
552.000	356.525	80.007	19.995	103.221	20.111	-0.191	0.477
560.000	360.592	80.004	19.995	103.223	20.108	0.020	0.505
568.000	364.713	80.004	19.995	103.217	20.102	0.450	0.528
576.000	368.769	80.006	19.997	103.213	20.092	1.252	0.517
584.000	372.915	80.007	19.995	103.223	20.084	1.840	0.518
592.000	376.933	80.009	19.995	103.233	20.065	3.194	0.463
600.000	381.013	80.009	19.995	103.244	20.044	4.764	0.432
608.000	385.279	80.009	19.995	103.247	20.011	7.250	0.550
616.000	389.246	80.006	19.995	103.254	19.971	10.156	0.438
624.000	393.328	80.005	19.995	103.284	19.908	14.846	0.496
632.000	397.462	80.006	19.995	103.302	19.833	20.436	0.504
640.000	401.600	80.007	19.995	103.330	19.733	27.838	0.517
648.000	405.801	80.005	19.995	103.354	19.648	34.152	0.498
656.000	409.868	80.007	19.995	103.403	19.537	42.414	0.506
664.000	413.974	80.007	19.994	103.460	19.403	52.418	0.513
672.000	418.027	80.007	19.995	103.514	19.233	65.065	0.521
680.000	422.051	80.007	19.993	103.611	19.031	80.145	0.498
688.000	425.997	80.008	19.994	103.626	18.806	96.987	0.472
696.000	430.040	80.006	19.994	103.764	18.536	117.167	0.487
704.000	433.995	80.007	19.994	103.842	18.271	136.985	0.491
712.000	438.053	80.008	19.994	103.886	18.111	149.011	0.501
720.000	442.060	80.007	19.994	103.984	17.913	163.851	0.486
728.000	446.119	80.007	19.994	104.036	17.771	174.393	0.485
736.000	450.134	80.005	19.995	104.050	17.753	175.662	0.511
744.000	454.214	80.009	19.994	103.993	17.919	163.096	0.512
752.000	458.319	80.006	19.995	103.886	18.271	136.612	0.522
760.000	462.477	80.005	19.995	103.732	18.751	100.831	0.537
768.000	466.602	80.009	19.995	103.601	19.238	64.611	0.548
776.000	470.759	80.009	19.993	103.480	19.563	40.472	0.504
784.000	474.967	80.007	19.995	103.383	19.765	25.486	0.520
792.000	479.086	80.006	19.995	103.325	19.891	16.149	0.475
800.000	483.243	80.007	19.995	103.291	19.966	10.532	0.532
808.000	487.365	80.006	19.994	103.240	20.016	6.847	0.505
816.000	491.470	80.008	19.995	103.291	20.056	3.905	0.533
824.000	495.604	80.006	19.995	103.234	20.077	2.321	0.534
832.000	499.723	80.009	19.995	103.212	20.092	1.203	0.515
840.000	503.866	80.009	19.995	103.209	20.099	0.675	0.516
848.000	507.988	80.008	19.996	103.205	20.104	0.304	0.541
856.000	512.022	80.008	19.996	103.203	20.105	0.254	0.490
864.000	516.140	80.006	19.994	103.179	20.112	-0.254	0.488
872.000	520.304	80.006	19.994	103.189	20.113	-0.314	0.512
880.000	524.460	80.007	19.994	103.209	20.114	-0.393	0.482
888.000	528.490	80.006	19.995	103.180	20.120	-0.874	0.485
896.000	532.619	80.005	19.993	103.184	20.121	-0.917	0.535
904.000	536.770	80.007	19.994	103.183	20.121	-0.906	0.507
912.000	540.851	80.009	19.993	103.186	20.124	-1.152	0.503
920.000	544.849	80.007	19.995	103.181	20.120	-0.880	0.496
928.000	549.039	80.008	19.995	103.184	20.121	-0.931	0.533
936.000	553.150	80.009	19.993	103.198	20.121	-0.884	0.486
944.000	557.388	80.006	19.995	103.183	20.118	-0.710	0.526
952.000	561.578	80.005	19.994	103.177	20.120	-0.878	0.513
960.000	565.706	80.007	19.994	103.197	20.124	-1.126	0.516
968.000	569.946	80.007	19.994	103.193	20.121	-0.894	0.533
976.000	574.261	80.006	19.995	103.198	20.117	-0.651	0.550
984.000	578.514	80.006	19.995	103.172	20.117	-0.651	0.541
992.000	582.652	80.008	19.995	103.177	20.114	-0.385	0.524
1000.000	586.713	80.007	19.994	103.177	20.112	-0.276	0.511
1008.000	590.758	80.007	19.995	103.177	20.113	-0.324	0.517
1016.000	594.798	80.008	19.993	103.171	20.111	-0.193	0.506
1024.000	598.824	80.009	19.994	103.174	20.109	-0.002	0.486
1031.999	602.864	80.006	19.994	103.170	20.111	-0.144	0.512
1039.999	606.814	80.007	19.995	103.171	20.112	-0.221	0.466
1047.999	610.920	80.007	19.995	103.170	20.114	-0.420	0.500
1055.999	614.971	80.007	19.996	103.166	20.112	-0.247	0.525
1064.000	619.016	80.007	19.994	103.169	20.114	-0.428	0.510
1071.999	623.084	80.008	19.994	103.171	20.118	-0.681	0.503
1080.000	627.086	80.008	19.995	103.172	20.113	-0.318	0.474
1088.000	631.235	80.008	19.995	103.210	20.121	-0.884	0.509
1096.000	635.350	80.010	19.996	103.166	20.123	-1.097	0.511
1104.000	639.512	80.009	19.995	103.167	20.127	-1.332	0.524
1112.000	643.723	80.006	19.995	103.158	20.130	-1.551	0.511
1120.000	647.966	80.007	19.994	103.166	20.129	-1.484	0.537
1127.999	652.245	80.007	19.994	103.171	20.130	-1.598	0.515
1136.001	656.519	80.006	19.994	103.167	20.133	-1.804	0.542
1143.999	660.725	80.006	19.996	103.161	20.134	-1.908	0.545
1151.999	664.872	80.008	19.993	103.165	20.133	-1.821	0.521
1159.999	668.992	80.008	19.993	103.167	20.132	-1.770	0.523
1168.000	673.146	80.007	19.994	103.160	20.135	-1.934	0.511
1175.999	677.197	80.009	19.995	103.149	20.135	-1.944	0.511
1184.000	681.278	80.010	19.993	103.150	20.137	-2.110	0.486
1191.999	685.317	80.005	19.994	103.149	20.140	-2.301	0.482
1200.000	689.434	80.007	19.996	103.151	20.143	-2.528	0.538
1208.000	693.540	80.008	19.995	103.153	20.144	-2.657	0.491
1216.000	697.646	80.007	19.995	103.138	20.140	-2.299	0.512
1224.000	701.715	80.007	19.995	103.138	20.141	-2.396	0.526
1232.000	705.781	80.008	19.996	103.139	20.142	-2.477	0.522
1240.000	709.860	80.008	19.997	103.130	20.141	-2.379	0.523
1248.000	713.838	80.008	19.994	103.131	20.141	-2.395	0.498
1256.000	717.851	80.009	19.994	103.133	20.143	-2.576	0.517
1264.000	721.907	80.010	19.994	103.164	20.146	-2.777	0.504
1272.000	725.881	80.007	19.995	103.147	20.144	-2.639	0.512
1280.000	729.919	80.007	19.995	103.147	20.146	-2.753	0.504
1288.000	734.005	80.008	19.994	103.136	20.145	-2.731	0.511
1296.000	738.076	80.008	19.996	103.158	20.144	-2.645	0.517
1304.000	742.197	80.006	19.995	103.132	20.145	-2.720	0.537
1306.500	743.456	80.006	19.995	103.135	20.141	-2.418	0.474