Folder: fsri_materials_database/01_Data/Overstuffed_Chair/Cone

Note: 01_Data/README.md
# Materials and Products Database
## 01_Data

Raw data generated from each apparatus are included here in plain-text format. The data is organized first by material, next by the short name of test apparatus used, and where applicable additional filtering by test settings.

### material.json

Each material directory contains a json file of the same name as the material. This file links the data stored in the repository as well as data and graphs produced by the accompanying scripts (__02_Scripts__) to the respective landing page for the material on the front-end website.

File: Overstuffed_Chair_Cone_HF25Scalar_210325_R3.csv
LABORATORY,FSRI
TEST IDENT,FurnitureStack_H25_3
OPERATOR,Morrissey
MATERIAL,1'' PUF-1.75''PEBat-PEFabric
ORIENTATION,Horizontal
HEAT FLUX,25
SURF AREA,0.01
C FACTOR,0.0386052
SPEC HOLDER DIFF,-87.77
SPECIMEN MASS,16.1
SCAN TIME,0.25
O2 DELAY TIME,11
CO DELAY TIME,11
CO2 DELAY TIME,8
FLOW FACTOR,1
SCAN COUNT,1401
TIME TO IGN,62.25
END OF TEST SCAN,921
END OF TEST TIME,230.25
TEST STATUS,1
PRE TEST CMT,Test w/o retainer grid or frame
POST TEST CMT,Fabric was consistent with other tests.

File: Overstuffed_Chair_Cone_HF50Scan_210326_R2.csv
Names,Time,Stack TC,Smoke TC,Exh Press,Smoke Comp,Smoke Meas,CO Meter,CO2 Meter,O2 Meter,Sample Mass,Ext Coeff,Start Test,Flame Verif
Chan Gain,,500,500,1,1,1,1,1,1,1,1,1.0,1.0
Offset,,0,0,0.138348,0,0,0,0,0,0,0,0.0,0.0
Gain,,1,1,25.011,13.5067,16.616,1,1,1,1.00091,1.04608,1.0,1.0
Units,sec,C,C,Pa,%,%,%,%,%,g,/m,,
Baseline,,31.7409,34.0601,159.218,101.508,98.2632,-0.000664077,0.0648629,20.9236,-0.013554,0.298143,,
10,2.25,28.1156,29.6594,161.202,101.721,98.3815,-0.000911987,0.0728869,20.9157,487.304,0.30631,0.0,0.0
20,4.75,28.4589,30.2146,157.892,101.707,98.632,-0.00091163,0.0732189,20.9161,487.764,0.281749,0.0,0.0
30,7.25,28.7067,30.6186,159.966,101.712,98.1173,-0.000720841,0.0743328,20.9141,486.743,0.33013,0.0,0.0
40,9.75,29.2935,31.3052,157.663,101.705,98.2486,-0.000495872,0.0789718,20.9069,487.193,0.31726,0.0,0.0
50,12.25,29.6341,31.8842,155.785,101.721,96.6822,-0.000163279,0.088847,20.8912,487.153,0.466183,0.0,0.0
60,14.75,30.5625,32.9054,155.254,101.719,94.7021,0.000728298,0.11807,20.8424,486.983,0.655921,0.0,0.0
70,17.25,32.2274,35.812,148.867,101.708,90.754,0.00248382,0.203167,20.725,486.733,1.04567,0.0,1.0
80,19.75,33.2878,37.8852,144.497,101.708,90.9816,0.00371566,0.295595,20.5992,486.533,1.02264,0.0,0.0
90,22.25,34.203,40.0613,154.231,101.704,91.1262,0.00397898,0.339604,20.5513,486.273,1.00778,0.0,0.0
100,24.75,35.733,41.8005,150.949,101.705,90.5131,0.00413113,0.361184,20.5247,486.072,1.06976,0.0,0.0
110,27.25,37.2569,44.3089,149.241,101.688,90.0197,0.00432119,0.378503,20.5042,485.812,1.11839,0.0,0.0
120,29.75,38.2244,45.5819,148.128,101.693,90.9847,0.00454705,0.385626,20.4971,485.572,1.021,0.0,0.0
130,32.25,39.3053,47.5934,144.317,101.677,87.3119,0.00495213,0.394294,20.4851,485.342,1.39764,0.0,0.0
140,34.75,40.3735,48.9002,148.163,101.695,88.8859,0.00528885,0.412612,20.4671,485.142,1.23537,0.0,0.0
150,37.25,41.9663,50.0286,148.226,101.676,87.2764,0.00543285,0.419845,20.4622,484.801,1.4013,0.0,0.0
160,39.75,41.7225,51.8453,140.792,101.69,87.2531,0.00592314,0.418376,20.4601,484.611,1.40502,0.0,0.0
170,42.25,43.217,53.36,145.9,101.668,83.8445,0.00740859,0.434871,20.4276,484.301,1.76867,0.0,0.0
180,44.75,44.6844,55.7697,137.984,101.678,82.0905,0.00965051,0.494355,20.2915,483.83,1.96359,0.0,0.0
190,47.25,48.1857,60.9722,125.334,101.674,84.1254,0.0111564,0.624256,20.0835,483.46,1.73857,0.0,0.0
200,49.75,52.5777,68.9318,126.906,101.672,85.3191,0.0113601,0.774227,19.8841,482.9,1.60906,0.0,0.0
210,52.25,57.762,76.5626,117.62,101.668,88.6034,0.0109953,0.91261,19.7006,482.339,1.26212,0.0,0.0
220,54.75,62.3949,84.5085,119.307,101.688,89.7931,0.0108113,1.02532,19.5228,481.829,1.14149,0.0,0.0
230,57.25,67.5998,91.7453,128.302,101.67,86.566,0.0110983,1.1208,19.3896,481.228,1.47578,0.0,0.0
240,59.75,71.8214,99.0719,111.934,101.67,84.5818,0.0125568,1.18802,19.3021,480.658,1.68851,0.0,0.0
250,62.25,75.956,105.434,121.08,101.673,80.117,0.0147762,1.24272,19.247,480.057,2.18645,0.0,0.0
260,64.75,78.5525,109.797,123.497,101.666,78.1394,0.0169165,1.28253,19.2204,479.356,2.41512,0.0,0.0
270,67.25,81.1389,113.943,120.613,101.676,78.3549,0.0185448,1.30588,19.2112,478.776,2.39082,0.0,0.0
280,69.75,83.4384,116.503,112.304,101.666,74.3611,0.0198749,1.31741,19.2184,478.045,2.8699,0.0,0.0
290,72.25,85.173,118.415,120.94,101.678,73.5716,0.0212344,1.31876,19.2418,477.475,2.96896,0.0,0.0
300,74.75,86.7446,119.7,122.307,101.676,75.0736,0.0220583,1.29518,19.2884,476.794,2.78329,0.0,0.0
310,77.25,87.4671,120.465,128.451,101.695,76.2038,0.02248,1.25143,19.3621,476.284,2.64796,0.0,0.0
320,79.75,87.6657,119.584,121.802,101.663,75.2784,0.0231563,1.20155,19.4532,475.653,2.75717,0.0,0.0
330,82.25,87.1394,118.159,123.815,101.679,72.704,0.0237563,1.13733,19.5547,475.133,3.07789,0.0,0.0
340,84.75,86.7168,116.046,132.552,101.684,74.5665,0.0237269,1.06237,19.6686,474.682,2.84626,0.0,0.0
350,87.25,85.4056,113.493,128.849,101.679,72.1148,0.022826,0.969416,19.7997,474.262,3.15252,0.0,0.0
360,89.75,83.3921,109.539,134.86,101.667,69.77,0.0211126,0.87373,19.9258,473.841,3.45479,0.0,0.0
370,92.25,81.8167,106.35,136.521,101.672,77.9081,0.0179587,0.78496,20.0468,473.501,2.44284,0.0,0.0
380,94.75,79.1737,101.641,139.736,101.675,82.4703,0.0143508,0.680186,20.1986,473.271,1.92098,0.0,0.0
390,97.25,76.26,96.4986,145.917,101.675,89.3539,0.0111808,0.574391,20.3217,473.151,1.18532,0.0,0.0
400,99.75,74.0608,92.0819,142.91,101.682,91.4507,0.00820325,0.49545,20.4126,473.001,0.973114,0.0,0.0
410,102.25,71.351,87.7838,145.089,101.676,94.1595,0.00585644,0.41415,20.514,472.991,0.704703,0.0,0.0
420,104.75,69.0637,83.6692,148.727,101.68,97.3921,0.00426482,0.344107,20.5995,473.001,0.395333,0.0,0.0
430,107.25,66.846,79.4347,152.33,101.677,97.4738,0.00325092,0.284905,20.67,473.021,0.387383,0.0,0.0
440,109.75,64.288,75.8384,148.429,101.682,98.7334,0.00266835,0.230271,20.735,473.041,0.270012,0.0,0.0
450,112.25,62.446,72.2725,155.872,101.673,99.0123,0.00237341,0.189267,20.7775,473.011,0.243348,0.0,0.0
460,114.75,60.2851,69.0238,148.361,101.683,99.349,0.00239759,0.160793,20.8078,473.041,0.213127,0.0,0.0
470,117.25,58.3891,65.9221,150.166,101.678,99.2166,0.00260332,0.14238,20.831,472.981,0.224838,0.0,0.0
480,119.75,56.5193,63.4509,151.445,101.692,99.5229,0.00298801,0.128096,20.8457,473.031,0.19782,0.0,0.0
490,122.25,54.6122,60.9545,149.702,101.677,99.9037,0.0036418,0.117429,20.8555,473.011,0.161437,0.0,0.0
500,124.75,54.0031,58.8188,157.103,101.682,99.4889,0.00458315,0.106526,20.8687,473.001,0.200061,0.0,0.0
510,127.25,52.6946,57.0082,154.858,101.682,99.7364,0.00528781,0.0970398,20.8783,473.001,0.177303,0.0,0.0
520,129.75,51.1737,55.3705,153.668,101.692,99.3692,0.00566519,0.0910019,20.8857,472.981,0.212034,0.0,0.0
530,132.25,50.0167,53.8197,157.334,101.674,99.4123,0.00609053,0.0861071,20.891,472.961,0.206456,0.0,0.0
540,134.75,49.2963,52.7954,157.391,101.669,99.1887,0.00656079,0.0829311,20.8939,472.991,0.2266,0.0,0.0
550,137.25,49.0259,51.6722,151.553,101.68,99.3464,0.0067498,0.0799693,20.8977,472.951,0.213027,0.0,0.0
560,139.75,47.8935,50.218,154.678,101.676,99.4301,0.00708578,0.077755,20.9,472.941,0.204966,0.0,0.0
570,142.25,47.5694,49.7554,154.994,101.693,99.1441,0.00765875,0.0763432,20.9009,472.931,0.232886,0.0,0.0
580,144.75,47.3347,49.1763,149.18,101.685,99.7703,0.00820983,0.075618,20.9013,472.941,0.174401,0.0,0.0
590,147.25,46.34,48.7928,154.37,101.703,99.2217,0.00869175,0.0751119,20.9016,472.941,0.226676,0.0,0.0
600,149.75,46.2387,48.0359,158.176,101.676,99.2369,0.00908349,0.0747556,20.9016,472.941,0.222814,0.0,0.0
610,152.25,45.4583,47.3869,155.016,101.694,99.0148,0.00933689,0.074775,20.9001,472.91,0.244973,0.0,0.0
620,154.75,45.8157,46.8935,159.014,101.695,99.4752,0.00970427,0.0745427,20.9002,472.931,0.202514,0.0,0.0
630,157.25,44.7316,46.8006,155.831,101.711,99.1482,0.00999823,0.0745738,20.9002,472.89,0.234185,0.0,0.0
640,159.75,44.3725,46.448,151.511,101.695,99.0011,0.0102414,0.074636,20.9002,472.9,0.246317,0.0,0.0
650,162.25,44.0001,46.0686,154.071,101.714,99.3865,0.010645,0.0747989,20.9002,472.89,0.212414,0.0,0.0
660,164.75,43.0477,45.3628,156.086,101.707,99.3145,0.0110678,0.0748612,20.8996,472.86,0.218395,0.0,0.0
670,167.25,43.9025,45.2001,153.915,101.704,99.1938,0.0112168,0.0749353,20.8998,472.86,0.229366,0.0,0.0
680,169.75,43.3994,44.6796,156.186,101.721,98.9965,0.0112734,0.0751552,20.9004,472.89,0.249157,0.0,0.0
690,172.25,43.3675,44.7041,154.303,101.703,98.9397,0.0114346,0.0755992,20.9006,472.85,0.252786,0.0,0.0
700,174.75,43.0313,44.2555,155.761,101.719,98.9397,0.0116643,0.0761905,20.9002,472.82,0.254199,0.0,0.0
710,177.25,42.6124,44.1594,153.339,101.707,98.9134,0.0117815,0.077176,20.899,472.84,0.255566,0.0,0.0
720,179.75,42.9244,44.061,153.178,101.729,99.0614,0.011519,0.0775521,20.8985,472.81,0.243812,0.0,0.0
730,182.25,42.9834,43.8542,155.314,101.704,98.8333,0.0109323,0.0785801,20.8984,472.82,0.262705,0.0,0.0
740,184.75,42.4039,43.908,155.47,101.72,99.2917,0.0109549,0.078898,20.8981,472.81,0.221694,0.0,0.0
750,187.25,42.4923,43.6858,153.827,101.706,99.2217,0.0116044,0.0786967,20.8967,472.79,0.226935,0.0,0.0
760,189.75,41.8073,43.6435,154.683,101.728,99.4625,0.0121765,0.0784476,20.8962,472.77,0.206621,0.0,0.0
770,192.25,41.4828,43.0309,152.394,101.704,99.9869,0.0120235,0.0787848,20.895,472.78,0.156219,0.0,0.0
780,194.75,41.5914,43.2362,155.809,101.724,99.3383,0.0117076,0.0803526,20.8932,472.75,0.217755,0.0,0.0
790,197.25,41.0753,42.9512,154.737,101.716,99.3439,0.0111434,0.0811142,20.8924,472.75,0.216497,0.0,0.0
800,199.75,41.2741,42.6651,153.029,101.73,99.4854,0.00990259,0.0826086,20.8907,472.72,0.204739,0.0,0.0
810,202.25,41.5172,43.1784,153.37,101.705,98.9798,0.0087859,0.0843177,20.89,472.7,0.249258,0.0,0.0
820,204.75,41.109,42.9032,156.715,101.711,99.0594,0.00795393,0.0852167,20.8898,472.73,0.2424,0.0,0.0
830,207.25,41.1186,43.2545,154.426,101.716,99.4783,0.00709582,0.0855905,20.8897,472.7,0.204093,0.0,0.0
840,209.75,40.6149,42.5644,155.412,101.715,99.4742,0.00637992,0.0863274,20.8896,472.68,0.20443,0.0,0.0
850,212.25,40.7661,42.6128,153.024,101.711,99.4164,0.00572234,0.0869238,20.8896,472.65,0.209393,0.0,0.0
860,214.75,41.0751,42.8381,156.921,101.7,99.2019,0.00521527,0.0873657,20.8905,472.65,0.228207,0.0,0.0
870,217.25,40.2604,42.6207,155.065,101.712,98.8084,0.00522213,0.0882942,20.8909,472.64,0.265794,0.0,0.0
880,219.75,40.9348,42.1611,157.168,101.696,98.9712,0.00543586,0.088852,20.8911,472.63,0.249202,0.0,0.0
890,222.25,40.2382,42.0545,154.914,101.708,98.8327,0.00549597,0.0888921,20.8911,472.6,0.263124,0.0,0.0
900,224.75,40.7695,42.2281,153.358,101.687,99.0543,0.0055987,0.088439,20.8911,472.61,0.240714,0.0,0.0
910,227.25,40.3268,41.9674,151.339,101.709,98.9889,0.00554713,0.0874935,20.8921,472.62,0.248709,0.0,0.0
920,229.75,40.0151,42.0517,158.256,101.682,99.2531,0.00517386,0.0872109,20.8924,472.59,0.221835,0.0,0.0
930,232.25,40.4099,41.8108,151.804,101.693,98.9159,,0.0870759,,472.59,0.254029,0.0,0.0
940,234.75,39.8168,42.0666,158.145,101.671,98.7592,,,,472.59,0.266643,0.0,0.0
950,237.25,39.8115,42.1105,153.607,101.669,99.7916,,,,472.57,0.171065,0.0,0.0
960,239.75,39.3604,41.6647,154.452,101.673,99.2262,,,,472.55,0.223502,0.0,0.0
968,241.75,39.2819,41.5299,157.194,101.658,99.0665,,,,472.55,0.236908,0.0,0.0

File: Overstuffed_Chair_Cone_HF50Scan_210326_R3.csv
Names,Time,Stack TC,Smoke TC,Exh Press,Smoke Comp,Smoke Meas,CO Meter,CO2 Meter,O2 Meter,Sample Mass,Ext Coeff,Start Test,Flame Verif
Chan Gain,,500,500,1,1,1,1,1,1,1,1,1.0,1.0
Offset,,0,0,0.138348,0,0,0,0,0,0,0,0.0,0.0
Gain,,1,1,25.011,13.5067,16.616,1,1,1,1.00091,1.04608,1.0,1.0
Units,sec,C,C,Pa,%,%,%,%,%,g,/m,,
Baseline,,32.5547,34.4848,159.52,101.528,98.2471,-0.00087822,0.0655892,20.9217,-0.0235631,0.301445,,
10,2.25,28.4589,30.2843,155.909,100.534,97.1148,-0.000723666,0.0751571,20.9127,487.404,0.317505,0.0,0.0
20,4.75,29.6455,30.8038,161.094,100.512,97.2973,-0.000757187,0.0759154,20.911,486.173,0.29824,0.0,0.0
30,7.25,28.9585,31.3701,157.202,100.476,97.0473,-0.000757545,0.0769586,20.9102,484.841,0.318573,0.0,0.0
40,9.75,30.4735,31.5647,158.149,100.484,96.7243,-0.000601873,0.0797032,20.9052,485.122,0.349918,0.0,0.0
50,12.25,30.4565,32.1103,154.748,100.457,94.4592,0.000186915,0.091994,20.8919,485.222,0.564917,0.0,0.0
60,14.75,30.9848,34.6242,147.729,100.44,92.0972,0.0011813,0.158616,20.7967,484.861,0.795704,0.0,1.0
70,17.25,32.211,36.1554,150.506,100.446,92.8533,0.00194249,0.248697,20.6667,484.531,0.721247,0.0,1.0
80,19.75,33.9149,38.8398,138.801,100.425,88.1501,0.00281287,0.317218,20.5777,484.471,1.19626,0.0,0.0
90,22.25,35.3984,41.8329,145.017,100.439,88.3332,0.00368323,0.37204,20.5196,484.141,1.17858,0.0,0.0
100,24.75,36.7047,43.9314,141.03,100.412,87.5969,0.00404738,0.388291,20.5045,483.941,1.25286,0.0,0.0
110,27.25,38.0974,44.8732,150.99,100.425,92.9506,0.0041399,0.377543,20.5163,483.7,0.709747,0.0,0.0
120,29.75,38.7712,46.6763,145.597,100.413,87.8788,0.00429156,0.371513,20.5221,483.61,1.22349,0.0,0.0
130,32.25,39.5658,47.9012,148.256,100.435,88.9838,0.00453678,0.373417,20.5217,483.3,1.11083,0.0,0.0
140,34.75,40.9168,49.4225,145.831,100.423,88.3585,0.00481523,0.382161,20.5132,483.11,1.17444,0.0,0.0
150,37.25,42.1381,50.1079,158.538,100.441,88.427,0.00546612,0.397899,20.4849,482.82,1.16895,0.0,0.0
160,39.75,42.6159,51.7474,146.182,100.431,83.3106,0.00698281,0.435434,20.4207,482.539,1.715,0.0,0.0
170,42.25,44.9131,56.0336,128.038,100.448,77.7474,0.00946319,0.527583,20.2786,482.049,2.35071,0.0,0.0
180,44.75,48.4301,62.1058,135.974,100.475,81.1179,0.011613,0.677862,20.0349,481.658,1.96376,0.0,0.0
190,47.25,53.3796,68.8353,124.746,100.475,81.0333,0.0129872,0.854993,19.7958,481.048,1.97331,0.0,0.0
200,49.75,58.5057,78.2333,116.79,100.481,80.0987,0.0145804,1.0449,19.522,480.397,2.08032,0.0,0.0
210,52.25,65.059,87.5225,126.222,100.486,78.4335,0.016563,1.21418,19.2597,479.697,2.27359,0.0,0.0
220,54.75,69.8692,95.8711,113.257,100.511,77.2971,0.0185422,1.33993,19.1017,478.996,2.40977,0.0,0.0
230,57.25,74.29,103.469,107.801,100.52,71.8805,0.0206529,1.43261,19.0043,478.295,3.07725,0.0,0.0
240,59.75,78.9765,110.249,122.979,100.533,69.6351,0.0230083,1.50476,18.9346,477.505,3.36959,0.0,0.0
250,62.25,82.233,115.654,109.093,100.544,64.9426,0.0255504,1.54097,18.9131,476.794,4.01082,0.0,0.0
260,64.75,85.4112,119.992,111.116,100.574,65.2961,0.027807,1.56644,18.9112,476.003,3.96376,0.0,0.0
270,67.25,88.1451,123.745,108.824,100.572,66.1814,0.0293521,1.56586,18.94,475.223,3.83995,0.0,0.0
280,69.75,89.8879,125.755,128.634,100.609,67.4882,0.0301095,1.52898,19.0056,474.522,3.66395,0.0,0.0
290,72.25,91.7301,126.677,118.605,100.618,67.9947,0.0297254,1.46818,19.1137,473.811,3.59609,0.0,0.0
300,74.75,91.5992,126.723,133.256,100.65,69.5079,0.0280069,1.35586,19.2737,473.251,3.39709,0.0,0.0
310,77.25,90.299,122.945,130.599,100.665,73.1715,0.0242064,1.20007,19.4863,472.82,2.92707,0.0,0.0
320,79.75,88.7206,120.053,130.034,100.701,79.3756,0.0201592,1.02287,19.7408,472.37,2.18361,0.0,0.0
330,82.25,85.964,114.705,136.329,100.707,79.7554,0.017437,0.868747,19.8989,472.06,2.1403,0.0,0.0
340,84.75,83.3187,109.706,144.379,100.742,82.336,0.0148022,0.742284,20.061,471.749,1.85133,0.0,0.0
350,87.25,81.4582,105.082,140.42,100.761,82.7345,0.0124492,0.635721,20.2115,471.549,1.80875,0.0,0.0
360,89.75,78.0775,100.172,137.61,100.77,85.4291,0.0106966,0.557111,20.3114,471.349,1.51544,0.0,0.0
370,92.25,75.9568,95.6458,143.418,100.79,87.5163,0.00924378,0.495966,20.39,471.199,1.29582,0.0,0.0
380,94.75,73.6281,91.1683,148.061,100.786,89.9026,0.00818357,0.438495,20.4707,471.179,1.04859,0.0,0.0
390,97.25,70.8978,87.0332,149.431,100.792,93.7467,0.00700187,0.378402,20.5376,471.129,0.66491,0.0,0.0
400,99.75,68.8244,83.3873,148.855,100.789,94.0353,0.00544998,0.311337,20.6218,471.049,0.636412,0.0,0.0
410,102.25,66.2149,78.8452,148.599,100.797,95.8836,0.00387356,0.247035,20.6989,471.059,0.458552,0.0,0.0
420,104.75,64.4541,75.3973,155.354,100.794,97.6203,0.00269106,0.197506,20.7532,471.019,0.293607,0.0,0.0
430,107.25,61.7799,71.5667,154.661,100.806,98.8018,0.00224089,0.160731,20.798,471.019,0.184266,0.0,0.0
440,109.75,60.132,68.0173,155.794,100.783,98.5437,0.00224788,0.133497,20.8329,470.738,0.206204,0.0,0.0
450,112.25,57.0855,65.063,155.256,100.781,98.0463,0.00234661,0.114761,20.8542,470.909,0.252417,0.0,0.0
460,114.75,55.7863,62.7117,152.138,100.751,98.4311,0.00229699,0.1023,20.87,470.759,0.213765,0.0,0.0
470,117.25,54.7345,59.9869,153.7,100.744,98.3647,0.00202828,0.095909,20.8765,470.648,0.21936,0.0,0.0
480,119.75,52.8196,58.2155,154.444,100.726,98.1462,0.00165705,0.0925816,20.8817,470.939,0.238118,0.0,0.0
490,122.25,51.6576,56.8639,154.19,100.716,98.3003,0.00156682,0.0891619,20.8873,471.009,0.222778,0.0,0.0
500,124.75,50.8839,54.4077,151.617,100.693,98.2765,0.00143698,0.0849606,20.8932,470.849,0.222862,0.0,0.0
510,127.25,49.7068,53.1357,153.542,100.684,98.1376,0.00125158,0.080951,20.8967,470.769,0.235092,0.0,0.0
520,129.75,48.6019,52.3359,155.379,100.662,98.0934,0.000989372,0.0773703,20.9034,470.698,0.237152,0.0,0.0
530,132.25,48.2726,50.6601,150.901,100.64,98.3211,0.000714477,0.0744859,20.9074,470.749,0.213925,0.0,0.0
540,134.75,47.7574,50.0967,151.991,100.625,98.1842,0.00060231,0.0722047,20.9103,470.568,0.225358,0.0,0.0
550,137.25,46.6274,48.9007,151.423,100.595,98.3247,0.000581492,0.0708959,20.9126,470.598,0.209458,0.0,0.0
560,139.75,46.3148,48.3071,151.94,100.599,97.92,0.000464398,0.0697944,20.9139,470.428,0.247676,0.0,0.0
570,142.25,45.7833,47.4463,156.494,100.566,98.1776,0.000462561,0.0692947,20.9156,470.468,0.22056,0.0,0.0
580,144.75,45.0613,46.4437,153.995,100.564,97.7273,0.000454367,0.068766,20.9152,470.338,0.262554,0.0,0.0
590,147.25,44.2609,46.3707,157.311,100.553,98.1269,0.000268376,0.0683913,20.9149,470.418,0.224134,0.0,0.0
600,149.75,44.8345,45.879,156.704,100.56,98.2745,0.000237525,0.0682165,20.9147,470.839,0.210986,0.0,0.0
610,152.25,44.3167,45.1688,154.681,100.524,97.7669,0.000230026,0.0679759,20.9152,470.769,0.25523,0.0,0.0
620,154.75,43.4125,44.862,156.036,100.531,97.6548,0.000162119,0.0676951,20.9159,470.598,0.266356,0.0,0.0
630,157.25,43.0358,44.1724,154.508,100.515,97.7983,0.000221043,0.067777,20.9173,470.608,0.251451,0.0,0.0
640,159.75,42.8268,43.8967,151.081,100.515,97.6158,0.000325912,0.0678383,20.9176,470.538,0.268596,0.0,0.0
650,162.25,42.4283,43.7378,153.816,100.499,97.9043,0.000398806,0.0677014,20.9183,470.468,0.240008,0.0,0.0
660,164.75,42.2634,43.5285,155.709,100.501,97.847,0.000312136,0.0675095,20.9186,470.438,0.245605,0.0,0.0
670,167.25,42.1376,43.2824,157.419,100.484,97.7278,2.89569e-05,0.0674061,20.9187,470.348,0.255169,0.0,0.0
680,169.75,41.7039,42.6483,156.735,100.498,98.2329,-0.000167552,0.0673413,20.9187,470.338,0.209187,0.0,0.0
690,172.25,41.3211,42.7076,155.628,100.479,97.7441,-0.000236939,0.0673392,20.9186,470.849,0.253195,0.0,0.0
700,174.75,41.1832,41.96,152.472,100.472,97.6188,-0.000320107,0.0671895,20.9185,470.668,0.264395,0.0,0.0
710,177.25,41.3135,42.395,156.217,100.485,97.8272,-0.000210906,0.067196,20.9174,470.618,0.245993,0.0,0.0
720,179.75,41.0162,41.7902,155.247,100.449,97.7801,-9.77619e-05,0.0674855,20.9186,470.518,0.247067,0.0,0.0
730,182.25,40.3536,41.9048,153.01,100.45,97.9205,-4.33525e-05,0.0674295,20.9203,470.488,0.234045,0.0,0.0
740,184.75,41.1392,41.6646,154.099,100.45,97.6021,-3.74843e-05,0.0674289,20.9201,470.528,0.263936,0.0,0.0
750,187.25,40.293,41.1419,155.195,100.441,97.5204,-5.78939e-05,0.0674052,20.9201,470.488,0.270748,0.0,0.0
760,189.75,39.2515,41.5561,155.99,100.434,97.7522,-3.45642e-05,0.0672065,20.9201,470.448,0.248367,0.0,0.0
770,192.25,39.8138,40.7107,154.223,100.442,97.4854,-3.35549e-05,0.0671493,20.9201,470.548,0.274191,0.0,0.0
780,194.75,39.8641,40.9232,156.033,100.429,97.7755,-0.000175396,0.0670241,20.9195,470.488,0.245687,0.0,0.0
790,197.25,39.2682,40.8165,150.711,100.434,97.7496,-0.0002732,0.0669622,20.9202,470.518,0.248567,0.0,0.0
800,199.75,39.4058,40.7454,155.053,100.426,97.5965,-0.000206232,0.0669086,20.9187,470.378,0.262276,0.0,0.0
810,202.25,39.5631,41.0247,155.132,100.425,98.2917,3.52672e-05,0.0668688,20.9182,470.418,0.19703,0.0,0.0
820,204.75,39.5126,39.8599,155.467,100.422,97.7096,0.000187239,0.0666522,20.9196,470.418,0.251274,0.0,0.0
830,207.25,39.4914,40.1815,158.707,100.427,97.3627,8.13805e-05,0.0664219,20.9206,470.358,0.284356,0.0,0.0
840,209.75,39.4228,40.0414,154.866,100.428,97.3779,-0.000121971,0.0664871,20.9209,470.348,0.282959,0.0,0.0
850,212.25,38.8322,39.8879,152.756,100.414,97.7045,-0.00030527,0.0664985,20.921,470.218,0.250959,0.0,0.0
860,214.75,39.0492,40.0957,152.523,100.429,97.5559,-0.000280059,0.0663005,20.9207,470.238,0.266316,0.0,0.0
870,217.25,38.7682,40.0743,158.447,100.421,97.564,-0.00013778,0.0662212,20.9204,470.318,0.2648,0.0,0.0
880,219.75,38.6394,40.0157,158.834,100.421,97.3201,,0.0659541,,470.298,0.287844,0.0,0.0
890,222.25,38.8533,39.3559,154.463,100.421,97.6376,,,,470.358,0.257887,0.0,0.0
900,224.75,38.3812,39.8473,160.076,100.433,97.3942,,,,470.478,0.281958,0.0,0.0
910,227.25,37.9927,39.51,152.585,100.418,97.6117,,,,470.408,0.26013,0.0,0.0
920,229.75,37.8801,39.5108,156.191,100.436,97.6234,,,,470.508,0.260653,0.0,0.0

File: Overstuffed_Chair_Cone_HF75Scalar_210325_R1.csv
LABORATORY,FSRI
TEST IDENT,Stack_HF75_1
OPERATOR,Dow
MATERIAL,"1"" PUF, 1.75"" PE Batting, PE Fabric"
ORIENTATION,Horizontal
HEAT FLUX,35
SURF AREA,0.01
C FACTOR,0.0386052
SPEC HOLDER DIFF,-71.86
SPECIMEN MASS,15.85
SCAN TIME,0.25
O2 DELAY TIME,11
CO DELAY TIME,11
CO2 DELAY TIME,8
FLOW FACTOR,1
SCAN COUNT,815
TIME TO IGN,8
END OF TEST SCAN,335
END OF TEST TIME,83.75
TEST STATUS,1
PRE TEST CMT,without retainer frame or grid
POST TEST CMT,"Spark igniter brushed against foil when being removed, causing a jump in the mass measurement at the start of test. The foil folded in on itself before end of test. "

File: Overstuffed_Chair_Cone_HF75Scalar_210325_R3.csv
LABORATORY,FSRI
TEST IDENT,Stack_HF75_3
OPERATOR,Dow
MATERIAL,"1"" PUF, 1.75"" PE Batting, PE Fabric"
ORIENTATION,Horizontal
HEAT FLUX,75
SURF AREA,0.01
C FACTOR,0.0386052
SPEC HOLDER DIFF,-94.94
SPECIMEN MASS,16.16
SCAN TIME,0.25
O2 DELAY TIME,11
CO DELAY TIME,11
CO2 DELAY TIME,8
FLOW FACTOR,1
SCAN COUNT,786
TIME TO IGN,11
END OF TEST SCAN,306
END OF TEST TIME,76.5
TEST STATUS,1
PRE TEST CMT,without retainer frame or grid