Folder: fsri_materials_database/01_Data/Mineral_Wool_Insulation/Cone (part 4)

File: Mineral_Wool_Insulation_Cone_HF75Scan_220426_R3.csv
Names,Time,Stack TC,Smoke TC,Exh Press,Smoke Comp,Smoke Meas,CO Meter,CO2 Meter,O2 Meter,Sample Mass,Ext Coeff,Start Test,Flame Verif
Chan Gain,,500,500,1,1,1,1,1,1,1,1,1.0,1.0
Offset,,0,0,0.135223,0,0,0,0,0,0,0,0.0,0.0
Gain,,1,1,25.011,13.0939,14.0471,1,1,1,1.00088,1.00971,1.0,1.0
Units,sec,C,C,Pa,%,%,%,%,%,g,/m,,
Baseline,,45.3208,46.9483,139.432,98.5635,97.1113,0.000596509,0.0459073,21.0135,-835.111,0.131531,,
31,7.5,43.1055,44.8712,140.366,98.4644,97.4251,0.00226568,0.0551133,20.9978,-307.371,0.0939851,0.0,0.0
62,15.25,43.9575,45.413,138.186,98.4684,97.1165,0.00220872,0.0542164,21,-307.471,0.122449,0.0,0.0
93,23,44.4463,46.6468,141.426,98.4736,97.6107,0.00223352,0.0527509,21.0009,-307.511,0.0779533,0.0,0.0
124,30.75,44.8648,46.5081,141.227,98.4984,97.6219,0.0019211,0.0521705,21.0031,-307.571,0.0791693,0.0,0.0
155,38.5,44.9676,46.5275,141.451,98.4828,96.7114,0.00212165,0.0517932,21.0038,-307.581,0.160766,0.0,0.0
186,46.25,45.1655,46.9807,137.623,98.486,97.2434,0.0020201,0.0514062,21.0043,-307.641,0.112465,0.0,0.0
217,54,46.2626,47.9204,135.716,98.5156,97.7552,0.00194772,0.0506829,21.0061,-307.631,0.0686264,0.0,0.0
248,61.75,45.9043,47.6309,134.976,98.5779,97.7098,0.00186517,0.0500651,21.0086,-307.701,0.0783478,0.0,0.0
279,69.5,45.9735,48.0517,136.397,98.6343,98.0909,0.00183032,0.049349,21.0092,-307.731,0.0489308,0.0,0.0
310,77.25,46.3989,48.3636,137.637,98.6886,97.8067,0.00157114,0.0491087,21.0106,-307.731,0.0795084,0.0,0.0
341,85,46.8881,48.7633,136.799,98.7502,97.3102,0.00160037,0.0483376,21.0124,-307.781,0.130099,0.0,0.0
372,92.75,46.4722,48.6728,141.36,98.8129,97.4474,0.00136972,0.048203,21.0134,-307.832,0.123247,0.0,0.0
403,100.5,46.8502,48.1145,137.808,98.9112,97.6969,0.00158143,0.0480324,21.0135,-307.822,0.109406,0.0,0.0
434,108.25,46.8535,49.1144,138.996,99.0019,98.475,0.00129406,0.047811,21.0129,-307.832,0.0472653,0.0,0.0
465,116,47.0123,49.2596,139.5,99.097,98.9067,0.00126977,0.0478032,21.0128,-307.822,0.0170281,0.0,0.0
496,123.75,47.5499,49.8984,136.43,99.1769,99.0558,0.00118418,0.0475901,21.0128,-307.832,0.01082,0.0,0.0
527,131.5,47.1906,49.7028,136.706,99.2556,98.7699,0.00147365,0.0475978,21.0106,-307.902,0.0434501,0.0,0.0
558,139.25,47.2528,49.8494,135.79,99.3364,98.5196,0.00132685,0.0476091,21.0113,-307.922,0.0731282,0.0,0.0
589,147,47.0643,49.5397,138.589,99.4219,98.4608,0.00147245,0.0472745,21.0115,-307.952,0.0860314,0.0,0.0
620,154.75,47.3753,49.8576,135.848,99.4942,98.4188,0.00119749,0.0471044,21.0128,-307.912,0.0962519,0.0,0.0
651,162.5,47.974,49.8924,135.793,99.5473,98.2906,0.0012321,0.0468003,21.0128,-307.952,0.112525,0.0,0.0
682,170.25,47.8237,50.3215,134.662,99.5769,98.9388,0.00113941,0.0466446,21.0133,-307.952,0.05694,0.0,0.0
713,178,47.8315,50.2095,140.253,99.5693,98.4544,0.000702861,0.0465917,21.0162,-307.982,0.0997365,0.0,0.0
744,185.75,48.1203,49.7022,138.999,99.5713,98.6666,0.00116973,0.0461238,21.0167,-307.912,0.0808446,0.0,0.0
775,193.5,48.07,50.1883,133.73,99.5609,98.2701,0.000852321,0.0459069,21.0163,-307.902,0.115588,0.0,0.0
806,201.25,48.0138,50.2714,139.955,99.5322,98.6186,0.00105119,0.0457061,21.0152,-307.932,0.0816721,0.0,0.0
837,209,48.0398,50.1301,139.49,99.4726,98.7283,0.000666772,0.0451932,21.0153,-307.982,0.0665202,0.0,0.0
868,216.75,48.0407,50.2257,137.993,99.3767,98.8334,0.000937819,0.0451184,21.0168,-308.002,0.0485602,0.0,0.0
899,224.5,48.4195,50.5817,137.52,99.276,98.1295,0.00106208,0.0448536,21.0148,-307.972,0.102888,0.0,0.0
930,232.25,48.6017,50.6156,138.944,99.3831,97.8397,0.000921642,0.0446495,21.0135,-308.012,0.138632,0.0,0.0
961,240,48.277,50.7106,136.332,99.332,99.0511,0.000476161,0.0446898,21.0157,-308.012,0.0250767,0.0,0.0
992,247.75,48.5352,50.7982,136.946,99.2421,99.1223,0.000748618,0.0445529,21.0164,-308.002,0.0106945,0.0,0.0
1023,255.5,48.4735,50.7527,136.795,99.1597,99.0811,0.000623581,0.0443374,21.0147,-308.032,0.00702282,0.0,0.0
1054,263.25,48.2392,50.3056,135.968,99.1086,98.6962,0.00068884,0.0443534,21.0167,-307.982,0.0369335,0.0,0.0
1085,271,48.7153,50.9927,137.736,99.0918,98.3502,0.00103657,0.0446021,21.0165,-307.982,0.0665339,0.0,0.0
1116,278.75,48.7524,50.9719,138.162,99.0782,97.8765,0.00100047,0.044312,21.0174,-308.002,0.108081,0.0,0.0
1147,286.5,48.4902,50.8034,137.322,99.0674,98.8475,0.000783766,0.044772,21.0165,-307.972,0.0196844,0.0,0.0
1178,294.25,48.439,50.8488,136.777,99.075,98.1385,0.000539792,0.0445826,21.0171,-308.052,0.084125,0.0,0.0
1209,302,48.5952,50.9128,136.516,99.0594,97.7681,0.0007579,0.0443367,21.0171,-308.052,0.116222,0.0,0.0
1240,309.75,48.8104,50.6747,137.031,99.0582,97.9108,0.000629258,0.0442573,21.0156,-308.042,0.103192,0.0,0.0
1271,317.5,48.8436,50.9227,136.885,99.0614,98.9602,0.000484707,0.0441996,21.0156,-308.032,0.00905242,0.0,0.0
1302,325.25,49.0481,50.8454,135.357,99.0323,98.9885,0.000702931,0.0443011,21.0157,-308.022,0.00391105,0.0,0.0
1333,333,48.4238,50.8588,135.013,99.0199,97.6103,0.000716303,0.0448775,21.0138,-308.032,0.126987,0.0,0.0
1364,340.75,48.7857,51.1446,136.387,99.0163,97.585,0.000242118,0.0454367,21.0119,-308.062,0.128961,0.0,0.0
1395,348.5,48.3919,50.8846,138.599,98.9819,97.6133,0.000267146,0.0457677,21.0106,-308.032,0.123319,0.0,0.0
1426,356.25,48.4714,50.8426,139.02,98.9444,97.51,0.000716123,0.0460427,21.0115,-308.022,0.129336,0.0,0.0
1457,364,48.9435,50.2063,137.308,98.9288,97.6802,0.000330325,0.0460137,21.0125,-308.052,0.112496,0.0,0.0
1488,371.75,48.7614,50.9916,136.208,98.9228,97.9674,0.000411945,0.045866,21.0145,-308.052,0.085954,0.0,0.0
1519,379.5,49.0621,51.2697,141.825,98.9112,97.5302,0.000483206,0.0456392,21.0141,-308.072,0.124537,0.0,0.0
1550,387.25,48.9194,50.8176,136.861,98.9092,98.3404,0.000469263,0.0451447,21.0135,-308.022,0.0510831,0.0,0.0
1581,395,48.7859,51.1789,138.208,98.9136,97.7852,0.000514221,0.0450055,21.0156,-308.042,0.101618,0.0,0.0
1612,402.75,49.0876,51.1189,139.901,98.9112,97.6073,0.000478202,0.0450624,21.014,-308.052,0.117532,0.0,0.0
1643,410.5,48.5642,51.0924,141.578,98.8884,98.4244,0.000564482,0.0452673,21.0141,-308.082,0.0416585,0.0,0.0
1674,418.25,48.9286,50.3248,137.946,98.8716,98.6156,0.00056598,0.0449968,21.0163,-308.062,0.0229665,0.0,0.0
1705,426,48.6878,50.6799,134.87,98.9336,98.5761,0.000331997,0.0446746,21.0143,-308.052,0.0320555,0.0,0.0
1736,433.75,48.8554,51.053,139.63,98.9583,97.3137,0.000365507,0.0445582,21.0147,-307.992,0.14844,0.0,0.0
1767,441.5,48.612,50.7775,139.572,99.0011,97.4418,0.000573108,0.0443653,21.0155,-308.062,0.140607,0.0,0.0
1798,449.25,48.8241,50.8812,134.811,99.0403,98.6092,0.000673268,0.0444988,21.0152,-308.062,0.0386377,0.0,0.0
1829,457,48.4338,51.2837,134.672,99.0618,98.7588,0.000333375,0.0446044,21.0148,-308.072,0.027139,0.0,0.0
1860,464.75,49.3797,51.2034,137.528,99.0774,98.4252,0.000693298,0.0447946,21.0119,-308.092,0.0584935,0.0,0.0
1891,472.5,48.7055,50.7819,139.769,99.075,97.8988,0.00027711,0.0450266,21.0118,-308.062,0.105778,0.0,0.0
1922,480.25,49.3906,50.9715,136.522,99.0646,98.1393,0.000441473,0.0452624,21.0118,-308.052,0.0831178,0.0,0.0
1953,488,49.2113,51.4099,137.377,99.0419,97.8071,0.00044474,0.045445,21.0118,-308.042,0.111116,0.0,0.0
1984,495.75,49.0036,50.8826,136.378,99.0275,98.5178,0.000522058,0.0454496,21.0131,-308.062,0.0456982,0.0,0.0
2015,503.5,48.97,50.8284,138.015,99.0614,98.1732,0.000397497,0.045497,21.013,-308.052,0.0797763,0.0,0.0
2046,511.25,48.7844,51.1288,136.974,99.085,98.3176,0.000698699,0.045444,21.0104,-308.022,0.068861,0.0,0.0
2077,519,48.8029,50.9534,134.497,99.0886,98.8389,0.000452957,0.0451564,21.012,-308.042,0.0223462,0.0,0.0
2108,526.75,48.1673,50.9763,139.037,99.1426,98.8308,0.000329325,0.0449658,21.0132,-307.992,0.0278958,0.0,0.0
2139,534.5,48.9247,51.4509,140.664,99.1861,98.0652,0.000675142,0.0444381,21.0151,-308.032,0.100669,0.0,0.0
2170,542.25,49.1593,51.1167,138.934,99.2025,98.1976,0.000613405,0.0441685,21.0155,-308.012,0.0901754,0.0,0.0
2201,550,48.958,50.7173,138.241,99.2177,97.8851,0.000260639,0.0441834,21.0158,-308.022,0.119763,0.0,0.0
2232,557.75,48.8862,51.2336,137.72,99.2397,99.3508,0.000514273,0.0441477,21.0178,-308.072,-0.00991202,0.0,0.0
2263,565.5,49.0987,50.8191,135.95,99.2449,98.5337,0.000617862,0.0438958,21.0181,-308.072,0.0636945,0.0,0.0
2294,573.25,49.115,51.071,135.432,99.2353,98.4986,0.000523633,0.0436514,21.0181,-308.082,0.0659983,0.0,0.0
2325,581,49.6075,50.9824,134.936,99.2261,97.5563,0.00044235,0.0435684,21.02,-308.062,0.150314,0.0,0.0
2356,588.75,48.588,50.8957,140.586,99.2225,98.1582,0.000304091,0.0442313,21.0171,-308.042,0.0955176,0.0,0.0
2387,596.5,48.8861,51.1253,136.961,99.2177,99.2719,0.000442521,0.0450012,21.0145,-308.052,-0.00483921,0.0,0.0
2418,604.25,48.8064,51.3655,141.296,99.1833,98.2251,0.000667509,0.0454805,21.0144,-308.072,0.0859885,0.0,0.0
2449,612,47.0936,49.3496,138.17,99.2165,98.159,0.000675136,0.0453357,21.0116,-308.062,0.0949044,0.0,0.0
2480,619.75,47.1477,49.0967,136.161,99.2277,97.5645,0.000747192,0.0453988,21.0105,-308.092,0.149718,0.0,0.0
2511,627.5,46.6265,48.7596,137.119,99.246,98.9054,0.000396974,0.0454661,21.0105,-308.072,0.0304552,0.0,0.0
2542,635.25,47.2001,49.3504,136.426,99.2752,98.9071,0.000545451,0.0455616,21.012,-308.082,0.0329044,0.0,0.0
2573,643,47.1546,49.2755,138.182,99.316,98.2212,0.000614186,0.0453778,21.0134,-308.082,0.0981755,0.0,0.0
2604,650.75,47.2398,49.4184,135.852,99.3539,97.8581,0.000522076,0.0451301,21.014,-308.072,0.134363,0.0,0.0
2635,658.5,47.2318,49.5894,137.217,99.4047,97.979,0.000754401,0.0454286,21.0126,-308.042,0.127951,0.0,0.0
2666,666.25,46.9492,49.6213,136.764,99.4498,98.6803,0.000417783,0.0444332,21.0134,-308.012,0.0688013,0.0,0.0
2697,674,47.1515,49.1716,134.366,99.4974,98.6246,0.000558259,0.043947,21.0135,-308.072,0.0780381,0.0,0.0
2728,681.75,46.9913,49.4784,139.241,99.5254,98.4553,0.000516977,0.0440576,21.0141,-308.042,0.0957474,0.0,0.0
2759,689.5,47.428,49.3338,141.355,99.5629,99.2445,0.000695414,0.0442596,21.0135,-308.072,0.0283758,0.0,0.0
2790,697.25,47.377,49.453,138.666,99.5817,99.2213,0.000215493,0.0444015,21.0135,-308.082,0.0321123,0.0,0.0
2821,705,47.5088,49.1552,139.405,99.5993,98.7879,0.000569511,0.0439163,21.0167,-308.062,0.0724486,0.0,0.0
2852,712.75,47.0168,49.8665,136.914,99.6165,98.8394,0.000559663,0.0437295,21.0165,-308.072,0.069366,0.0,0.0
2883,720.5,47.2748,49.3186,134.53,99.6261,98.544,,0.0436737,,-308.072,0.096725,0.0,0.0
2914,728.25,46.9547,49.3706,136.938,99.6221,98.7339,,,,-308.052,0.0793179,0.0,0.0
2924,730.75,47.3474,49.3866,138.786,99.6101,98.3927,,,,-308.072,0.108916,0.0,0.0