Folder: fsri_materials_database/01_Data/Mineral_Wool_Insulation/Cone

Note: 01_Data/README.md
# Materials and Products Database
## 01_Data

Raw data generated from each apparatus are included here in plain-text format. The data is organized first by material, next by the short name of test apparatus used, and where applicable additional filtering by test settings.

### material.json

Each material directory contains a json file of the same name as the material. This file links the data stored in the repository as well as data and graphs produced by the accompanying scripts (__02_Scripts__) to the respective landing page for the material on the front-end website.

File: Mineral_Wool_Insulation_Cone_HF25Scan_220426_R3.csv
Names,Time,Stack TC,Smoke TC,Exh Press,Smoke Comp,Smoke Meas,CO Meter,CO2 Meter,O2 Meter,Sample Mass,Ext Coeff,Start Test,Flame Verif
Chan Gain,,500,500,1,1,1,1,1,1,1,1,1.0,1.0
Offset,,0,0,0.135223,0,0,0,0,0,0,0,0.0,0.0
Gain,,1,1,25.011,13.0939,14.0471,1,1,1,1.00088,1.00971,1.0,1.0
Units,sec,C,C,Pa,%,%,%,%,%,g,/m,,
Baseline,,20.681,21.3772,151.738,98.9385,94.9113,0.000922962,0.0440352,21.0197,-834.047,0.368072,,
32,7.75,19.1618,19.7936,152.315,98.4972,94.2983,0.000721192,0.0483429,21.0119,-302.167,0.385858,0.0,0.0
64,15.75,18.5343,20.017,150.956,98.4201,94.4295,0.00119248,0.0448796,21.0182,-302.177,0.366608,0.0,0.0
96,23.75,19.1443,20.0388,152.583,98.4844,94.4758,0.000789119,0.0436637,21.0195,-302.207,0.368054,0.0,0.0
128,31.75,19.3762,20.2873,149.528,98.5412,94.3605,0.00109717,0.0433306,21.0214,-302.227,0.383972,0.0,0.0
160,39.75,19.3083,20.3045,151.689,98.6063,94.5924,0.00105204,0.04286,21.0222,-302.257,0.368084,0.0,0.0
192,47.75,19.577,20.3255,148.757,98.6558,94.7759,0.00106544,0.0430577,21.0216,-302.237,0.355369,0.0,0.0
224,55.75,19.4512,20.7112,146.734,98.7262,94.7647,0.000998463,0.0432341,21.021,-302.257,0.362723,0.0,0.0
256,63.75,19.8525,20.4264,150.125,98.7885,94.8252,0.00132847,0.043226,21.024,-302.267,0.362666,0.0,0.0
288,71.75,19.8379,20.8276,149.64,98.8724,94.8685,0.0010517,0.0432118,21.0241,-302.277,0.366144,0.0,0.0
320,79.75,20.2947,20.9381,153.567,98.9096,95.0965,0.000982679,0.0435191,21.0241,-302.287,0.348205,0.0,0.0
352,87.75,20.2528,21.0586,151.081,98.9523,94.9958,0.000645831,0.0435159,21.0241,-302.307,0.361421,0.0,0.0
384,95.75,20.2998,20.9812,149.565,98.9963,94.9966,0.000867668,0.0433761,21.0241,-302.317,0.365274,0.0,0.0
416,103.75,20.4303,21.2163,148.571,99.0275,95.0854,0.00112011,0.043623,21.0231,-302.317,0.359792,0.0,0.0
448,111.75,20.6686,21.4301,150.467,99.0698,95.1287,0.000961081,0.0437293,21.0225,-302.337,0.359548,0.0,0.0
480,119.75,20.6535,21.1966,149.793,99.1006,95.0434,0.000985943,0.0438801,21.0211,-302.337,0.370245,0.0,0.0
512,127.75,20.8194,21.0819,150.267,99.1174,95.1788,0.000787563,0.0439743,21.0197,-302.357,0.35913,0.0,0.0
544,135.75,20.4192,20.8836,153.261,99.1561,95.1947,0.000905428,0.0439965,21.0195,-302.347,0.361116,0.0,0.0
576,143.75,20.5461,21.2409,149.742,99.1741,95.0219,0.000821293,0.0440831,21.0195,-302.357,0.378811,0.0,0.0
608,151.75,20.6118,20.8576,149.051,99.1913,95.2024,0.000877603,0.0441246,21.0195,-302.387,0.36354,0.0,0.0
640,159.75,20.2468,21.1813,151.922,99.1973,95.3023,0.000838471,0.0441206,21.0217,-302.387,0.354787,0.0,0.0
672,167.75,20.3622,21.5879,151.009,99.1965,95.253,0.000546433,0.0441341,21.0218,-302.387,0.359299,0.0,0.0
704,175.75,20.7154,21.3009,151.188,99.2161,95.4673,0.000979022,0.0440663,21.0204,-302.397,0.341139,0.0,0.0
736,183.75,20.5521,21.485,156.345,99.2093,95.3469,0.000766542,0.044016,21.0194,-302.417,0.351715,0.0,0.0
768,191.75,20.7838,21.5876,155.094,99.2193,95.1835,0.000770697,0.0440192,21.0199,-302.397,0.367792,0.0,0.0
800,199.75,20.4265,20.7755,151.67,99.2153,95.2633,0.000862487,0.0442545,21.0194,-302.417,0.360018,0.0,0.0
832,207.75,20.8217,21.7605,153.45,99.1973,95.214,0.000961549,0.0443935,21.0196,-302.417,0.362999,0.0,0.0
864,215.75,20.9718,21.8454,147.754,99.1853,95.2873,0.000658544,0.0445371,21.0205,-302.407,0.355111,0.0,0.0
896,223.75,20.7,21.6616,149.753,99.1481,95.1098,0.000471307,0.0443826,21.0192,-302.427,0.368303,0.0,0.0
928,231.75,20.6579,21.7559,153.031,99.0922,95.1908,0.000910955,0.0444493,21.0199,-302.417,0.355764,0.0,0.0
960,239.75,20.9098,21.2556,148.718,99.0271,95.0854,0.000881247,0.044485,21.0183,-302.407,0.359757,0.0,0.0
992,247.75,20.1582,21.0793,150.068,98.9651,94.9889,0.00089304,0.0443204,21.0211,-302.427,0.363205,0.0,0.0
1024,255.75,20.8056,21.8521,152.051,98.906,94.9448,0.000817579,0.044081,21.0227,-302.437,0.362029,0.0,0.0
1056,263.75,20.8305,21.8011,147.574,98.8041,94.8089,0.000816636,0.0439918,21.0235,-302.447,0.365585,0.0,0.0
1088,271.75,20.9668,21.443,151.945,98.715,94.8955,0.000802829,0.0439589,21.0204,-302.447,0.349507,0.0,0.0
1120,279.75,20.8327,21.4788,151.593,98.6439,94.598,0.000688352,0.0442019,21.0194,-302.457,0.370934,0.0,0.0
1152,287.75,21.0203,21.6907,148.027,98.5671,94.6241,0.000796207,0.0445633,21.0199,-302.447,0.361596,0.0,0.0
1184,295.75,21.0177,22.0201,150.739,98.4804,94.4925,0.000801964,0.044799,21.0227,-302.457,0.366128,0.0,0.0
1216,303.75,20.8986,21.4264,151.072,98.4189,94.5259,0.000952245,0.0450262,21.0222,-302.457,0.357457,0.0,0.0
1248,311.75,20.7176,21.89,149.771,98.3817,94.4899,0.000963781,0.045105,21.0198,-302.457,0.357487,0.0,0.0
1280,319.75,21.0905,21.6076,153.45,98.3394,94.3523,0.000783723,0.0450641,21.0197,-302.467,0.366581,0.0,0.0
1312,327.75,20.7724,21.5127,150.766,98.3078,94.3365,0.000978309,0.0448943,21.0188,-302.467,0.365226,0.0,0.0
1344,335.75,20.9321,21.9026,149.514,98.271,94.3635,0.000789409,0.0452047,21.0158,-302.477,0.359378,0.0,0.0
1376,343.75,20.8647,22.0277,150.148,98.2435,94.3665,0.000615479,0.045475,21.0155,-302.467,0.35661,0.0,0.0
1408,351.75,20.8757,22.06,153.979,98.1979,94.2692,0.000303069,0.0451721,21.0165,-302.467,0.361642,0.0,0.0
1440,359.75,20.386,22.2894,152.905,98.1552,94.2619,0.000729888,0.0447507,21.0191,-302.487,0.358468,0.0,0.0
1472,367.75,20.9807,21.9891,149.181,98.0944,94.1907,0.000700711,0.0441784,21.0202,-302.477,0.359675,0.0,0.0
1504,375.75,21.272,21.9361,148.537,98.068,94.2769,0.000549637,0.0439299,21.0197,-302.487,0.349196,0.0,0.0
1536,383.75,20.5327,21.6643,153.218,98.0441,94.1226,0.000752095,0.0437081,21.0218,-302.487,0.36154,0.0,0.0
1568,391.75,20.7004,21.606,148.408,98.0077,94.0617,0.000764714,0.0434994,21.0224,-302.487,0.363985,0.0,0.0
1600,399.75,20.5262,21.4957,150.181,97.9717,94.0741,0.00102247,0.0434018,21.0224,-302.477,0.359563,0.0,0.0
1632,407.75,20.9498,22.0401,154.591,97.9278,94.0252,0.000559971,0.0434105,21.0235,-302.497,0.360191,0.0,0.0
1664,415.75,21.0697,21.9386,150.624,97.8842,94.0231,0.000662768,0.0435065,21.0237,-302.487,0.356453,0.0,0.0
1696,423.75,20.8011,22.0567,147.48,97.8678,93.9549,0.000951742,0.0434041,21.0237,-302.497,0.361393,0.0,0.0
1728,431.75,21.555,21.9735,152.319,97.8327,93.8371,0.000727602,0.0434441,21.0239,-302.487,0.36933,0.0,0.0
1760,439.75,21.0176,22.0457,150.819,97.7947,93.8083,0.000767016,0.0433781,21.0244,-302.507,0.368604,0.0,0.0
1792,447.75,21.1392,21.9792,152.742,97.7532,93.8383,0.000688458,0.043461,21.0244,-302.507,0.362007,0.0,0.0
1824,455.75,21.3465,22.3653,149.42,97.7184,93.9134,0.000766306,0.0433914,21.0209,-302.517,0.351779,0.0,0.0
1856,463.75,21.8788,21.9592,150.126,97.7008,93.8671,0.000721829,0.0437587,21.0204,-302.507,0.354552,0.0,0.0
1888,471.75,21.027,22.537,149.5,97.6605,93.8516,0.000573909,0.0437484,21.0204,-302.497,0.352349,0.0,0.0
1920,479.75,21.1972,22.3827,149.161,97.6181,93.8195,0.00023399,0.0438875,21.0229,-302.507,0.351542,0.0,0.0
1952,487.75,21.7017,21.8715,148.055,97.5694,93.5738,0.000492152,0.0443381,21.0209,-302.487,0.370337,0.0,0.0
1984,495.75,21.2572,22.4245,150.998,97.4766,93.7543,0.000507603,0.0443546,21.0206,-302.507,0.344851,0.0,0.0
2016,503.75,20.8244,22.1103,152.444,97.3979,93.5018,0.000777392,0.0441444,21.0198,-302.497,0.361582,0.0,0.0
2048,511.75,20.8953,21.7173,149.723,97.3496,93.4504,0.000791462,0.0443107,21.0197,-302.507,0.362057,0.0,0.0
2080,519.75,21.357,21.6406,150.522,97.2936,93.4251,0.0007533,0.0445037,21.0189,-302.497,0.359364,0.0,0.0
2112,527.75,20.88,22.0689,154.193,97.2645,93.3179,0.000934341,0.0446213,21.0193,-302.497,0.366874,0.0,0.0
2144,535.75,21.3206,21.7755,149.41,97.2445,93.3994,0.00085873,0.0447801,21.0193,-302.507,0.357326,0.0,0.0
2176,543.75,21.1397,21.7705,154.101,97.2377,93.4079,0.000746217,0.0445469,21.0195,-302.517,0.355894,0.0,0.0
2208,551.75,21.2409,22.1355,146.77,97.2365,93.3304,0.000644482,0.0442637,21.0192,-302.507,0.363146,0.0,0.0
2240,559.75,20.8699,21.8572,150.76,97.2505,93.4547,0.000757533,0.0443098,21.0176,-302.507,0.35263,0.0,0.0
2272,567.75,20.8605,21.7021,151.534,97.2401,93.2883,0.000659306,0.0446288,21.0181,-302.477,0.367462,0.0,0.0
2304,575.75,21.3702,21.954,151.563,97.2661,93.3985,0.000933604,0.0446117,21.0186,-302.477,0.359373,0.0,0.0
2336,583.75,20.7919,21.6958,150.121,97.306,93.4028,0.000821709,0.0442789,21.0178,-302.487,0.362605,0.0,0.0
2368,591.75,20.838,22.0754,153.908,97.3228,93.7462,0.000552503,0.0446256,21.02,-302.507,0.331631,0.0,0.0
2400,599.75,21.0442,21.719,148.105,97.3576,93.4727,0.000515607,0.045275,21.0183,-302.517,0.360672,0.0,0.0
2432,607.75,20.8573,21.4959,150.697,97.3863,93.4993,0.000504567,0.0458751,21.0161,-302.517,0.360771,0.0,0.0
2464,615.75,20.9575,21.7901,152.812,97.4263,93.5404,0.000803173,0.0456449,21.0145,-302.527,0.360506,0.0,0.0
2496,623.75,21.3907,21.9593,150.004,97.4511,93.7157,0.000489149,0.0450627,21.0157,-302.497,0.346172,0.0,0.0
2528,631.75,20.802,21.1401,151.856,97.4854,93.7625,0.000545472,0.0450008,21.0155,-302.507,0.344881,0.0,0.0
2560,639.75,20.7803,21.6037,146.544,97.5314,93.7222,0.000925485,0.0447494,21.0163,-302.517,0.352861,0.0,0.0
2592,647.75,20.7014,21.5141,150.454,97.6117,93.6463,0.000897571,0.0447892,21.0172,-302.527,0.367327,0.0,0.0
2624,655.75,20.6603,21.5353,145.35,97.7012,93.804,0.000460897,0.0444112,21.0172,-302.497,0.360537,0.0,0.0
2656,663.75,20.4188,21.1803,146.876,97.7895,93.9296,0.000252358,0.0436922,21.0213,-302.507,0.356688,0.0,0.0
2688,671.75,20.8939,21.5277,151.238,97.8267,93.7839,0.000400765,0.0435524,21.0202,-302.537,0.373806,0.0,0.0
2720,679.75,20.1832,21.2236,150.645,97.895,93.9528,0.000782906,0.0436263,21.0211,-302.527,0.364055,0.0,0.0
2752,687.75,20.5529,21.5113,148.464,97.9478,94.2156,0.000647807,0.0431204,21.0217,-302.517,0.344087,0.0,0.0
2784,695.75,20.5745,21.4222,147.81,98.0033,94.1526,0.00058742,0.0432812,21.0211,-302.497,0.355034,0.0,0.0
2816,703.75,20.4379,21.0203,148.911,98.0704,94.1303,0.000408887,0.04284,21.0217,-302.497,0.363196,0.0,0.0
2848,711.75,20.5084,21.362,149.746,98.1324,94.2126,0.00052445,0.0431428,21.0194,-302.517,0.361047,0.0,0.0
2880,719.75,20.4011,21.7687,147.628,98.1943,94.315,0.00064229,0.0433876,21.0185,-302.527,0.357009,0.0,0.0
2912,727.75,20.5986,21.5328,151.152,98.2479,94.3549,0.000574867,0.0435252,21.0184,-302.527,0.358094,0.0,0.0
2944,735.75,20.6624,21.5191,150.682,98.2906,94.3343,,0.0437349,,-302.517,0.363879,0.0,0.0
2976,743.75,20.2418,21.5125,152.365,98.315,94.2786,,,,-302.527,0.37131,0.0,0.0
2985,746,20.3364,21.6542,153.647,98.327,94.4076,,,,-302.527,0.360276,0.0,0.0

File: Mineral_Wool_Insulation_Cone_HF50Scan_220426_R1.csv
Names,Time,Stack TC,Smoke TC,Exh Press,Smoke Comp,Smoke Meas,CO Meter,CO2 Meter,O2 Meter,Sample Mass,Ext Coeff,Start Test,Flame Verif
Chan Gain,,500,500,1,1,1,1,1,1,1,1,1.0,1.0
Offset,,0,0,0.135223,0,0,0,0,0,0,0,0.0,0.0
Gain,,1,1,25.011,13.0939,14.0471,1,1,1,1.00088,1.00971,1.0,1.0
Units,sec,C,C,Pa,%,%,%,%,%,g,/m,,
Baseline,,31.1354,32.4429,145.467,97.6954,94.4143,0.00107725,0.0485128,21.0053,-834.345,0.302581,,
82,20.25,30.084,31.7059,147.445,97.9502,94.8119,0.00192816,0.0557346,21.0025,-318.971,0.288423,0.0,0.0
164,40.75,31.4283,32.6235,141.583,97.9833,94.8162,0.00172984,0.0485294,21.0114,-319.031,0.291022,0.0,0.0
246,61.25,32.021,33.4841,143.436,98.0461,95.1398,0.00139344,0.0495615,21.0087,-319.091,0.266507,0.0,0.0
328,81.75,32.4013,34.0557,143.199,98.1336,95.1883,0.00148133,0.0483463,21.0114,-319.172,0.269901,0.0,0.0
410,102.25,32.718,34.3089,141.082,98.2902,95.2427,0.00136389,0.0475423,21.0129,-319.212,0.278963,0.0,0.0
492,122.75,33.4261,34.5053,141.233,98.4429,95.274,0.00123981,0.0472273,21.0139,-319.222,0.289797,0.0,0.0
574,143.25,33.1075,34.3743,147.073,98.5028,95.4583,0.000824013,0.0468078,21.0146,-319.302,0.278069,0.0,0.0
656,163.75,33.232,35.0514,142.143,98.5216,95.5492,0.00112115,0.0476059,21.0115,-319.312,0.27133,0.0,0.0
738,184.25,33.7094,35.052,144.915,98.5651,95.6067,0.00134107,0.0469096,21.0146,-319.322,0.269922,0.0,0.0
820,204.75,33.6715,35.4977,142.161,98.6618,95.7293,0.000862318,0.0463528,21.0118,-319.342,0.267255,0.0,0.0
902,225.25,33.8877,35.54,146.048,98.7817,95.8424,0.000774261,0.0463318,21.0154,-319.352,0.267546,0.0,0.0
984,245.75,34.3892,35.6576,144.218,98.8401,95.9505,0.000949521,0.045713,21.0125,-319.362,0.262798,0.0,0.0
1066,266.25,34.2395,35.5501,143.563,98.8628,95.6675,0.000990614,0.0463544,21.0141,-319.362,0.290994,0.0,0.0
1148,286.75,33.6403,35.7076,141.571,98.8644,95.9243,0.00069101,0.0484433,21.0069,-319.392,0.267397,0.0,0.0
1230,307.25,34.1666,35.9113,140.332,98.8584,96.44,0.000998473,0.0474746,21.0094,-319.402,0.21937,0.0,0.0
1312,327.75,34.3691,35.8112,143.103,98.8552,95.7961,0.00034449,0.0459785,21.014,-319.412,0.278416,0.0,0.0
1394,348.25,34.6683,35.6567,142.101,98.8604,95.9333,0.000667797,0.0458703,21.0129,-319.392,0.266207,0.0,0.0
1476,368.75,34.4617,35.9112,144.58,98.8369,95.8321,0.000666731,0.0462497,21.0132,-319.412,0.27344,0.0,0.0
1558,389.25,33.713,35.9299,143.358,98.8145,96.0915,0.000754381,0.0475238,21.011,-319.422,0.247496,0.0,0.0
1640,409.75,34.2293,35.8827,142.359,98.7685,95.8553,0.000526142,0.0478064,21.0083,-319.422,0.265175,0.0,0.0
1722,430.25,34.0564,36.1037,144.643,98.7346,95.788,0.000518849,0.0471552,21.0107,-319.412,0.268349,0.0,0.0
1804,450.75,33.3633,35.9598,142.102,98.6255,95.692,0.000553273,0.0457552,21.0153,-319.362,0.267443,0.0,0.0
1886,471.25,33.7815,36,148.739,98.508,95.4356,0.000661985,0.0453318,21.0172,-319.422,0.280644,0.0,0.0
1968,491.75,34.5346,36.3254,142.616,98.3733,95.1707,0.000999163,0.0442024,21.0195,-319.442,0.293151,0.0,0.0
2050,512.25,34.7777,35.9351,141.756,98.2906,95.2701,0.000596752,0.0438993,21.0207,-319.392,0.276448,0.0,0.0
2132,532.75,34.2803,35.6269,143.107,98.7366,95.8677,0.000632115,0.0438558,21.0204,-319.432,0.26116,0.0,0.0
2214,553.25,34.4186,36.1706,142.788,99.0758,96.1142,0.000589715,0.043839,21.0193,-319.452,0.268796,0.0,0.0
2296,573.75,34.5579,36.2424,143.345,99.1761,96.392,0.000824668,0.0442738,21.0151,-319.392,0.252196,0.0,0.0
2378,594.25,34.6827,36.3641,141.694,99.059,96.29,0.000504586,0.0443875,21.0196,-319.432,0.251113,0.0,0.0
2460,614.75,34.4616,35.9413,141.793,98.8049,95.9136,0.000766454,0.0441891,21.0199,-319.402,0.26305,0.0,0.0
2542,635.25,34.9218,36.3814,142.495,98.7282,95.9732,0.000666765,0.0438807,21.0187,-319.462,0.250669,0.0,0.0
2624,655.75,34.567,36.3682,144.111,98.8285,95.9775,0.000398053,0.0444112,21.0176,-319.432,0.259266,0.0,0.0
2706,676.25,34.7724,36.4805,146.691,98.9288,95.8639,0.000579739,0.0443246,21.0203,-319.432,0.278741,0.0,0.0
2788,696.75,35.1411,36.1845,147.865,99.0758,96.2257,0.000474078,0.0447588,21.0165,-319.402,0.258531,0.0,0.0
2870,717.25,34.6265,36.474,143.177,99.1545,96.338,0.000377856,0.0444462,21.0199,-319.432,0.255234,0.0,0.0
2952,737.75,35.0222,36.2454,144.474,99.2049,96.323,0.000419702,0.0454359,21.0149,-319.422,0.261109,0.0,0.0
3034,758.25,34.9161,36.1991,145.125,99.1821,96.335,0.000581428,0.0456938,21.0133,-319.452,0.257972,0.0,0.0
3116,778.75,34.4988,36.761,141.438,99.2337,96.0653,0.000569977,0.046311,21.0133,-319.422,0.2874,0.0,0.0
3198,799.25,34.9823,36.3865,145.775,99.3356,96.1185,0.000777804,0.0470922,21.0116,-319.442,0.29159,0.0,0.0
3280,819.75,35.1146,36.4094,144.104,99.4383,96.4516,0.000613261,0.0471109,21.0121,-319.432,0.270103,0.0,0.0
3362,840.25,34.9684,35.9761,141.656,99.4934,96.3693,0.000803432,0.0452767,21.0163,-319.432,0.282574,0.0,0.0
3444,860.75,35.0716,36.6194,142.604,99.4522,96.7247,0.000501672,0.0456991,21.0149,-319.442,0.246308,0.0,0.0
3526,881.25,34.9247,36.697,139.422,99.3248,96.3041,0.000820177,0.0447249,21.0179,-319.412,0.27354,0.0,0.0
3608,901.75,34.8461,36.2431,146.341,99.1298,96.3294,0.000517378,0.0482624,21.0145,-319.422,0.253809,0.0,0.0
3690,922.25,34.952,36.5776,141.439,98.8932,96.1001,0.000689452,0.0454302,21.0182,-319.432,0.253759,0.0,0.0
3772,942.75,35.3115,36.4982,141.872,98.4417,95.3915,0.000446583,0.0462795,21.0157,-319.422,0.278778,0.0,0.0
3854,963.25,35.0429,36.6862,146.266,98.0992,95.268,0.000545806,0.0450481,21.0165,-319.432,0.259383,0.0,0.0
3936,983.75,35.1893,36.1608,140.348,97.9042,95.2603,0.000483079,0.0448809,21.0175,-319.442,0.242477,0.0,0.0
4018,1004.25,35.0493,36.0718,143.541,97.7827,94.5868,0.000531335,0.0450947,21.0154,-319.422,0.294319,0.0,0.0
4100,1024.75,34.8321,36.3605,140.192,97.6776,94.8213,0.000648305,0.0456508,21.0165,-319.432,0.262865,0.0,0.0
4182,1045.25,34.7967,36.2129,142.416,97.5941,95.0434,0.000536703,0.0464723,21.0129,-319.422,0.234571,0.0,0.0
4264,1065.75,34.9048,36.5826,142.895,97.6924,94.6421,0.000686146,0.0467434,21.0104,-319.422,0.280959,0.0,0.0
4346,1086.25,34.5857,36.33,142.784,98.0892,95.3996,0.000597057,0.0475911,21.0097,-319.442,0.246254,0.0,0.0
4428,1106.75,34.8352,36.4728,145.626,98.5372,95.8472,0.000430318,0.048319,21.0061,-319.422,0.245156,0.0,0.0
4510,1127.25,35.0731,35.9654,144.747,98.8101,95.8493,0.000498219,0.0480677,21.0096,-319.402,0.269456,0.0,0.0
4592,1147.75,34.6839,36.4655,143.96,98.8516,95.9638,0.000607972,0.0467793,21.0134,-319.432,0.262609,0.0,0.0
4674,1168.25,34.6571,35.9599,141.573,98.8237,95.9419,0.000520334,0.0460608,21.0161,-319.402,0.262121,0.0,0.0
4756,1188.75,34.7397,35.9152,142.219,98.7094,95.5093,0.000639116,0.0456769,21.0181,-319.342,0.291893,0.0,0.0
4838,1209.25,34.8957,36.2326,145.021,98.5532,95.8874,0.000436898,0.0462921,21.0127,-319.422,0.24287,0.0,0.0
4920,1229.75,35.4446,36.6208,143.967,98.4417,95.758,0.000462625,0.0467193,21.0154,-319.432,0.244812,0.0,0.0
5002,1250.25,35.0987,36.3083,142.484,98.3102,95.1728,0.000549805,0.0459722,21.0173,-319.412,0.287264,0.0,0.0
5084,1270.75,35.0582,36.8661,142.57,98.6866,95.5029,0.000158834,0.0456298,21.0181,-319.392,0.290446,0.0,0.0
5166,1291.25,34.7708,36.1618,143.896,99.1094,96.4769,0.00071578,0.0457771,21.0154,-319.412,0.238438,0.0,0.0
5248,1311.75,35.0099,36.206,142.533,99.1326,96.1747,0.000662031,0.0453362,21.0181,-319.422,0.268299,0.0,0.0
5330,1332.25,35.347,36.3708,143.799,98.9164,95.9616,0.000790101,0.0449143,21.0173,-319.422,0.268605,0.0,0.0
5412,1352.75,35.3691,37.0838,143.693,98.7014,95.9487,0.00110921,0.0446148,21.0163,-319.422,0.250522,0.0,0.0
5494,1373.25,35.0489,36.9152,140.72,98.8017,95.4536,0.000521867,0.044685,21.0178,-319.432,0.305342,0.0,0.0
5576,1393.75,34.9336,36.9048,143.719,98.924,96.2158,0.000728204,0.0444271,21.0178,-319.422,0.245853,0.0,0.0
5658,1414.25,34.98,36.6175,142.599,99.0946,95.971,0.000800955,0.0446414,21.0183,-319.412,0.28368,0.0,0.0
5740,1434.75,34.9375,36.6216,144.358,99.2389,96.0795,0.000529795,0.0447633,21.0186,-319.412,0.286559,0.0,0.0
5822,1455.25,34.7571,36.6419,145.989,99.4395,96.5558,0.000436468,0.0451486,21.0158,-319.392,0.260648,0.0,0.0
5904,1475.75,35.048,36.5929,140.717,99.5194,96.332,0.000563814,0.045149,21.0142,-319.402,0.288314,0.0,0.0
5986,1496.25,35.1178,36.103,142.563,99.5162,96.9887,0.000469263,0.0444854,21.0154,-319.402,0.227852,0.0,0.0
6068,1516.75,35.1543,37.031,146.696,99.489,96.3941,0.000292443,0.0449352,21.0211,-319.372,0.279897,0.0,0.0
6150,1537.25,34.9003,36.9898,149.144,99.4462,96.4074,0.000533722,0.0444459,21.0178,-319.392,0.274869,0.0,0.0
6232,1557.75,35.4839,36.0827,143.616,99.2596,96.2673,0.000514229,0.0451974,21.017,-319.372,0.271122,0.0,0.0
6314,1578.25,35.2973,37.2815,144.98,99.0506,95.929,0.000566021,0.0443776,21.0162,-319.352,0.283627,0.0,0.0
6396,1598.75,35.3293,36.4175,147.025,98.8632,95.6842,0.000583759,0.0471121,21.0138,-319.402,0.289483,0.0,0.0
6478,1619.25,34.983,36.709,147.014,98.6343,95.6465,0.000675732,0.0459898,21.0153,-319.382,0.272439,0.0,0.0
6560,1639.75,34.7429,36.4289,143.531,98.4177,95.5454,0.000447135,0.0455719,21.0182,-319.422,0.262342,0.0,0.0
6642,1660.25,35.4488,36.9767,142.988,98.299,95.4116,0.000409519,0.0466765,21.0162,-319.402,0.264062,0.0,0.0
6724,1680.75,35.5034,36.8144,141.345,98.074,95.229,0.000927706,0.046985,21.0137,-319.402,0.260737,0.0,0.0
6806,1701.25,35.3981,37.125,142.685,97.8167,95.3666,0.000536742,0.0465793,21.0114,-319.402,0.224677,0.0,0.0
6888,1721.75,35.2415,36.5213,140.566,97.74,94.9169,0.000619031,0.0464226,21.0154,-319.382,0.25959,0.0,0.0
6970,1742.25,35.1543,36.7754,146.111,97.6988,94.6164,0.000885427,0.0460065,21.0151,-319.362,0.283946,0.0,0.0
7052,1762.75,35.237,37.0269,144.37,97.6948,94.8436,0.00065251,0.0450364,21.0162,-319.382,0.262341,0.0,0.0
7134,1783.25,35.3735,36.879,142.113,97.7024,94.4968,0.000674958,0.0457053,21.0158,-319.362,0.295475,0.0,0.0
7216,1803.75,35.2155,36.6126,146.901,97.7388,94.8256,0.00051062,0.0478738,21.0129,-319.372,0.268006,0.0,0.0
7298,1824.25,34.3658,36.2487,143.542,97.7532,94.7819,0.000319288,0.0456893,21.0162,-319.372,0.273396,0.0,0.0
7380,1844.75,34.5486,36.2473,141.389,97.8099,94.796,0.000694474,0.0458515,21.0158,-319.402,0.277213,0.0,0.0
7462,1865.25,34.8093,36.1547,140.375,97.869,94.7626,0.000577219,0.0463924,21.0102,-319.362,0.285692,0.0,0.0
7544,1885.75,34.5423,36.2754,143.961,97.9693,95.1557,0.00064703,0.0464455,21.0122,-319.412,0.258098,0.0,0.0
7626,1906.25,34.3545,36.384,140.983,98.1995,95.4841,0.000321647,0.0472892,21.0114,-319.412,0.24837,0.0,0.0
7688,1921.75,34.3061,36.098,141.584,98.4213,95.322,,,,-319.372,0.283394,0.0,0.0