Folder: fsri_materials_database/01_Data/Mineral_Wool_Insulation/Cone (part 3)

File: Mineral_Wool_Insulation_Cone_HF75Scan_220426_R1.csv
Names,Time,Stack TC,Smoke TC,Exh Press,Smoke Comp,Smoke Meas,CO Meter,CO2 Meter,O2 Meter,Sample Mass,Ext Coeff,Start Test,Flame Verif
Chan Gain,,500,500,1,1,1,1,1,1,1,1,1.0,1.0
Offset,,0,0,0.135223,0,0,0,0,0,0,0,0.0,0.0
Gain,,1,1,25.011,13.0939,14.0471,1,1,1,1.00088,1.00971,1.0,1.0
Units,sec,C,C,Pa,%,%,%,%,%,g,/m,,
Baseline,,40.355,42.1338,140.988,98.756,97.0136,0.000783147,0.0477765,21.0066,-834.708,0.157731,,
82,20.25,40.1033,41.7185,145.756,98.6135,97.1311,0.00234331,0.0600242,20.9892,-316.649,0.134157,0.0,0.0
164,40.75,40.5483,43.0601,139.493,98.5492,97.4453,0.00181274,0.0551867,20.9926,-316.729,0.0997699,0.0,0.0
246,61.25,42.3811,44.3367,137.401,98.7098,97.5349,0.0020431,0.0546005,20.9968,-316.839,0.106056,0.0,0.0
328,81.75,42.6394,44.3747,136.958,99.1785,98.1445,0.00153381,0.0518933,21.0007,-316.9,0.0928296,0.0,0.0
410,102.25,42.9169,45.0959,140.347,99.2952,97.8024,0.00141267,0.0512864,21.0057,-316.91,0.13417,0.0,0.0
492,122.75,43.4022,45.9324,134.147,99.3471,98.1895,0.0014676,0.049049,21.0077,-316.97,0.103816,0.0,0.0
574,143.25,43.6014,46.278,136.609,99.3336,98.5821,0.00139851,0.0480679,21.0131,-317.01,0.0672548,0.0,0.0
656,163.75,44.4424,46.2452,138.534,99.2468,98.0669,0.00126189,0.0467519,21.0135,-317.02,0.105936,0.0,0.0
738,184.25,44.6121,46.7884,134.809,99.1146,97.6841,0.00105282,0.0478404,21.0094,-317.08,0.128766,0.0,0.0
820,204.75,44.7675,46.8354,138.82,98.9547,97.7634,0.000837329,0.0486041,21.0071,-317.1,0.107283,0.0,0.0
902,225.25,44.6638,46.9766,133.293,98.9192,97.5876,0.00111272,0.0492537,21.0044,-317.06,0.120037,0.0,0.0
984,245.75,44.8061,47.3382,135.866,98.932,96.78125,0.000859112,0.0474538,21.01,-317.12,0.194672,0.0,0.0
1066,266.25,45.3154,47.6243,140.888,98.9368,96.7602,0.000645252,0.0464579,21.0137,-317.12,0.197022,0.0,0.0
1148,286.75,45.5386,47.893,139.759,99.0119,97.8885,0.000623175,0.0456349,21.0135,-317.1,0.101063,0.0,0.0
1230,307.25,45.4681,48.0302,136.798,99.1761,97.9048,0.000447573,0.0457249,21.0144,-317.16,0.114268,0.0,0.0
1312,327.75,45.695,47.6668,136.773,99.3236,98.8758,0.000781749,0.0467108,21.0116,-317.17,0.04002,0.0,0.0
1394,348.25,45.7469,47.9781,137.329,99.495,97.6022,0.000697517,0.0471837,21.0108,-317.17,0.170123,0.0,0.0
1476,368.75,45.8827,48.0248,140.983,99.7312,98.2636,0.000569975,0.0465288,21.0116,-317.19,0.131298,0.0,0.0
1558,389.25,45.3862,47.4994,137.122,99.7567,97.9357,0.000842312,0.0468397,21.0136,-317.19,0.163178,0.0,0.0
1640,409.75,45.7597,48.0206,140.491,99.5118,98.8754,0.000943992,0.0475649,21.0092,-317.17,0.0568256,0.0,0.0
1722,430.25,46.3517,48.0826,136.988,99.1845,98.7206,0.000303191,0.0468155,21.0112,-317.17,0.0415229,0.0,0.0
1804,450.75,46.5776,48.1407,133.577,98.9172,97.5327,0.000886908,0.0450383,21.0169,-317.15,0.12484,0.0,0.0
1886,471.25,46.4814,48.8997,139.05,98.6586,96.9613,0.000265122,0.0457552,21.0154,-317.2,0.153705,0.0,0.0
1968,491.75,46.4863,48.1222,136.781,98.3701,97.2044,0.000580096,0.0455693,21.0152,-317.2,0.105591,0.0,0.0
2050,512.25,46.5021,48.0224,137.364,98.0816,96.3328,0.000557786,0.0465964,21.0111,-317.21,0.159345,0.0,0.0
2132,532.75,46.1976,48.2785,137.788,98.0481,96.437,0.00023417,0.0482537,21.0106,-317.19,0.146741,0.0,0.0
2214,553.25,46.2942,48.4431,138.09,98.134,96.1931,0.000174366,0.0486871,21.0082,-317.19,0.176929,0.0,0.0
2296,573.75,46.1201,48.3169,139.027,98.2842,97.3518,0.000829977,0.0457398,21.0145,-317.15,0.0844262,0.0,0.0
2378,594.25,46.6519,48.6403,138.45,98.4293,96.4392,0.00023301,0.0445929,21.0159,-317.17,0.180914,0.0,0.0
2460,614.75,46.4905,48.8376,137.18,98.6151,97.3368,0.000760321,0.045149,21.016,-317.15,0.115558,0.0,0.0
2542,635.25,46.8223,48.652,139.337,98.886,97.7394,0.000401147,0.0445146,21.0144,-317.15,0.103305,0.0,0.0
2624,655.75,46.5035,49.0494,137.769,99.0383,97.8937,0.000585978,0.0458716,21.0148,-317.19,0.102957,0.0,0.0
2706,676.25,46.8511,49.0393,139.652,99.1302,98.2722,0.000682626,0.0456199,21.0168,-317.17,0.0769904,0.0,0.0
2788,696.75,46.7312,48.8293,134.327,99.2093,97.8564,0.000255973,0.0474523,21.0095,-317.14,0.121613,0.0,0.0
2870,717.25,47.1206,48.9203,137.399,99.27,97.5113,0.000490186,0.0467789,21.0116,-317.18,0.158324,0.0,0.0
2952,737.75,47.1911,48.8766,136.629,99.2848,97.7033,0.000570468,0.0476458,21.0101,-317.2,0.142216,0.0,0.0
3034,758.25,46.9842,49.3545,136.073,99.2317,97.9601,0.000946451,0.0484935,21.0083,-317.19,0.114226,0.0,0.0
3116,778.75,47.3589,49.2398,137.706,99.1677,97.8894,0.000792063,0.0483226,21.0092,-317.2,0.114915,0.0,0.0
3198,799.25,47.196,49.4105,137.377,99.0454,98.2435,0.000761478,0.0493561,21.0083,-317.23,0.0720066,0.0,0.0
3280,819.75,47.5054,49.3654,138.347,98.9492,97.6892,0.000236898,0.0486887,21.005,-317.19,0.113504,0.0,0.0
3362,840.25,47.307,49.0725,134.343,98.7873,97.3557,0.000531953,0.0462843,21.013,-317.19,0.129297,0.0,0.0
3444,860.75,47.602,49.0752,135.15,98.7026,97.2095,0.000685869,0.045145,21.0159,-317.19,0.135006,0.0,0.0
3526,881.25,47.1394,49.502,136.509,98.6658,97.5023,0.000329299,0.044472,21.0158,-317.21,0.10507,0.0,0.0
3608,901.75,47.3737,49.4887,136.114,98.6459,97.5212,0.000797208,0.0450525,21.0142,-317.17,0.101563,0.0,0.0
3690,922.25,47.5654,49.6935,139.201,98.6123,97.357,0.000612886,0.0465982,21.0113,-317.22,0.113472,0.0,0.0
3772,942.75,47.6297,49.4673,136.355,98.7497,97.6069,0.000474131,0.0471256,21.0116,-317.21,0.103103,0.0,0.0
3854,963.25,47.7389,49.637,136.096,98.8041,97.5782,0.000788676,0.0463068,21.0109,-317.19,0.110583,0.0,0.0
3936,983.75,47.6955,49.5657,134.114,98.89,97.4307,0.000348808,0.045521,21.011,-317.2,0.131677,0.0,0.0
4018,1004.25,47.4665,49.4807,139.231,99.097,98.0171,0.000826701,0.0482055,21.0082,-317.21,0.0970446,0.0,0.0
4100,1024.75,47.5145,49.613,135.865,99.3475,97.4877,0.000297815,0.0483414,21.0074,-317.21,0.16738,0.0,0.0
4182,1045.25,47.5394,49.6264,141.916,99.4063,97.9378,0.00045321,0.0462873,21.0111,-317.18,0.131814,0.0,0.0
4264,1065.75,47.7433,50.184,135.177,99.4039,98.3387,0.000272194,0.0443159,21.0168,-317.16,0.0954267,0.0,0.0
4346,1086.25,47.6879,49.7196,133.534,99.334,97.9516,0.000764409,0.0439029,21.0192,-317.2,0.124128,0.0,0.0
4428,1106.75,48.2446,49.4212,134.889,99.1941,98.0557,8.88027e-05,0.0448475,21.0166,-317.22,0.102233,0.0,0.0
4510,1127.25,48.1593,49.9609,141.121,99.0267,97.8191,0.000454901,0.0449605,21.0159,-317.2,0.108672,0.0,0.0
4592,1147.75,47.8306,49.6458,138.014,99.0538,97.9854,0.000697985,0.0446796,21.0184,-317.23,0.0960534,0.0,0.0
4674,1168.25,47.5706,49.8986,139.948,99.2189,97.2498,0.000697588,0.0444784,21.0189,-317.2,0.177543,0.0,0.0
4756,1188.75,47.6243,50.0396,141.042,99.4398,97.576,0.000479768,0.0455674,21.0144,-317.19,0.167586,0.0,0.0
4838,1209.25,47.6264,49.7442,133.904,99.7156,98.0965,0.000340858,0.0454735,21.0143,-317.17,0.144996,0.0,0.0
4920,1229.75,47.6482,49.609,138.599,99.8267,98.3116,0.000655836,0.0452698,21.015,-317.19,0.135449,0.0,0.0
5002,1250.25,47.8375,49.7846,138.196,99.863,98.682,0.000405521,0.0443047,21.0171,-317.17,0.105369,0.0,0.0
5084,1270.75,48.1255,49.9897,133.43,99.857,98.7665,0.000540222,0.0438862,21.0207,-317.2,0.0972607,0.0,0.0
5166,1291.25,47.4969,49.7422,137.006,99.7771,99.2925,0.000733458,0.045063,21.0177,-317.18,0.0431254,0.0,0.0
5248,1311.75,48.0124,49.9755,138.807,99.5869,98.3267,0.000493862,0.0455289,21.0151,-317.21,0.112799,0.0,0.0
5330,1332.25,47.8931,49.9053,133.439,99.3819,99.0288,0.000725845,0.0455304,21.0138,-317.2,0.0315221,0.0,0.0
5412,1352.75,48.03,50.1886,138.298,99.1134,97.1658,0.000484732,0.0454506,21.0142,-317.2,0.175776,0.0,0.0
5494,1373.25,47.682,50.4883,139.657,98.94,98.1102,0.000720773,0.0464484,21.0112,-317.2,0.0745952,0.0,0.0
5576,1393.75,47.3898,50.0514,138.43,98.6207,97.5623,0.000603062,0.0455133,21.0133,-317.18,0.0955656,0.0,0.0
5658,1414.25,47.7978,50.1315,136.104,98.2978,96.3929,0.000530772,0.0443108,21.0159,-317.19,0.17333,0.0,0.0
5740,1434.75,47.5162,49.9525,137.557,98.1847,97.2374,0.000616265,0.0435276,21.0186,-317.15,0.0858746,0.0,0.0
5822,1455.25,48.1151,49.831,137.831,98.2283,96.8931,0.000580835,0.0450384,21.0174,-317.13,0.121213,0.0,0.0
5904,1475.75,47.9271,49.7306,137.764,98.3438,97.6553,0.000962378,0.045457,21.0146,-317.17,0.0622195,0.0,0.0
5986,1496.25,47.9027,49.6173,136.737,98.46,96.9532,0.000735249,0.0469152,21.0091,-317.21,0.136602,0.0,0.0
6068,1516.75,48.1344,49.8948,134.442,98.6746,97.5152,0.000724498,0.0469497,21.0096,-317.17,0.104691,0.0,0.0
6150,1537.25,47.8185,49.988,137.644,98.9495,97.6129,0.000454151,0.04685,21.0104,-317.19,0.120461,0.0,0.0
6232,1557.75,47.4662,49.9119,139.411,99.1641,98.4407,0.000754855,0.0451028,21.0159,-317.19,0.0648538,0.0,0.0
6314,1578.25,47.5977,50.0076,138.66,99.2584,97.7582,0.000527302,0.0438348,21.0184,-317.14,0.134891,0.0,0.0
6396,1598.75,47.8972,49.8268,137.799,99.3523,98.0544,0.000303864,0.0432194,21.0186,-317.15,0.116468,0.0,0.0
6478,1619.25,47.5091,50.0319,139.843,99.4091,97.6571,0.000327851,0.0434444,21.019,-317.17,0.157493,0.0,0.0
6560,1639.75,47.7237,49.7307,135.535,99.4287,97.9224,0.000324885,0.0429058,21.0214,-317.15,0.135204,0.0,0.0
6642,1660.25,47.6727,49.9714,133.175,99.4203,98.129,0.00012761,0.0433768,21.0192,-317.16,0.115787,0.0,0.0
6724,1680.75,48.1624,50.3346,138.302,99.3939,98.18,0.000670539,0.0435424,21.018,-317.11,0.108834,0.0,0.0
6806,1701.25,47.8805,49.7865,139.21,99.3575,97.8765,7.64921e-05,0.0438953,21.021,-317.14,0.133016,0.0,0.0
6888,1721.75,48.2201,50.2117,137.47,99.3775,98.2191,0.000249713,0.0441609,21.0179,-317.15,0.103855,0.0,0.0
6970,1742.25,48.2375,49.7758,138.04,99.4219,98.6006,0.00079145,0.0437588,21.0197,-317.18,0.0734696,0.0,0.0
7052,1762.75,48.6292,50.0812,138.3,99.4482,98.0094,0.000572532,0.0449054,21.017,-317.14,0.12908,0.0,0.0
7134,1783.25,47.795,49.6004,137.13,99.4359,99.037,0.000612976,0.0451701,21.0136,-317.16,0.0356001,0.0,0.0
7216,1803.75,47.8654,49.5581,138.036,99.4319,97.7454,0.0004292,0.0471238,21.012,-317.21,0.151517,0.0,0.0
7298,1824.25,45.7677,48.1317,140.896,99.4323,98.2293,0.000574298,0.0464186,21.0137,-317.17,0.107805,0.0,0.0
7380,1844.75,46.346,47.8666,136.678,99.4387,98.0103,0.000209794,0.0456098,21.0138,-317.2,0.128149,0.0,0.0
7462,1865.25,46.2225,48.1731,135.99,99.439,99.0546,0.000299883,0.0442925,21.0152,-317.13,0.0343129,0.0,0.0
7544,1885.75,46.7261,48.3738,138.016,99.4147,98.5187,0.000585243,0.0445334,21.0195,-317.2,0.0801864,0.0,0.0
7626,1906.25,46.0973,47.9516,138.369,99.3328,98.52,0.000429822,0.0438655,21.0187,-317.2,0.072769,0.0,0.0
7708,1926.75,46.3822,48.4352,138.505,99.1689,98.1612,,,,-317.15,0.0904649,0.0,0.0
7711,1927.5,46.2381,48.3633,135.942,99.1653,97.8191,,,,-317.15,0.121064,0.0,0.0

File: Mineral_Wool_Insulation_Cone_HF75Scan_220426_R2.csv
Names,Time,Stack TC,Smoke TC,Exh Press,Smoke Comp,Smoke Meas,CO Meter,CO2 Meter,O2 Meter,Sample Mass,Ext Coeff,Start Test,Flame Verif
Chan Gain,,500,500,1,1,1,1,1,1,1,1,1.0,1.0
Offset,,0,0,0.135223,0,0,0,0,0,0,0,0.0,0.0
Gain,,1,1,25.011,13.0939,14.0471,1,1,1,1.00088,1.00971,1.0,1.0
Units,sec,C,C,Pa,%,%,%,%,%,g,/m,,
Baseline,,44.9154,46.659,139.427,99.3024,97.9929,0.000792662,0.0451079,21.0124,-834.956,0.117661,,
31,7.5,42.6316,44.3989,138.969,99.4379,99.3135,0.0030612,0.0583035,20.9933,-308.062,0.0110847,0.0,0.0
62,15.25,43.6576,45.2973,139.295,99.4498,98.3331,0.00333233,0.0575823,20.9924,-308.162,0.100023,0.0,0.0
93,23,43.5592,45.7175,139.685,99.4558,98.6216,0.00309789,0.0555842,20.9954,-308.182,0.0746077,0.0,0.0
124,30.75,44.8407,45.9044,137.686,99.473,99.5304,0.00278549,0.0543285,20.998,-308.262,-0.00510755,0.0,0.0
155,38.5,44.7892,46.6709,135.076,99.493,98.9765,0.00276252,0.0535691,21.0004,-308.282,0.0460963,0.0,0.0
186,46.25,45.3359,46.8578,137.705,99.527,98.1466,0.00272409,0.0527076,21.0025,-308.342,0.1237,0.0,0.0
217,54,45.0021,47.0588,137.792,99.5661,98.5337,0.00261131,0.0522087,21.0029,-308.422,0.0923197,0.0,0.0
248,61.75,45.5432,47.252,139.534,99.5881,99.2089,0.0022806,0.0514678,21.005,-308.442,0.0337901,0.0,0.0
279,69.5,45.8662,47.7183,137.649,99.6081,98.6456,0.0020894,0.0508208,21.0046,-308.472,0.086,0.0,0.0
310,77.25,46.1303,47.7151,137.387,99.6249,98.2353,0.00219061,0.0507594,21.0077,-308.482,0.124404,0.0,0.0
341,85,46.2311,47.5742,135.023,99.672,98.8222,0.00191106,0.0509007,21.007,-308.522,0.0758389,0.0,0.0
372,92.75,45.9963,48.1004,139.581,99.6528,99.1116,0.00158486,0.0510821,21.0056,-308.552,0.0482378,0.0,0.0
403,100.5,46.6973,48.6567,136.964,99.6556,99.1497,0.00179726,0.0509762,21.0077,-308.572,0.0450774,0.0,0.0
434,108.25,46.4364,48.6214,136.174,99.6536,98.7952,0.00208985,0.0506735,21.0057,-308.592,0.0766261,0.0,0.0
465,116,46.5094,48.8144,139.478,99.6832,98.6889,0.00158393,0.0498283,21.0087,-308.602,0.0887904,0.0,0.0
496,123.75,46.5008,49.2044,136.137,99.6988,98.9718,0.00171836,0.0496856,21.0082,-308.612,0.0648193,0.0,0.0
527,131.5,46.8394,49.1973,133.698,99.7256,98.3768,0.00146546,0.049179,21.01,-308.592,0.120607,0.0,0.0
558,139.25,47.2556,49.1431,137.369,99.7491,99.0859,0.00152974,0.0482317,21.0124,-308.532,0.0590924,0.0,0.0
589,147,47.4548,49.0887,134.911,99.7747,98.1012,0.00146647,0.0475885,21.0124,-308.592,0.149823,0.0,0.0
620,154.75,46.9149,49.6579,135.616,99.8163,97.9734,0.00170086,0.0475836,21.0142,-308.612,0.165051,0.0,0.0
651,162.5,47.1812,49.4527,141.684,99.8706,99.3949,0.00165201,0.0474323,21.0158,-308.622,0.0422869,0.0,0.0
682,170.25,47.57,49.435,139.898,99.9042,98.5474,0.00132647,0.0475921,21.0119,-308.642,0.121109,0.0,0.0
713,178,47.3321,49.6699,132.653,99.9186,99.3448,0.00162245,0.0479919,21.0096,-308.632,0.0510096,0.0,0.0
744,185.75,47.2873,49.3156,138.539,99.9314,98.8436,0.00154117,0.0476648,21.0104,-308.652,0.0969339,0.0,0.0
775,193.5,47.245,49.3964,139.359,99.9497,99.1617,0.00138845,0.0477409,21.009,-308.692,0.0701056,0.0,0.0
806,201.25,47.1187,49.2673,140.169,99.9633,98.7356,0.00126283,0.0487822,21.0057,-308.732,0.109452,0.0,0.0
837,209,47.3909,49.2859,138.057,99.9721,98.7523,0.001078,0.049365,21.005,-308.772,0.108731,0.0,0.0
868,216.75,47.0496,49.5289,137.642,99.9757,99.247,0.0014524,0.049333,21.0049,-308.772,0.064792,0.0,0.0
899,224.5,47.9481,50.0171,136.094,99.9889,99.1163,0.00129957,0.0491542,21.0049,-308.782,0.0776351,0.0,0.0
930,232.25,47.604,49.7863,140.348,99.9817,98.8055,0.00107242,0.0494225,21.0049,-308.772,0.104814,0.0,0.0
961,240,47.4438,49.6898,137.285,99.9749,97.8915,0.00103464,0.0488231,21.0074,-308.802,0.186522,0.0,0.0
992,247.75,47.6432,49.8741,137.621,99.9797,98.4055,0.00127136,0.0480864,21.0103,-308.742,0.140564,0.0,0.0
1023,255.5,47.591,49.8354,137.384,99.9813,99.4237,0.000889761,0.0470696,21.0122,-308.762,0.0495388,0.0,0.0
1054,263.25,48.4568,50.2542,138.215,99.9833,98.3961,0.000902958,0.0462085,21.0134,-308.742,0.141731,0.0,0.0
1085,271,47.9213,50.1549,138.792,99.9869,99.0065,0.000705744,0.045972,21.0139,-308.742,0.0872704,0.0,0.0
1116,278.75,48.0058,49.8365,139.43,99.9841,98.9662,0.000836849,0.0456647,21.0133,-308.762,0.0906289,0.0,0.0
1147,286.5,48.0586,50.3823,137.834,99.9909,99.7975,0.00076364,0.0452582,21.0144,-308.712,0.0171504,0.0,0.0
1178,294.25,47.9763,49.9477,140.58,99.9721,99.7868,0.000731839,0.0448479,21.0149,-308.792,0.0164369,0.0,0.0
1209,302,48.1521,49.95,139.839,99.9889,98.3211,0.000707748,0.0449973,21.0152,-308.772,0.148982,0.0,0.0
1240,309.75,48.4235,50.2121,135.32,99.9837,99.0627,0.000463018,0.0450155,21.0165,-308.772,0.081965,0.0,0.0
1271,317.5,47.6727,49.9422,135.135,99.9837,98.9067,0.000719864,0.0454357,21.0162,-308.802,0.095927,0.0,0.0
1302,325.25,48.1385,50.5628,139.571,99.9941,99.0704,0.000706837,0.0453524,21.014,-308.842,0.0821952,0.0,0.0
1333,333,48.0304,50.2328,139.73,99.9677,98.4197,0.000678564,0.0457602,21.015,-308.832,0.138228,0.0,0.0
1364,340.75,48.4812,50.4668,138.736,99.9581,98.6743,0.000494283,0.0467343,21.0122,-308.822,0.114492,0.0,0.0
1395,348.5,47.8921,50.3763,138.562,99.9433,99.1497,0.000811318,0.0478084,21.0106,-308.842,0.0706115,0.0,0.0
1426,356.25,47.9995,50.2879,139.745,99.9318,99.4618,0.000797077,0.0477154,21.0107,-308.812,0.0417499,0.0,0.0
1457,364,47.8387,50.0949,136.368,99.9337,98.7528,0.000732115,0.046811,21.0109,-308.812,0.105293,0.0,0.0
1488,371.75,47.8609,50.3289,139.746,99.9381,99.6054,0.000534904,0.0457281,21.0122,-308.852,0.0295376,0.0,0.0
1519,379.5,47.8468,50.4716,136.172,99.9465,99.0486,0.000657336,0.0454177,21.0127,-308.862,0.0799374,0.0,0.0
1550,387.25,48.4508,50.6067,140.288,99.9593,99.0794,0.000579789,0.0453948,21.0127,-308.852,0.0783102,0.0,0.0
1581,395,48.1707,50.8276,136.907,99.9617,99.1412,0.000393451,0.0453378,21.0108,-308.862,0.0730067,0.0,0.0
1612,402.75,48.3213,50.7263,138.789,99.9589,98.8809,0.000571863,0.0451238,21.012,-308.772,0.0960357,0.0,0.0
1643,410.5,48.5176,50.453,139.747,99.9693,99.5398,0.000505382,0.0449758,21.0142,-308.792,0.0381341,0.0,0.0
1674,418.25,48.9195,50.1864,139.293,99.9705,98.7,0.000380869,0.0441499,21.0168,-308.792,0.113282,0.0,0.0
1705,426,48.4333,50.4057,135.184,99.9901,100.259,0.00025543,0.0438245,21.0191,-308.772,-0.0237641,0.0,0.0
1736,433.75,48.4715,50.7401,138.692,99.9881,99.6208,0.000302596,0.0436277,21.0198,-308.812,0.032591,0.0,0.0
1767,441.5,47.6969,50.4748,136.545,99.9941,98.9602,0.000641379,0.0437216,21.0196,-308.802,0.0920502,0.0,0.0
1798,449.25,48.2277,50.4758,133.265,99.9865,99.1304,0.000326759,0.0433849,21.0204,-308.852,0.0761592,0.0,0.0
1829,457,48.5531,50.7208,140.63,99.9757,99.5017,0.000692613,0.0435084,21.02,-308.802,0.0420956,0.0,0.0
1860,464.75,48.1333,50.5194,134.786,99.9729,98.6006,0.000531205,0.0439483,21.0176,-308.802,0.122423,0.0,0.0
1891,472.5,48.7696,50.5285,135.792,99.9609,98.5234,0.000401645,0.0448347,21.0145,-308.762,0.128295,0.0,0.0
1922,480.25,48.9652,50.8215,138.22,99.9585,99.6693,0.000486949,0.0446183,21.0144,-308.762,0.0256663,0.0,0.0
1953,488,48.6991,50.6313,140.587,99.9829,99.1416,0.000595639,0.0442959,21.0156,-308.772,0.0748444,0.0,0.0
1984,495.75,48.2255,50.7906,135.933,99.9869,98.9431,0.00074992,0.0443073,21.0162,-308.792,0.0929477,0.0,0.0
2015,503.5,48.2768,50.4333,139.589,99.9745,100.347,0.000737639,0.044504,21.0167,-308.842,-0.0329047,0.0,0.0
2046,511.25,48.5048,50.3588,137.496,99.9793,99.5814,0.000655419,0.0446541,21.0189,-308.782,0.0353193,0.0,0.0
2077,519,48.3429,50.6813,138.799,99.9893,99.1412,0.000743805,0.0451631,21.0182,-308.872,0.0754495,0.0,0.0
2108,526.75,48.6124,50.1138,139.223,99.9753,100.265,0.000736284,0.04549,21.016,-308.852,-0.0256419,0.0,0.0
2139,534.5,48.3419,50.55,135.566,99.9833,99.2505,0.000655415,0.0456578,21.015,-308.872,0.0651578,0.0,0.0
2170,542.25,48.1157,51.0676,137.372,99.9777,99.1124,6.35329e-05,0.0475368,21.0128,-308.862,0.0769893,0.0,0.0
2201,550,48.5356,50.6207,136.698,99.9617,99.725,0.000518539,0.0485805,21.009,-308.872,0.020998,0.0,0.0
2232,557.75,48.2239,50.2338,137.248,99.9333,98.8214,0.000448473,0.0486957,21.0065,-308.872,0.099109,0.0,0.0
2263,565.5,48.407,50.4064,138.277,99.9218,98.9521,0.000254016,0.0481543,21.008,-308.852,0.0863702,0.0,0.0
2294,573.25,48.4957,50.4846,135.613,99.9234,99.2762,0.000634949,0.0471443,21.0093,-308.852,0.0575516,0.0,0.0
2325,581,48.4168,50.3242,138.753,99.925,98.6263,0.000837981,0.0460652,21.0128,-308.792,0.115863,0.0,0.0
2356,588.75,48.2282,50.8275,138.283,99.9445,99.2972,0.000727082,0.0450773,21.015,-308.842,0.0575547,0.0,0.0
2387,596.5,48.7307,50.6851,139.272,99.9693,99.8202,7.92576e-05,0.0447119,21.0156,-308.872,0.013223,0.0,0.0
2418,604.25,46.9668,48.9363,135.77,99.9661,100.476,0.000446966,0.0445085,21.0163,-308.842,-0.0450676,0.0,0.0
2449,612,47.0439,48.3349,138.435,99.9633,98.4047,0.000459697,0.0441146,21.0166,-308.872,0.139189,0.0,0.0
2480,619.75,46.5641,48.863,138.566,99.9497,98.5543,0.000590943,0.0440993,21.0159,-308.872,0.12453,0.0,0.0
2511,627.5,46.8177,48.8806,135.104,99.9641,99.527,0.000665461,0.0447196,21.0161,-308.892,0.0388175,0.0,0.0
2542,635.25,46.7796,48.5122,137.124,99.9693,99.2929,0.000379447,0.0449621,21.0154,-308.832,0.0601318,0.0,0.0
2573,643,46.8698,48.9371,140.527,99.9717,99.4567,0.000400444,0.0448949,21.0153,-308.862,0.0457487,0.0,0.0
2604,650.75,47.1944,49.1843,136.342,99.9837,99.0867,0.000499283,0.044911,21.0145,-308.852,0.0798181,0.0,0.0
2635,658.5,47.015,49.3665,135.771,99.9721,99.1296,0.000340841,0.0449395,21.0145,-308.882,0.0749606,0.0,0.0
2666,666.25,47.0352,48.972,135.903,99.9405,99.2179,0.000492107,0.0451813,21.0133,-308.862,0.0642774,0.0,0.0
2697,674,46.8533,49.3041,138.047,99.9158,99.0305,0.000566226,0.0446998,21.015,-308.842,0.0788209,0.0,0.0
2728,681.75,46.5044,48.8196,136.906,99.8518,99.0683,0.000587204,0.044666,21.0152,-308.862,0.0697767,0.0,0.0
2759,689.5,46.5158,48.8799,136.068,99.7703,99.2552,0.000704023,0.0444613,21.0152,-308.852,0.0458495,0.0,0.0
2790,697.25,46.4992,48.8041,136.787,99.6345,98.3652,0.000619517,0.0445491,21.0177,-308.862,0.113553,0.0,0.0
2821,705,46.4737,48.7387,137.679,99.4962,98.3245,0.000427425,0.0437772,21.0174,-308.852,0.104922,0.0,0.0
2852,712.75,47.02,48.8147,138.306,99.3384,97.9511,,0.0439249,,-308.842,0.124558,0.0,0.0
2883,720.5,46.8054,48.9737,137.874,99.2233,99.5797,,,,-308.872,-0.0317587,0.0,0.0
2885,721,46.7822,49.4008,138.537,99.2229,97.958,,,,-308.862,0.113635,0.0,0.0