Folder: fsri_materials_database/01_Data/Mineral_Wool_Insulation/Cone (part 2)

File: Mineral_Wool_Insulation_Cone_HF50Scan_220426_R2.csv
Names,Time,Stack TC,Smoke TC,Exh Press,Smoke Comp,Smoke Meas,CO Meter,CO2 Meter,O2 Meter,Sample Mass,Ext Coeff,Start Test,Flame Verif
Chan Gain,,500,500,1,1,1,1,1,1,1,1,1.0,1.0
Offset,,0,0,0.135223,0,0,0,0,0,0,0,0.0,0.0
Gain,,1,1,25.011,13.0939,14.0471,1,1,1,1.00088,1.00971,1.0,1.0
Units,sec,C,C,Pa,%,%,%,%,%,g,/m,,
Baseline,,33.3652,34.5397,144.685,99.0611,96.0695,0.000785869,0.0467779,21.0097,-834.385,0.271624,,
31,7.5,33.103,34.4593,142.093,98.7502,96.0696,0.00168663,0.05477,21.0006,-318.821,0.243744,0.0,0.0
62,15.25,33.8549,34.8697,141.764,98.7741,95.8137,0.00227428,0.0546424,21.0007,-318.901,0.26952,0.0,0.0
93,23,34.4437,35.125,145.535,98.7697,96.0726,0.00238941,0.0520807,21.0048,-318.931,0.245222,0.0,0.0
124,30.75,34.4431,35.8146,146.256,98.7701,95.8956,0.00208462,0.0506097,21.0054,-318.951,0.261596,0.0,0.0
155,38.5,35.0825,36.176,146.339,98.7773,96.0735,0.00186267,0.049795,21.0061,-318.951,0.245824,0.0,0.0
186,46.25,35.198,36.4128,142.974,98.7917,95.7211,0.00208475,0.0493141,21.0082,-319.001,0.27966,0.0,0.0
217,54,34.9654,36.3166,142.697,98.7949,96.0461,0.00172259,0.049031,21.0107,-319.031,0.249931,0.0,0.0
248,61.75,35.3529,36.4627,143.674,98.7833,95.9084,0.00179175,0.049496,21.0117,-319.041,0.261591,0.0,0.0
279,69.5,35.5886,36.8119,141.394,98.7917,96.0023,0.00199775,0.0491084,21.0119,-319.081,0.253677,0.0,0.0
310,77.25,35.8502,37.0523,144.141,98.7749,95.9007,0.00148074,0.0489376,21.0115,-319.132,0.261551,0.0,0.0
341,85,35.4871,37.4325,142.632,98.7689,96.0962,0.00142175,0.0490243,21.0103,-319.142,0.242978,0.0,0.0
372,92.75,35.6534,37.287,144.871,98.7462,95.9745,0.00134641,0.0497354,21.0076,-319.152,0.252163,0.0,0.0
403,100.5,36.1112,37.7759,147.292,98.7925,95.7061,0.0016524,0.0494835,21.0084,-319.182,0.28112,0.0,0.0
434,108.25,36.2555,37.7463,140.468,98.8676,95.9959,0.00143563,0.049427,21.0089,-319.182,0.261075,0.0,0.0
465,116,36.4067,37.5975,143.602,98.8516,96.4923,0.00160237,0.0488574,21.0089,-319.202,0.213958,0.0,0.0
496,123.75,36.0625,38.1105,141.697,98.7641,96.0036,0.00148527,0.0483708,21.0111,-319.202,0.251087,0.0,0.0
527,131.5,36.4413,37.8553,144.899,98.7394,96.0988,0.00131108,0.0480203,21.012,-319.242,0.240089,0.0,0.0
558,139.25,36.4775,38.1997,145.38,98.7753,96.26,0.00132513,0.0479453,21.0124,-319.242,0.22847,0.0,0.0
589,147,36.6174,38.2828,138.831,98.7829,96.2072,0.00142421,0.0488764,21.0099,-319.252,0.234004,0.0,0.0
620,154.75,36.4812,37.5446,139.324,98.8117,96.1378,0.00132343,0.0483614,21.0112,-319.262,0.24298,0.0,0.0
651,162.5,36.3897,38.1074,141.917,98.7949,96.1322,0.00118788,0.0477569,21.0111,-319.282,0.241989,0.0,0.0
682,170.25,36.7983,38.5233,148.787,98.7889,95.9655,0.00131462,0.0477825,21.0144,-319.282,0.256828,0.0,0.0
713,178,36.7244,38.5034,145.454,98.7749,96.1404,0.00101921,0.0480889,21.0153,-319.282,0.239447,0.0,0.0
744,185.75,36.7166,38.0808,144.077,98.7745,96.0491,0.000834396,0.0482126,21.0143,-319.282,0.247828,0.0,0.0
775,193.5,37.1607,38.3136,144.109,98.7993,95.6877,0.00124061,0.0485896,21.0101,-319.302,0.283435,0.0,0.0
806,201.25,36.654,38.1052,144.505,98.872,96.0778,0.00105034,0.0484701,21.0102,-319.292,0.253917,0.0,0.0
837,209,36.8917,37.9131,141.214,98.938,96.2102,0.000795972,0.0484646,21.0091,-319.292,0.247618,0.0,0.0
868,216.75,36.9368,38.6466,143.622,98.9919,96.0083,0.000706849,0.0488934,21.0066,-319.312,0.271054,0.0,0.0
899,224.5,36.9433,38.4464,144.631,99.0754,96.0152,0.00109941,0.0484872,21.0064,-319.322,0.277891,0.0,0.0
930,232.25,37.1977,38.7204,143.717,99.1553,96.5382,0.000770524,0.0483511,21.009,-319.322,0.236919,0.0,0.0
961,240,37.0731,38.6334,142.284,99.2624,96.5056,0.00072671,0.0476418,21.0108,-319.302,0.249469,0.0,0.0
992,247.75,36.5981,38.5974,142.068,99.3647,97.0093,0.000822946,0.0474871,21.0119,-319.302,0.212484,0.0,0.0
1023,255.5,36.8382,38.8088,146.615,99.453,96.3826,0.000621193,0.0473954,21.0134,-319.302,0.277759,0.0,0.0
1054,263.25,36.5392,38.4696,147.798,99.5134,96.7547,0.00093473,0.0471568,21.0139,-319.322,0.249003,0.0,0.0
1085,271,37.2809,38.2886,143.619,99.5485,96.3903,0.000945334,0.0467293,21.0139,-319.322,0.285552,0.0,0.0
1116,278.75,37.2573,38.7231,143.226,99.5905,97.1499,0.00084504,0.0466066,21.0139,-319.312,0.219757,0.0,0.0
1147,286.5,36.8226,38.6286,142.611,99.5881,96.4966,0.000468213,0.0463918,21.013,-319.302,0.279306,0.0,0.0
1178,294.25,37.033,38.6786,143.006,99.5865,96.9995,0.000391045,0.0460158,21.0129,-319.342,0.23313,0.0,0.0
1209,302,37.4641,38.159,148.412,99.5841,96.8335,0.000490886,0.046347,21.0129,-319.342,0.248078,0.0,0.0
1240,309.75,36.9255,38.8435,145.933,99.5737,96.3821,0.000478018,0.0468785,21.0113,-319.332,0.288539,0.0,0.0
1271,317.5,37.2658,38.8124,142.54,99.5661,96.7731,0.000688115,0.0472406,21.0104,-319.352,0.252009,0.0,0.0
1302,325.25,37.5516,38.7431,144.096,99.511,96.9892,0.00058204,0.0472313,21.0111,-319.322,0.227351,0.0,0.0
1333,333,36.7213,38.7919,141.114,99.4474,96.5755,0.000729315,0.0471518,21.0116,-319.342,0.259551,0.0,0.0
1364,340.75,37.4399,38.9862,142.127,99.3931,96.81,0.000494986,0.0472006,21.0094,-319.352,0.23323,0.0,0.0
1395,348.5,37.3856,37.8109,139.677,99.3236,96.3136,0.000574117,0.0467152,21.0092,-319.352,0.272567,0.0,0.0
1426,356.25,37.1635,38.6725,140.911,99.258,97.1499,0.00086727,0.0460588,21.0138,-319.342,0.19014,0.0,0.0
1457,364,37.2332,38.6121,140.826,99.1881,96.6719,0.000504139,0.0455922,21.0145,-319.332,0.227582,0.0,0.0
1488,371.75,37.2468,38.744,144.916,99.1162,96.4289,0.000653371,0.0451659,21.0145,-319.332,0.243455,0.0,0.0
1519,379.5,37.4126,39.1351,139.037,99.0367,96.395,0.000465468,0.0452852,21.0165,-319.352,0.239457,0.0,0.0
1550,387.25,37.8437,38.7597,144.715,98.9691,96.1777,0.00047725,0.0454952,21.0172,-319.352,0.253408,0.0,0.0
1581,395,37.3611,38.5527,141.641,98.8688,96.215,0.000924417,0.0452375,21.0177,-319.332,0.240994,0.0,0.0
1612,402.75,37.5475,38.7973,143.735,98.7797,96.0469,0.00038366,0.0452633,21.0159,-319.342,0.248491,0.0,0.0
1643,410.5,37.2103,39.4642,140.178,98.6814,95.7747,0.000348163,0.0448063,21.0147,-319.322,0.26481,0.0,0.0
1674,418.25,37.6781,38.9531,143.037,98.6027,95.8793,0.000515747,0.0447983,21.0168,-319.292,0.248074,0.0,0.0
1705,426,37.0769,38.7295,147.842,98.5555,95.4236,0.000462532,0.0450631,21.0145,-319.342,0.286033,0.0,0.0
1736,433.75,37.4978,38.9138,141.078,98.4916,95.8291,0.000594288,0.045547,21.0122,-319.302,0.242724,0.0,0.0
1767,441.5,37.5632,38.7174,143.293,98.4824,95.8729,0.000445481,0.0454147,21.0131,-319.322,0.237857,0.0,0.0
1798,449.25,37.5942,38.8787,145.697,98.4828,95.746,0.000795769,0.0453022,21.0152,-319.332,0.249624,0.0,0.0
1829,457,37.5114,39.4376,145.238,98.504,96.1335,0.000872554,0.0449428,21.017,-319.342,0.215752,0.0,0.0
1860,464.75,37.2545,39.0537,144.796,98.5264,96.0328,0.000445009,0.0454592,21.0172,-319.292,0.227049,0.0,0.0
1891,472.5,37.2772,38.804,142.503,98.5536,95.9989,0.000606539,0.0456916,21.015,-319.302,0.232616,0.0,0.0
1922,480.25,37.8712,39.0653,144.053,98.5759,96.0409,0.000575613,0.0450455,21.0154,-319.352,0.230751,0.0,0.0
1953,488,37.3898,38.6935,140.104,98.6239,96.2145,0.000541906,0.0448872,21.0178,-319.332,0.219063,0.0,0.0
1984,495.75,37.1724,38.4329,141.543,98.6606,96.0924,0.000537882,0.045075,21.0163,-319.322,0.233618,0.0,0.0
2015,503.5,37.4894,38.7332,146.551,98.7374,96.0705,0.000700831,0.0448854,21.0172,-319.342,0.242518,0.0,0.0
2046,511.25,37.0305,39.0378,142.765,98.7761,95.5797,0.000608454,0.0446866,21.0174,-319.322,0.291362,0.0,0.0
2077,519,37.3738,38.3738,138.863,98.8365,96.5159,0.00077493,0.0448162,21.0169,-319.342,0.210435,0.0,0.0
2108,526.75,37.2584,38.4273,141.751,98.9132,96.5665,0.000391154,0.0458542,21.0121,-319.362,0.212666,0.0,0.0
2139,534.5,37.0268,38.5565,140.675,98.9839,95.7953,0.000754675,0.0462972,21.0099,-319.362,0.290016,0.0,0.0
2170,542.25,36.9793,38.732,141.866,99.0522,96.6496,0.000498837,0.0464666,21.0104,-319.372,0.217486,0.0,0.0
2201,550,36.6476,38.351,144.171,99.0974,96.6089,0.000580483,0.0472843,21.0093,-319.382,0.225254,0.0,0.0
2232,557.75,36.6782,38.3624,143.634,99.1234,96.0028,0.000470472,0.0480149,21.0067,-319.362,0.283323,0.0,0.0
2263,565.5,37.4764,38.5614,143.21,99.1441,96.3286,0.000673049,0.0484483,21.0053,-319.352,0.255173,0.0,0.0
2294,573.25,36.3634,38.3726,141.12,99.1801,96.3509,0.00080366,0.0482806,21.0052,-319.352,0.256335,0.0,0.0
2325,581,36.3576,37.9043,142.391,99.1689,96.7131,0.000919122,0.0510798,21.003,-319.362,0.2221,0.0,0.0
2356,588.75,36.6925,38.3673,141.779,99.2205,96.2754,0.000585557,0.0498225,21.0083,-319.382,0.266877,0.0,0.0
2387,596.5,36.7287,38.0952,145.141,99.2121,96.1982,0.000509398,0.0485091,21.0088,-319.382,0.27323,0.0,0.0
2418,604.25,34.8773,36.235,138.211,99.2245,96.6989,0.000618199,0.0477625,21.0088,-319.362,0.228355,0.0,0.0
2449,612,34.533,36.2257,138.747,99.2009,96.5811,0.000454216,0.04803,21.006,-319.352,0.237055,0.0,0.0
2480,619.75,34.3053,36.1959,147.034,99.2013,96.1044,0.000578397,0.0480035,21.0049,-319.322,0.280914,0.0,0.0
2511,627.5,34.53,35.7291,143.703,99.2041,96.6578,0.00044435,0.0472082,21.0076,-319.342,0.230306,0.0,0.0
2542,635.25,34.7443,35.9341,143.19,99.1873,96.4344,0.00066548,0.045834,21.013,-319.352,0.249297,0.0,0.0
2573,643,34.5585,36.2647,143.981,99.2129,96.6089,0.000752295,0.045184,21.0146,-319.312,0.23557,0.0,0.0
2604,650.75,34.6525,36.2466,139.972,99.2149,96.377,0.000588052,0.0452477,21.0133,-319.342,0.257036,0.0,0.0
2635,658.5,34.2595,36.2673,143.216,99.2588,96.7037,0.00041772,0.045469,21.0116,-319.372,0.23099,0.0,0.0
2666,666.25,34.2961,36.3349,144.064,99.3108,96.7534,0.000666855,0.0457239,21.0101,-319.342,0.231071,0.0,0.0
2697,674,34.529,36.0725,142.766,99.3835,96.7851,0.000630156,0.0454206,21.0122,-319.352,0.234651,0.0,0.0
2728,681.75,34.2139,36.3108,143.47,99.4199,96.9184,0.000649308,0.0447455,21.0149,-319.362,0.225699,0.0,0.0
2759,689.5,34.6959,36.1822,145.276,99.4482,96.5656,0.00064517,0.0445772,21.0154,-319.342,0.260527,0.0,0.0
2790,697.25,34.5175,35.8513,146.171,99.4574,96.7697,0.00020228,0.0445488,21.0137,-319.382,0.242649,0.0,0.0
2821,705,34.3705,35.8527,144.564,99.475,96.5875,-4.99547e-06,0.0452665,21.0155,-319.362,0.260905,0.0,0.0
2852,712.75,34.2496,35.7496,141.886,99.473,96.8824,,0.0457884,,-319.352,0.233724,0.0,0.0
2883,720.5,34.316,35.8072,141.061,99.4802,96.7122,,,,-319.322,0.249936,0.0,0.0
2885,721,34.7329,35.9229,141.836,99.4934,96.957,,,,-319.322,0.228721,0.0,0.0

File: Mineral_Wool_Insulation_Cone_HF50Scan_220426_R3.csv
Names,Time,Stack TC,Smoke TC,Exh Press,Smoke Comp,Smoke Meas,CO Meter,CO2 Meter,O2 Meter,Sample Mass,Ext Coeff,Start Test,Flame Verif
Chan Gain,,500,500,1,1,1,1,1,1,1,1,1.0,1.0
Offset,,0,0,0.135223,0,0,0,0,0,0,0,0.0,0.0
Gain,,1,1,25.011,13.0939,14.0471,1,1,1,1.00088,1.00971,1.0,1.0
Units,sec,C,C,Pa,%,%,%,%,%,g,/m,,
Baseline,,34.9574,36.0627,144.942,99.0858,96.0058,0.000688556,0.0478473,21.009,-834.454,0.279698,,
31,7.5,32.0751,32.7379,143.799,99.3312,96.8949,0.00143563,0.0511069,21.0035,-312.706,0.219948,0.0,0.0
62,15.25,32.2299,33.3263,146.685,99.3971,96.7701,0.00182388,0.053626,21.0008,-312.786,0.237235,0.0,0.0
93,23,32.3768,33.401,146.646,99.4466,96.3226,0.001941,0.0522812,21.0028,-312.856,0.282707,0.0,0.0
124,30.75,32.405,33.7848,143.693,99.4994,96.4147,0.00206684,0.0520283,21.0044,-312.896,0.278933,0.0,0.0
155,38.5,33.2843,34.4397,140.807,99.5206,96.9,0.00164966,0.0516941,21.0051,-312.916,0.236351,0.0,0.0
186,46.25,33.3809,34.2842,146.059,99.5793,96.422,0.00181007,0.0514638,21.0052,-312.926,0.285374,0.0,0.0
217,54,33.9553,35.4801,143.734,99.5829,96.4897,0.00155148,0.0512752,21.0039,-312.966,0.279475,0.0,0.0
248,61.75,33.9124,35.2558,141.235,99.6093,96.7345,0.00141585,0.0509838,21.0037,-313.006,0.25938,0.0,0.0
279,69.5,33.863,35.1721,143.526,99.6313,96.6389,0.00151034,0.0511369,21.0029,-313.016,0.27009,0.0,0.0
310,77.25,34.4826,35.6037,146.199,99.6325,96.7662,0.00130663,0.0509048,21.0053,-313.016,0.258536,0.0,0.0
341,85,34.4885,36.0006,142.932,99.6436,97.0989,0.00141477,0.0503728,21.0064,-312.986,0.229134,0.0,0.0
372,92.75,34.8524,36.3475,142.656,99.6544,97.1345,0.0015028,0.0497088,21.0078,-313.036,0.226849,0.0,0.0
403,100.5,34.5406,35.8054,144.33,99.6736,96.6711,0.00154175,0.0496926,21.0101,-313.046,0.270909,0.0,0.0
434,108.25,33.4797,35.8532,142.136,99.6888,96.9446,0.00140328,0.0497008,21.0105,-313.056,0.247235,0.0,0.0
465,116,34.926,36.1096,140.334,99.6884,97.1645,0.00145111,0.0501579,21.0097,-313.066,0.227132,0.0,0.0
496,123.75,35.0644,36.2957,143.924,99.6808,96.9849,0.00159838,0.0503373,21.0082,-313.116,0.242845,0.0,0.0
527,131.5,35.5872,36.4123,142.875,99.6496,96.7199,0.00154987,0.0502943,21.0082,-313.116,0.264301,0.0,0.0
558,139.25,35.3043,37.0847,141.326,99.6412,96.8738,0.00141924,0.0499969,21.0089,-313.126,0.249473,0.0,0.0
589,147,35.7241,37.3363,146.293,99.6241,96.7268,0.00128838,0.0502091,21.0087,-313.136,0.261401,0.0,0.0
620,154.75,35.6018,37.3879,147.557,99.6241,96.7894,0.00130251,0.0501063,21.008,-313.156,0.25567,0.0,0.0
651,162.5,35.9871,37.2505,142.659,99.6157,96.5103,0.000999531,0.0494855,21.008,-313.156,0.2805,0.0,0.0
682,170.25,35.8171,37.6072,142.913,99.5973,96.78125,0.00104248,0.0491032,21.0087,-313.156,0.254036,0.0,0.0
713,178,35.6661,37.1648,142.347,99.5921,96.7628,0.000815221,0.0492474,21.0073,-313.156,0.255261,0.0,0.0
744,185.75,35.526,37.6743,145.457,99.5965,96.6505,0.00106951,0.0500213,21.0047,-313.156,0.265938,0.0,0.0
775,193.5,35.9471,37.927,144.279,99.5889,96.945,0.00106121,0.0497247,21.0076,-313.166,0.238316,0.0,0.0
806,201.25,35.7006,37.3144,147.246,99.5913,96.6278,0.000716116,0.0493526,21.0078,-313.146,0.267558,0.0,0.0
837,209,35.5825,37.7366,144.348,99.6081,96.5793,0.000969851,0.0492459,21.0078,-313.156,0.273493,0.0,0.0
868,216.75,35.8709,37.2497,139.527,99.6181,97.3214,0.000848342,0.0486856,21.0122,-313.156,0.206589,0.0,0.0
899,224.5,35.9231,37.399,141.092,99.6245,96.7079,0.00084624,0.0480895,21.0124,-313.146,0.263164,0.0,0.0
930,232.25,36.0145,37.3901,143.637,99.6125,97.2189,0.000711249,0.0477546,21.0143,-313.146,0.215421,0.0,0.0
961,240,35.8557,37.5277,142.115,99.6057,96.9352,0.000465033,0.0475579,21.0119,-313.176,0.240709,0.0,0.0
992,247.75,35.5703,37.5703,143.264,99.5761,97.0659,0.000613194,0.046888,21.013,-313.176,0.22614,0.0,0.0
1023,255.5,35.9025,37.5802,146.005,99.5461,96.8486,0.00072489,0.04669,21.0139,-313.186,0.243328,0.0,0.0
1054,263.25,35.8794,37.9208,143.681,99.469,96.8391,0.000768818,0.046643,21.0116,-313.186,0.237327,0.0,0.0
1085,271,36.0212,38.0563,141.655,99.3763,97.0239,0.000826165,0.0466864,21.0106,-313.206,0.212185,0.0,0.0
1116,278.75,36.2769,37.9244,143.948,99.2824,96.6548,0.000882957,0.0469587,21.0104,-313.176,0.237571,0.0,0.0
1147,286.5,36.3443,37.4892,143.802,99.2005,96.4966,0.000571743,0.0474682,21.0112,-313.206,0.244766,0.0,0.0
1178,294.25,36.0199,37.9041,142.992,99.141,96.7268,0.00111195,0.0475464,21.0095,-313.206,0.218345,0.0,0.0
1209,302,36.1769,37.7048,141.885,99.1266,96.3736,0.000427191,0.0475221,21.0098,-313.196,0.249464,0.0,0.0
1240,309.75,36.3481,37.8071,144.593,99.1398,96.792,0.000781986,0.0477812,21.0107,-313.216,0.212273,0.0,0.0
1271,317.5,36.5806,37.649,145.085,99.1745,96.3719,0.000808787,0.0479157,21.0108,-313.216,0.253906,0.0,0.0
1302,325.25,35.9126,37.4901,144.14,99.1897,96.4743,0.000439498,0.0473578,21.011,-313.206,0.24585,0.0,0.0
1333,333,36.2358,37.4003,145.424,99.1837,96.1026,0.000544618,0.0463945,21.0131,-313.176,0.279502,0.0,0.0
1364,340.75,35.8267,37.1158,140.323,99.1805,96.3221,0.00059424,0.0463283,21.0158,-313.256,0.259012,0.0,0.0
1395,348.5,36.3846,38.1606,140.673,99.1478,96.1091,0.000847418,0.0467145,21.0149,-313.136,0.275698,0.0,0.0
1426,356.25,36.1188,37.2759,140.72,99.1697,96.6458,0.000518626,0.0470957,21.0169,-313.176,0.228338,0.0,0.0
1457,364,36.2607,37.7169,144.141,99.1697,96.3136,0.000710285,0.0467292,21.016,-313.156,0.258836,0.0,0.0
1488,371.75,36.0059,37.3816,142.785,99.1637,96.8357,0.000947646,0.0464763,21.0153,-313.166,0.210415,0.0,0.0
1519,379.5,36.1999,37.5469,142.552,99.1721,96.1258,0.000705409,0.0457344,21.0157,-313.186,0.276334,0.0,0.0
1550,387.25,35.8378,37.3199,142.442,99.2053,96.6385,0.000738643,0.0456016,21.0152,-313.206,0.232181,0.0,0.0
1581,395,37.1132,37.8105,140.634,99.2457,96.9201,0.000584756,0.0454809,21.0187,-313.196,0.210008,0.0,0.0
1612,402.75,36.5668,38.1213,142.787,99.3136,96.8494,0.000266725,0.0455231,21.0176,-313.216,0.222534,0.0,0.0
1643,410.5,36.0015,38.1295,146.049,99.3807,96.8546,0.000390154,0.0456741,21.0174,-313.226,0.228049,0.0,0.0
1674,418.25,36.0692,38.0057,146.992,99.4782,97.1868,0.00015457,0.046643,21.0157,-313.226,0.206405,0.0,0.0
1705,426,36.8948,37.5742,144.364,99.5374,96.6068,0.000639556,0.050552,21.0026,-313.216,0.264687,0.0,0.0
1736,433.75,36.1365,38.0463,144.325,99.5945,97.2159,0.000528415,0.0527388,20.9975,-313.206,0.214095,0.0,0.0
1767,441.5,35.929,37.5982,142.029,99.6257,96.7212,0.000628532,0.0538994,20.9933,-313.206,0.262053,0.0,0.0
1798,449.25,35.799,37.9828,140.807,99.6396,96.9051,0.000557512,0.0527282,20.9944,-313.236,0.246471,0.0,0.0
1829,457,35.8238,37.6113,143.928,99.66,96.8091,0.000610421,0.0497904,21.0027,-313.206,0.257064,0.0,0.0
1860,464.75,36.3634,37.7807,145.795,99.67,97.098,0.000503881,0.0478912,21.0086,-313.256,0.231556,0.0,0.0
1891,472.5,36.2369,37.626,142.678,99.668,96.744,0.000523497,0.0468257,21.012,-313.246,0.263738,0.0,0.0
1922,480.25,36.0606,37.4454,143.518,99.648,96.5416,0.00074045,0.0460164,21.0141,-313.216,0.280505,0.0,0.0
1953,488,35.7316,37.337,144.554,99.6329,96.8593,0.000586298,0.0451691,21.0169,-313.226,0.250061,0.0,0.0
1984,495.75,35.9608,37.3039,143.865,99.6013,97.3947,0.000463508,0.0449254,21.0163,-313.226,0.198428,0.0,0.0
2015,503.5,36.3539,37.8446,143.923,99.5717,96.8241,0.000330046,0.0448717,21.0165,-313.216,0.247839,0.0,0.0
2046,511.25,36.3324,38.076,140.785,99.5258,96.8297,0.000307118,0.0447023,21.0164,-313.246,0.243241,0.0,0.0
2077,519,36.1363,37.8308,138.746,99.5054,96.9493,0.000391364,0.0450765,21.0152,-313.226,0.230494,0.0,0.0
2108,526.75,36.1836,37.9932,143.422,99.4806,96.5558,0.000224798,0.0453868,21.0124,-313.226,0.264314,0.0,0.0
2139,534.5,36.1751,37.7393,147.697,99.4538,96.6059,0.000755771,0.0456682,21.014,-313.226,0.25733,0.0,0.0
2170,542.25,36.4081,37.8538,144.603,99.4398,97.1478,0.000800281,0.0457903,21.0162,-313.216,0.206544,0.0,0.0
2201,550,36.4072,38.0475,145.227,99.4435,96.8447,0.00032184,0.0456491,21.0159,-313.226,0.23454,0.0,0.0
2232,557.75,36.014,37.8523,141.661,99.4498,96.7881,0.000726054,0.0455154,21.0153,-313.196,0.240286,0.0,0.0
2263,565.5,36.3484,38.1443,145.382,99.4798,96.4816,0.000472196,0.0453231,21.0173,-313.246,0.271048,0.0,0.0
2294,573.25,36.2171,37.7752,137.975,99.5042,96.6214,0.000266022,0.0452583,21.0165,-313.236,0.260398,0.0,0.0
2325,581,36.6589,37.9578,142.01,99.487,96.7808,8.30462e-05,0.0454856,21.0154,-313.226,0.244262,0.0,0.0
2356,588.75,36.4005,37.6055,142.581,99.4894,96.5596,0.00022712,0.0458934,21.0132,-313.236,0.264742,0.0,0.0
2387,596.5,36.5234,37.7103,142.735,99.5082,96.8134,0.000528064,0.0458804,21.0144,-313.236,0.243166,0.0,0.0
2418,604.25,34.5376,36.6046,146.131,99.5298,97.2138,0.000687209,0.0456369,21.014,-313.206,0.208532,0.0,0.0
2449,612,34.5941,36.1361,143.89,99.5206,96.8764,0.000394069,0.0456325,21.0119,-313.216,0.238505,0.0,0.0
2480,619.75,34.2115,36.3254,144.398,99.5397,96.6372,0.000540497,0.0463771,21.0116,-313.226,0.262109,0.0,0.0
2511,627.5,34.6646,36.5831,142.901,99.5521,97.3441,0.000642718,0.0463689,21.0123,-313.236,0.198659,0.0,0.0
2542,635.25,34.3989,36.3031,143.051,99.5497,96.7354,0.000751721,0.0466011,21.0108,-313.226,0.254005,0.0,0.0
2573,643,34.2856,36.1688,143.558,99.5517,97.3025,0.000329131,0.0462525,21.0126,-313.246,0.202407,0.0,0.0
2604,650.75,34.549,35.9038,144.238,99.5505,96.927,0.000458474,0.0462789,21.012,-313.236,0.236548,0.0,0.0
2635,658.5,34.869,36.3283,142.256,99.5441,96.8691,0.000245924,0.046201,21.013,-313.256,0.24127,0.0,0.0
2666,666.25,34.9696,36.2777,143.355,99.5437,96.8979,0.000416159,0.0467458,21.012,-313.236,0.238609,0.0,0.0
2697,674,34.2002,35.3174,142.57,99.5401,97.5623,0.000603058,0.0472117,21.01,-313.236,0.177759,0.0,0.0
2728,681.75,34.6981,35.8357,145.466,99.5354,96.8846,0.000446749,0.0472788,21.0094,-313.226,0.239077,0.0,0.0
2759,689.5,34.4194,36.0916,141.017,99.5577,96.888,0.000324369,0.0483253,21.0072,-313.246,0.240754,0.0,0.0
2790,697.25,34.3264,36.1949,142.427,99.5406,96.7851,0.000418459,0.0486003,21.0047,-313.236,0.248636,0.0,0.0
2821,705,34.6049,36.0615,144.845,99.5342,96.5798,0.000689468,0.0486633,21.0041,-313.246,0.266878,0.0,0.0
2852,712.75,34.3583,35.8032,145.388,99.5138,96.7997,,0.048789,,-313.256,0.244919,0.0,0.0
2883,720.5,34.7966,36.1391,139.647,99.521,97.071,,,,-313.266,0.220765,0.0,0.0
2885,721,34.5326,35.9174,141.393,99.5481,96.7791,,,,-313.226,0.24986,0.0,0.0

File: Mineral_Wool_Insulation_Cone_HF75Scalar_220426_R3.csv
LABORATORY,FSRI
TEST IDENT,Cellulose_Ins_HF75_3
OPERATOR,Dow
MATERIAL,cellulose insulation
ORIENTATION,Horizontal
HEAT FLUX,75
SURF AREA,0.01
C FACTOR,0.0394783
SPEC HOLDER DIFF,-566
SPECIMEN MASS,22.4
SCAN TIME,0.25
O2 DELAY TIME,11
CO DELAY TIME,11
CO2 DELAY TIME,8
FLOW FACTOR,1
SCAN COUNT,2924
TIME TO IGN,0
END OF TEST SCAN,2444
END OF TEST TIME,611
TEST STATUS,1
PRE TEST CMT,Dimensions: 98.4 x 99.6 x 35.7 mm
POST TEST CMT,No ignition. Test ended after 10 minutes. No mass loss after 10 minutes in replicate R1.