Folder: fsri_materials_database/01_Data/Mineral_Wool_Insulation/HFM

Note: 01_Data/README.md
# Materials and Products Database
## 01_Data

Raw data generated from each apparatus are included here in plain-text format. The data is organized first by material, next by the short name of test apparatus used, and where applicable additional filtering by test settings.

### material.json

Each material directory contains a json file of the same name as the material. This file links the data stored in the repository as well as data and graphs produced by the accompanying scripts (__02_Scripts__) to the respective landing page for the material on the front-end website.

File: Mineral_Wool_Insulation_Density_Wet_R1.csv
,Mineral_Wool_Insulation_WET_1
Sample Mass [g],80.0
Sample Volume [cm3],1615.9
Sample Density [kg/m3],50

File: Mineral_Wool_Insulation_Density_Wet_R2.csv
,Mineral_Wool_Insulation_WET_2
Sample Mass [g],86.2
Sample Volume [cm3],1600.7
Sample Density [kg/m3],54

File: Mineral_Wool_Insulation_Density_Wet_R3.csv
,Mineral_Wool_Insulation_WET_3
Sample Mass [g],99.6
Sample Volume [cm3],1673.0
Sample Density [kg/m3],60