Folder: fsri_materials_database/01_Data/Mineral_Wool_Insulation/MCC (part 2)

File: Mineral_Wool_Insulation_MCC_30K_min_211112_R3.txt
Sample ID:	C:\MCC\MCC Cal\Test\Mineral_Wool_Insulation_MCC_30K_min_211112_R3.txt
Sample Weight (mg):	4.38
Heating Rate (C/s):	0.5
Combustor Temp (C):	900
N2 Flow Rate (cc/min):	80
O2 Flow Rate (cc/min):	20
Calibration File:	C:\MCC\MCC Cal\Coeff1 JN10440_30_210304.txt.txt
T Correction Coefficients:	0	1.024463	0
Time Shift (s):	14
*
Time (s)	Temperature (C)	N2 flow rate (cc/min)	O2 flow rate (cc/min)	Flow Rate (cc/min)	Oxygen (%)	HRR (W/g)	Heating rate (C/s)
0.000	107.055	80.002	19.994	102.991	20.018	-0.148	0.021
8.000	107.025	80.000	19.994	102.994	20.013	0.226	-0.028
16.000	107.050	79.999	19.995	103.016	20.007	0.667	-0.012
24.000	107.180	80.000	19.997	103.068	20.002	1.034	0.032
32.000	107.619	80.000	19.996	103.121	19.992	1.806	0.086
40.000	108.425	80.000	19.996	103.188	19.983	2.460	0.105
48.000	109.804	79.999	19.997	103.226	19.973	3.188	0.186
56.000	111.578	80.001	19.997	103.230	19.968	3.546	0.257
64.000	113.824	80.000	19.994	103.264	19.966	3.702	0.315
72.001	116.422	80.002	19.995	103.260	19.968	3.542	0.354
80.001	119.300	80.002	19.995	103.273	19.971	3.339	0.386
88.001	122.535	80.001	19.994	103.268	19.967	3.630	0.394
96.001	125.988	80.001	19.995	103.268	19.966	3.717	0.462
104.000	129.579	80.002	19.994	103.270	19.967	3.620	0.475
112.000	133.262	80.001	19.995	103.266	19.964	3.875	0.459
120.000	137.111	80.001	19.996	103.262	19.974	3.131	0.485
128.001	141.088	80.001	19.995	103.268	19.971	3.308	0.505
136.000	145.125	80.001	19.995	103.255	19.974	3.090	0.471
144.000	149.240	80.001	19.995	103.241	19.972	3.254	0.536
152.000	153.291	80.002	19.995	103.237	19.975	3.027	0.497
160.000	157.331	80.003	19.995	103.230	19.975	3.053	0.533
168.001	161.341	80.003	19.995	103.227	19.975	3.059	0.519
176.000	165.407	80.001	19.995	103.228	19.977	2.886	0.504
184.000	169.395	80.001	19.995	103.226	19.974	3.075	0.491
192.000	173.402	80.001	19.995	103.226	19.976	2.924	0.504
200.000	177.358	80.000	19.994	103.218	19.982	2.488	0.509
208.000	181.295	79.999	19.995	103.218	19.980	2.698	0.513
216.000	185.237	80.003	19.995	103.203	19.980	2.670	0.472
224.000	189.217	80.003	19.995	103.199	19.986	2.209	0.455
232.000	193.146	79.999	19.995	103.207	19.983	2.429	0.483
240.001	197.056	80.002	19.996	103.201	19.983	2.447	0.469
248.000	200.972	80.003	19.995	103.188	19.985	2.321	0.489
256.000	204.961	80.000	19.995	103.190	19.981	2.579	0.503
264.000	208.923	80.000	19.995	103.189	19.982	2.541	0.532
272.000	212.875	80.000	19.994	103.192	19.984	2.393	0.503
280.000	216.775	80.000	19.995	103.190	19.982	2.497	0.473
288.000	220.747	80.001	19.995	103.188	19.987	2.126	0.485
296.000	224.705	80.000	19.995	103.187	19.991	1.890	0.492
304.000	228.766	80.002	19.995	103.183	19.991	1.850	0.506
312.000	232.731	80.002	19.995	103.187	19.986	2.216	0.490
320.000	236.735	80.001	19.996	103.189	19.991	1.883	0.478
328.000	240.646	80.003	19.995	103.177	19.988	2.090	0.487
336.001	244.599	80.000	19.996	103.170	19.990	1.948	0.486
344.000	248.471	79.999	19.995	103.180	19.993	1.721	0.482
352.000	252.428	80.001	19.994	103.154	19.994	1.603	0.509
360.000	256.358	80.001	19.997	103.156	19.992	1.753	0.471
368.000	260.248	80.002	19.995	103.153	19.992	1.763	0.487
376.000	264.116	80.001	19.995	103.154	19.993	1.717	0.492
384.000	268.058	80.003	19.995	103.168	19.992	1.815	0.493
392.000	272.058	80.001	19.994	103.156	19.993	1.741	0.516
400.000	276.042	80.001	19.995	103.159	19.995	1.591	0.495
408.000	280.044	80.003	19.994	103.152	19.996	1.473	0.499
416.000	284.071	80.001	19.996	103.155	19.997	1.386	0.515
424.000	288.098	79.999	19.996	103.148	20.000	1.214	0.507
432.000	292.176	80.001	19.995	103.152	20.001	1.142	0.536
440.000	296.206	80.000	19.995	103.155	20.000	1.202	0.519
448.000	300.266	80.001	19.995	103.153	20.002	1.060	0.491
456.000	304.326	80.001	19.996	103.159	20.003	0.992	0.491
464.000	308.384	80.001	19.994	103.153	20.004	0.928	0.509
472.000	312.525	80.003	19.993	103.152	19.995	1.528	0.510
480.001	316.568	80.002	19.995	103.150	19.997	1.450	0.490
488.000	320.662	80.003	19.996	103.146	19.998	1.332	0.508
496.000	324.703	80.003	19.996	103.144	20.004	0.895	0.518
504.000	328.788	80.000	19.995	103.145	20.003	0.991	0.494
512.000	332.892	80.001	19.996	103.138	19.999	1.276	0.528
520.000	336.938	80.000	19.996	103.139	20.002	1.034	0.512
528.000	340.913	80.000	19.995	103.129	20.004	0.917	0.495
536.000	344.918	80.000	19.995	103.138	20.010	0.473	0.506
544.000	348.918	80.002	19.996	103.139	20.007	0.653	0.515
552.000	352.895	80.002	19.994	103.127	20.006	0.765	0.509
560.000	356.788	80.003	19.994	103.139	20.008	0.607	0.475
568.000	360.808	80.004	19.994	103.125	20.007	0.667	0.503
576.000	364.814	80.002	19.996	103.125	20.010	0.465	0.515
584.000	368.836	79.999	19.995	103.121	20.010	0.425	0.523
592.000	372.854	80.000	19.994	103.134	20.007	0.649	0.539
600.000	376.875	80.000	19.994	103.141	20.006	0.725	0.513
608.000	380.912	79.999	19.996	103.112	20.005	0.829	0.469
616.000	385.041	79.999	19.997	103.112	20.008	0.601	0.502
624.000	389.033	80.004	19.995	103.115	20.004	0.879	0.480
632.000	392.984	80.003	19.995	103.120	20.008	0.579	0.466
640.000	397.123	80.003	19.995	103.119	20.006	0.723	0.491
648.000	401.182	80.002	19.994	103.123	20.001	1.091	0.483
656.001	405.403	80.003	19.995	103.115	20.012	0.334	0.497
664.000	409.203	80.000	19.995	103.121	20.013	0.272	0.273
672.000	413.396	80.002	19.994	103.121	20.013	0.238	0.467
680.000	417.484	80.002	19.996	103.118	20.007	0.647	0.518
688.000	421.631	80.001	19.995	103.115	20.007	0.657	0.512
696.000	425.793	80.000	19.996	103.112	20.010	0.449	0.510
704.000	429.906	80.001	19.996	103.111	20.005	0.795	0.524
712.000	434.059	80.001	19.994	103.114	20.007	0.647	0.536
720.000	438.109	80.002	19.995	103.117	20.006	0.763	0.533
728.000	442.161	80.002	19.994	103.114	20.009	0.553	0.486
736.000	446.256	80.003	19.994	103.108	20.010	0.477	0.520
744.000	450.281	80.000	19.994	103.105	20.006	0.753	0.507
752.000	454.336	80.002	19.995	103.109	20.011	0.400	0.519
760.000	458.358	80.001	19.995	103.110	20.011	0.368	0.474
768.000	462.464	80.002	19.996	103.111	20.014	0.188	0.517
776.000	466.462	80.000	19.995	103.109	20.011	0.350	0.495
784.000	470.503	79.999	19.994	103.105	20.014	0.142	0.515
792.000	474.574	80.001	19.996	103.093	20.011	0.374	0.519
800.000	478.660	80.003	19.996	103.088	20.014	0.174	0.500
808.000	482.708	80.003	19.995	103.108	20.014	0.186	0.517
816.000	486.780	80.005	19.995	103.098	20.014	0.184	0.511
824.000	490.742	80.001	19.995	103.093	20.016	0.012	0.472
832.000	494.799	80.000	19.996	103.103	20.015	0.074	0.538
840.000	498.887	80.003	19.995	103.095	20.012	0.296	0.522
848.000	502.846	80.001	19.995	103.109	20.013	0.212	0.546
856.000	506.875	80.000	19.996	103.107	20.016	0.036	0.492
864.000	510.938	80.002	19.995	103.088	20.010	0.422	0.476
872.000	514.940	80.003	19.995	103.091	20.011	0.406	0.454
880.000	519.034	80.001	19.995	103.105	20.013	0.254	0.524
888.000	523.020	80.001	19.996	103.094	20.008	0.589	0.501
896.000	527.064	80.004	19.995	103.090	20.011	0.372	0.489
904.000	531.095	80.001	19.994	103.105	20.009	0.499	0.494
912.000	535.250	80.001	19.994	103.093	20.011	0.392	0.544
920.001	539.374	80.001	19.994	103.107	20.013	0.204	0.556
928.000	543.390	80.002	19.996	103.081	20.014	0.174	0.506
936.000	547.425	80.000	19.994	103.094	20.011	0.362	0.536
944.000	551.462	80.002	19.994	103.090	20.009	0.526	0.495
952.000	555.511	80.002	19.994	103.079	20.009	0.531	0.503
960.000	559.547	80.002	19.996	103.087	20.013	0.272	0.507
968.000	563.518	80.001	19.994	103.095	20.012	0.314	0.489
976.000	567.512	80.001	19.996	103.090	20.014	0.172	0.513
984.000	571.549	79.999	19.995	103.104	20.014	0.144	0.504
992.000	575.606	80.002	19.994	103.082	20.013	0.216	0.495
1000.001	579.644	80.001	19.995	103.084	20.011	0.348	0.482
1008.000	583.669	80.001	19.994	103.077	20.009	0.551	0.504
1016.000	587.681	80.001	19.995	103.073	20.008	0.633	0.499
1024.000	591.627	80.001	19.994	103.085	20.014	0.134	0.520
1032.000	595.670	80.002	19.995	103.079	20.012	0.298	0.497
1040.000	599.684	80.002	19.996	103.078	20.010	0.458	0.500
1048.000	603.570	80.002	19.995	103.072	20.010	0.488	0.472
1056.000	607.462	80.004	19.995	103.072	20.011	0.386	0.513
1064.000	611.487	80.002	19.995	103.074	20.010	0.488	0.539
1072.000	615.602	80.003	19.996	103.074	20.008	0.579	0.523
1080.001	619.789	80.002	19.995	103.074	20.012	0.316	0.524
1088.001	624.040	80.001	19.995	103.099	20.011	0.354	0.527
1096.000	628.244	80.002	19.995	103.085	20.010	0.454	0.527
1104.000	632.518	80.001	19.994	103.085	20.012	0.322	0.578
1112.000	636.827	80.002	19.994	103.079	20.014	0.184	0.545
1120.000	641.072	80.002	19.995	103.074	20.009	0.498	0.512
1128.000	645.265	80.003	19.995	103.074	20.013	0.208	0.524
1136.000	649.404	80.004	19.995	103.080	20.011	0.374	0.523
1144.000	653.421	80.002	19.995	103.070	20.011	0.418	0.430
1152.000	657.564	79.999	19.995	103.077	20.013	0.230	0.505
1160.000	661.563	80.001	19.995	103.078	20.013	0.210	0.512
1168.000	665.572	80.000	19.995	103.077	20.012	0.320	0.531
1176.000	669.515	80.001	19.994	103.085	20.015	0.122	0.498
1184.000	673.532	80.001	19.995	103.071	20.011	0.400	0.489
1192.000	677.589	80.002	19.994	103.071	20.011	0.398	0.477
1200.000	681.602	80.002	19.995	103.070	20.016	0.046	0.505
1208.000	685.665	80.002	19.995	103.070	20.017	-0.056	0.512
1216.000	689.651	80.004	19.994	103.071	20.009	0.550	0.505
1224.000	693.627	80.002	19.995	103.071	20.013	0.212	0.488
1232.001	697.592	80.001	19.996	103.072	20.010	0.482	0.532
1240.000	701.553	80.001	19.995	103.077	20.009	0.536	0.489
1248.000	705.602	80.000	19.994	103.073	20.013	0.250	0.501
1256.000	709.664	80.000	19.996	103.088	20.010	0.434	0.507
1264.000	713.729	80.001	19.995	103.073	20.012	0.314	0.526
1272.001	717.820	80.002	19.994	103.072	20.009	0.554	0.498
1280.001	721.845	80.004	19.994	103.071	20.010	0.462	0.496
1288.000	725.766	80.002	19.994	103.075	20.011	0.374	0.506
1296.000	729.750	80.004	19.993	103.038	20.010	0.428	0.502
1304.000	733.847	80.002	19.994	103.078	20.009	0.504	0.506
1312.001	737.872	80.002	19.995	103.077	20.017	-0.076	0.507
1320.000	741.928	80.002	19.996	103.074	20.016	0.034	0.497
1323.001	743.528	80.001	19.995	103.079	20.013	0.242	0.531

File: Mineral_Wool_Insulation_MCC_30K_min_211116_O4.txt
Sample ID:	C:\MCC\MCC Cal\Test\Mineral_Wool_Insulation\Mineral_Wool_Insulation_MCC_30K_min_211116_R4.txt
Sample Weight (mg):	4.5
Heating Rate (C/s):	0.5
Combustor Temp (C):	900
N2 Flow Rate (cc/min):	80
O2 Flow Rate (cc/min):	20
Calibration File:	C:\MCC\MCC Cal\Coeff1 JN10440_30_210304.txt.txt
T Correction Coefficients:	0	1.024463	0
Time Shift (s):	14
*
Time (s)	Temperature (C)	N2 flow rate (cc/min)	O2 flow rate (cc/min)	Flow Rate (cc/min)	Oxygen (%)	HRR (W/g)	Heating rate (C/s)
0.000	106.440	80.009	19.997	103.050	19.908	0.033	-0.040
7.999	106.457	80.011	19.994	103.044	19.908	0.008	0.030
15.999	106.449	80.010	19.994	103.069	19.904	0.266	0.026
23.999	106.505	80.009	19.995	103.045	19.909	-0.074	0.025
31.999	106.518	80.011	19.995	103.052	19.906	0.152	0.002
40.000	106.609	80.010	19.994	103.296	19.882	1.870	0.028
47.999	107.511	80.008	19.994	103.333	19.858	3.588	0.186
55.999	109.158	80.008	19.995	103.331	19.854	3.910	0.244
64.000	111.295	80.010	19.996	103.330	19.856	3.724	0.299
72.000	113.840	80.009	19.995	103.329	19.858	3.568	0.307
79.999	116.840	80.006	19.995	103.330	19.847	4.375	0.384
87.999	120.055	80.009	19.994	103.335	19.851	4.075	0.396
96.000	123.493	80.010	19.994	103.328	19.852	4.057	0.473
103.999	127.126	80.009	19.995	103.322	19.853	3.968	0.433
111.999	130.881	80.010	19.995	103.333	19.854	3.911	0.476
119.999	134.768	80.011	19.993	103.318	19.853	3.961	0.494
128.000	138.725	80.008	19.995	103.305	19.852	4.053	0.517
136.000	142.677	80.008	19.994	103.313	19.854	3.902	0.498
144.000	146.768	80.008	19.995	103.302	19.858	3.581	0.486
152.000	150.779	80.007	19.994	103.291	19.863	3.242	0.475
160.000	154.800	80.007	19.996	103.289	19.862	3.337	0.453
168.000	158.811	80.008	19.996	103.286	19.861	3.357	0.513
176.000	162.725	80.010	19.994	103.286	19.863	3.251	0.477
184.000	166.736	80.009	19.994	103.286	19.860	3.423	0.453
192.000	170.693	80.009	19.995	103.283	19.863	3.241	0.472
200.000	174.662	80.009	19.994	103.287	19.865	3.097	0.552
208.000	178.610	80.011	19.994	103.267	19.865	3.079	0.476
216.000	182.577	80.009	19.995	103.259	19.865	3.056	0.490
224.000	186.548	80.006	19.995	103.261	19.866	3.007	0.520
232.000	190.460	80.009	19.996	103.259	19.864	3.171	0.503
240.000	194.347	80.009	19.995	103.255	19.868	2.867	0.483
248.000	198.256	80.005	19.995	103.255	19.869	2.801	0.505
256.000	202.133	80.007	19.996	103.255	19.869	2.813	0.478
264.000	206.072	80.010	19.996	103.249	19.868	2.853	0.482
272.000	209.983	80.010	19.994	103.249	19.869	2.828	0.497
280.000	213.895	80.008	19.994	103.240	19.867	2.958	0.485
288.000	217.733	80.010	19.995	103.236	19.870	2.731	0.428
296.000	221.695	80.011	19.995	103.247	19.870	2.732	0.515
304.000	225.601	80.009	19.994	103.248	19.873	2.532	0.505
312.000	229.526	80.007	19.994	103.220	19.874	2.443	0.496
320.000	233.409	80.009	19.994	103.237	19.870	2.735	0.481
328.000	237.399	80.008	19.996	103.255	19.874	2.468	0.529
336.000	241.416	80.007	19.994	103.255	19.868	2.849	0.542
344.000	245.641	80.008	19.994	103.246	19.872	2.604	0.515
352.000	249.864	80.010	19.995	103.245	19.874	2.429	0.566
360.000	254.174	80.010	19.995	103.240	19.877	2.236	0.514
368.000	258.423	80.008	19.995	103.224	19.873	2.506	0.525
376.000	262.640	80.010	19.993	103.230	19.876	2.306	0.524
384.000	266.807	80.008	19.994	103.216	19.876	2.273	0.496
392.000	271.012	80.007	19.995	103.219	19.877	2.199	0.540
400.000	275.120	80.011	19.994	103.217	19.879	2.091	0.544
408.000	279.132	80.008	19.995	103.218	19.884	1.760	0.520
416.000	283.070	80.008	19.995	103.216	19.877	2.206	0.489
424.000	286.994	80.010	19.996	103.205	19.876	2.331	0.531
432.000	290.906	80.009	19.996	103.208	19.884	1.762	0.487
440.000	294.822	80.007	19.996	103.213	19.882	1.897	0.510
448.000	298.729	80.009	19.995	103.216	19.886	1.588	0.460
456.000	302.650	80.015	19.994	103.210	19.888	1.410	0.496
464.000	306.583	79.992	19.996	103.202	19.888	1.469	0.480
472.000	310.566	80.006	19.994	103.207	19.891	1.257	0.539
480.000	314.515	80.007	19.996	103.196	19.889	1.399	0.490
488.000	318.539	80.009	19.994	103.203	19.896	0.870	0.496
496.000	322.507	80.010	19.995	103.190	19.891	1.214	0.521
504.000	326.464	79.994	19.995	103.189	19.892	1.160	0.517
512.000	330.499	80.020	19.993	103.194	19.900	0.591	0.486
520.000	334.561	80.009	19.994	103.180	19.895	0.934	0.488
528.000	338.546	80.007	19.995	103.197	19.894	1.015	0.477
536.000	342.597	80.010	19.993	103.193	19.895	0.969	0.488
544.000	346.651	80.009	19.995	103.193	19.905	0.257	0.515
552.000	350.670	80.008	19.992	103.175	19.902	0.440	0.475
560.000	354.791	80.011	19.994	103.179	19.905	0.224	0.524
568.000	358.868	80.000	19.996	103.174	19.908	0.033	0.534
576.000	362.939	80.014	19.993	103.175	19.910	-0.132	0.484
584.000	366.923	80.003	19.994	103.182	19.911	-0.195	0.492
592.000	370.972	80.008	19.995	103.181	19.920	-0.852	0.507
600.000	374.980	80.023	19.993	103.177	19.917	-0.655	0.469
608.000	379.036	80.012	19.993	103.174	19.916	-0.535	0.504
616.000	383.034	80.012	19.994	103.170	19.912	-0.276	0.469
624.000	387.005	80.013	19.992	103.168	19.920	-0.846	0.465
632.000	391.061	80.017	19.993	103.169	19.919	-0.747	0.510
640.000	395.108	80.013	19.996	103.173	19.925	-1.225	0.490
648.000	399.133	80.019	19.995	103.168	19.929	-1.500	0.528
656.000	403.153	80.001	19.996	103.177	19.929	-1.467	0.506
664.000	407.166	80.005	19.994	103.167	19.933	-1.752	0.479
672.000	411.165	80.001	19.996	103.175	19.935	-1.931	0.489
680.000	415.144	80.015	19.996	103.162	19.934	-1.834	0.494
688.000	419.142	80.017	19.993	103.156	19.944	-2.573	0.502
696.000	423.083	80.018	19.994	103.151	19.938	-2.151	0.499
704.000	427.012	80.010	19.994	103.145	19.941	-2.330	0.487
712.000	430.922	80.009	19.996	103.153	19.941	-2.330	0.515
720.000	434.977	80.009	19.995	103.177	19.940	-2.254	0.513
728.000	439.035	80.013	19.992	103.168	19.940	-2.262	0.499
736.000	443.138	80.006	19.997	103.148	19.945	-2.668	0.555
744.000	447.329	80.002	19.996	103.160	19.948	-2.831	0.529
752.000	451.534	80.003	19.994	103.160	19.950	-3.010	0.505
760.000	455.817	80.003	19.996	103.156	19.956	-3.452	0.539
768.000	460.061	80.008	19.996	103.157	19.954	-3.275	0.529
776.000	464.290	80.021	19.994	103.162	19.962	-3.854	0.533
784.000	468.497	80.011	19.994	103.156	19.964	-3.970	0.555
792.000	472.688	80.010	19.992	103.150	19.967	-4.210	0.527
800.000	476.810	80.009	19.994	103.144	19.968	-4.281	0.510
808.000	480.965	80.007	19.996	103.145	19.974	-4.701	0.530
816.000	485.059	80.010	19.994	103.133	19.971	-4.499	0.493
824.000	489.194	80.011	19.992	103.140	19.969	-4.353	0.522
832.000	493.227	80.008	19.996	103.136	19.975	-4.794	0.509
840.000	497.320	80.004	19.994	103.143	19.973	-4.653	0.510
848.000	501.354	80.004	19.994	103.138	19.976	-4.857	0.509
856.000	505.338	80.008	19.993	103.130	19.980	-5.117	0.496
864.000	509.369	80.002	19.996	103.131	19.984	-5.418	0.501
872.000	513.419	80.003	19.996	103.131	19.986	-5.574	0.530
880.000	517.486	80.010	19.995	103.136	19.993	-6.031	0.502
888.000	521.580	80.011	19.995	103.134	19.992	-6.021	0.520
896.000	525.630	80.007	19.994	103.130	19.995	-6.179	0.533
904.000	529.702	80.006	19.995	103.138	19.998	-6.450	0.521
912.000	533.797	80.005	19.995	103.127	19.997	-6.339	0.534
920.000	537.949	80.009	19.994	103.133	19.996	-6.257	0.500
928.000	542.032	80.009	19.995	103.132	19.997	-6.377	0.518
936.000	546.073	80.006	19.995	103.116	20.008	-7.150	0.513
944.000	550.230	80.011	19.994	103.133	20.009	-7.209	0.539
952.000	554.298	80.008	19.994	103.130	20.005	-6.927	0.519
960.000	558.409	80.001	19.996	103.131	20.011	-7.331	0.531
968.000	562.492	80.009	19.995	103.131	20.018	-7.836	0.537
976.000	566.504	80.007	19.995	103.133	20.019	-7.920	0.515
984.000	570.552	80.007	19.995	103.118	20.020	-8.000	0.492
992.000	574.586	80.010	19.996	103.132	20.028	-8.534	0.531
1000.000	578.576	80.015	19.995	103.091	20.023	-8.192	0.497
1008.000	582.672	80.014	19.995	103.133	20.028	-8.574	0.507
1016.000	586.843	80.015	19.996	103.129	20.033	-8.934	0.519
1024.001	591.186	80.020	19.996	103.120	20.030	-8.711	0.525
1031.999	595.528	80.008	19.996	103.112	20.032	-8.848	0.522
1039.999	599.780	80.015	19.994	103.120	20.032	-8.885	0.551
1048.000	603.877	80.004	19.996	103.103	20.037	-9.178	0.494
1055.999	607.932	80.001	19.996	103.115	20.034	-8.988	0.507
1063.999	611.985	80.008	19.995	103.111	20.033	-8.929	0.486
1072.000	616.098	80.004	19.995	103.108	20.041	-9.481	0.537
1079.999	620.166	80.021	19.994	103.124	20.047	-9.895	0.525
1087.999	624.300	80.006	19.996	103.112	20.044	-9.683	0.538
1095.999	628.424	80.008	19.994	103.102	20.044	-9.695	0.519
1103.999	632.538	80.008	19.995	103.098	20.052	-10.262	0.518
1112.000	636.682	80.007	19.995	103.105	20.054	-10.422	0.507
1119.999	640.814	80.016	19.994	103.103	20.058	-10.676	0.529
1128.000	644.960	80.009	19.996	103.099	20.053	-10.376	0.540
1135.999	649.117	80.016	19.992	103.113	20.055	-10.524	0.543
1143.999	653.287	80.008	19.997	103.113	20.058	-10.738	0.537
1151.999	657.486	80.006	19.995	103.114	20.058	-10.709	0.540
1159.999	661.639	79.999	19.995	103.106	20.062	-11.016	0.503
1168.000	665.730	80.009	19.996	103.099	20.063	-11.102	0.485
1175.999	669.812	80.000	19.996	103.105	20.057	-10.635	0.486
1183.999	673.989	80.011	19.995	103.097	20.071	-11.612	0.548
1191.999	678.004	80.009	19.996	103.097	20.072	-11.725	0.497
1199.999	682.113	80.006	19.996	103.096	20.081	-12.366	0.501
1208.000	686.118	80.006	19.995	103.095	20.073	-11.749	0.522
1216.000	690.146	80.005	19.995	103.096	20.080	-12.307	0.505
1223.999	694.176	80.009	19.994	103.101	20.077	-12.067	0.520
1232.000	698.215	80.008	19.996	103.100	20.081	-12.358	0.481
1239.999	702.221	80.009	19.994	103.095	20.080	-12.269	0.479
1247.999	706.181	80.004	19.996	103.098	20.080	-12.255	0.477
1256.000	710.170	80.011	19.995	103.092	20.080	-12.290	0.476
1263.999	714.239	80.009	19.995	103.093	20.081	-12.383	0.531
1271.999	718.347	80.005	19.996	103.093	20.081	-12.339	0.489
1279.999	722.405	80.006	19.995	103.095	20.085	-12.654	0.483
1287.999	726.441	80.006	19.996	103.096	20.088	-12.866	0.518
1295.999	730.524	80.004	19.995	103.097	20.088	-12.846	0.500
1303.999	734.605	80.007	19.994	103.105	20.086	-12.708	0.492
1312.000	738.583	80.009	19.994	103.095	20.089	-12.959	0.493
1319.999	742.703	80.006	19.995	103.095	20.090	-13.023	0.508
1321.499	743.421	80.009	19.996	103.092	20.089	-12.920	0.474