Folder: fsri_materials_database/02_Data/OSB/Cone

Note: README.md
# fsri_materials_database
Database of Contemporary Material Properties for Fire Investigation Analysis

File: OSB_Cone_HF25Scalar_210324_R2.csv
LABORATORY,FSRI
TEST IDENT,OSB-HF25-2
OPERATOR,Morrissey
MATERIAL,5/8 inch OSB
ORIENTATION,Horizontal
HEAT FLUX,25
SURF AREA,0.01
C FACTOR,0.0386052
SPEC HOLDER DIFF,-99.5
SPECIMEN MASS,105
SCAN TIME,0.25
O2 DELAY TIME,11
CO DELAY TIME,11
CO2 DELAY TIME,8
FLOW FACTOR,1
SCAN COUNT,5781
TIME TO IGN,134.5
END OF TEST SCAN,5301
END OF TEST TIME,1325.25
TEST STATUS,1
PRE TEST CMT,test w/o retainer grid or frame

File: OSB_Cone_HF25Scan_210324_R3.csv
Names,Time,Stack TC,Smoke TC,Exh Press,Smoke Comp,Smoke Meas,CO Meter,CO2 Meter,O2 Meter,Sample Mass,Ext Coeff,Start Test,Flame Verif
Chan Gain,,500,500,1,1,1,1,1,1,1,1,1.0,1.0
Offset,,0,0,0.194005,0,0,0,0,0,0,0,0.0,0.0
Gain,,1,1,25.011,13.5067,16.616,1,1,1,1.00091,1.04608,1.0,1.0
Units,sec,C,C,Pa,%,%,%,%,%,g,/m,,
Baseline,,20.0173,21.3324,168.059,101.08,100.572,0.000154304,0.057551,20.9302,-1.16514,0.0462045,,
53,13,17.3484,18.4609,169.288,101.065,100.483,0.000174229,0.0620767,20.932,587.235,0.0529482,0.0,0.0
106,26.25,18.0585,19.2723,173.556,100.83,100.194,0.000324151,0.0590166,20.9313,587.084,0.0581062,0.0,0.0
159,39.5,17.796,19.5725,171.209,100.578,99.819,0.00024264,0.0581688,20.9304,586.894,0.0694668,0.0,0.0
212,52.75,17.9936,19.5754,169.187,100.312,99.279,5.69965e-05,0.0580708,20.9331,586.774,0.0949588,0.0,0.0
265,66,18.6769,19.6226,168.004,100.109,98.9747,3.96422e-05,0.0578393,20.9321,586.594,0.104591,0.0,0.0
318,79.25,18.6344,20.1167,170.661,99.9935,98.8906,0.000211575,0.0578344,20.9342,586.424,0.101775,0.0,0.0
371,92.5,18.0619,19.8473,164.85,99.9836,98.6502,0.000138315,0.0579269,20.9348,586.254,0.123197,0.0,0.0
424,105.75,18.9432,20.0559,167.05,100.007,98.5285,0.000402045,0.0588458,20.9315,586.104,0.136718,0.0,0.0
477,119,18.9011,20.5926,165.829,100.185,98.5386,0.000605728,0.0606156,20.9312,585.903,0.15206,0.0,0.0
530,132.25,19.2234,21.3137,168.055,100.618,98.5594,0.000837631,0.0600752,20.9324,585.743,0.189718,0.0,0.0
583,145.5,19.0918,21.1018,164.649,101.061,98.2952,0.00114856,0.0611894,20.9333,585.513,0.254667,0.0,0.0
636,158.75,19.4561,20.6534,164.851,101.301,98.4783,0.00142201,0.0621149,20.9324,585.283,0.259313,0.0,0.0
689,172,19.4837,21.6175,164.833,101.258,97.9971,0.00217407,0.0644042,20.927,584.993,0.300379,0.0,0.0
742,185.25,29.4416,37.2349,157.742,100.968,99.1269,0.00245711,0.238472,20.5378,583.451,0.168898,0.0,0.0
795,198.5,38.9226,51.4695,150.373,100.761,96.6406,0.0043398,0.440267,20.4046,581.229,0.38312,0.0,0.0
848,211.75,43.0198,56.0127,143.991,101.652,98.2648,0.00382035,0.488992,20.4277,579.157,0.310947,0.0,0.0
901,225,44.1333,56.0619,150.179,101.137,98.886,0.0039678,0.468142,20.4731,577.245,0.206568,0.0,0.0
954,238.25,44.3789,56.2199,151.824,101.868,99.4483,0.00392005,0.450665,20.4857,575.384,0.220601,0.0,0.0
1007,251.5,44.2421,54.7192,151.976,101.435,99.4747,0.0034634,0.429917,20.5228,573.632,0.179099,0.0,0.0
1060,264.75,43.2557,52.7895,152.853,100.076,98.6634,0.003142,0.397905,20.5601,572.001,0.13044,0.0,0.0
1113,278,42.7672,51.0367,150.565,100.661,99.03,0.00293572,0.36813,20.5893,570.479,0.149917,0.0,0.0
1166,291.25,41.3588,49.3501,150.922,101.278,99.5508,0.00258425,0.346159,20.6151,569.038,0.157868,0.0,0.0
1219,304.5,41.8691,47.9451,154.548,101.333,100.32,0.00250498,0.32639,20.632,567.637,0.092201,0.0,0.0
1272,317.75,41.5921,47.4012,151.729,101.245,100.427,0.00253884,0.313895,20.6466,566.315,0.0744658,0.0,0.0
1325,331,40.6886,46.5628,159.251,101.896,100.632,0.00224103,0.301187,20.6594,565.044,0.114484,0.0,0.0
1378,344.25,40.4148,46.2844,156.816,100.564,99.9493,0.00209886,0.292357,20.67,563.743,0.0562158,0.0,0.0
1431,357.5,40.0374,44.9502,155.578,100.167,99.7166,0.00199608,0.283358,20.6804,562.522,0.0413559,0.0,0.0
1484,370.75,39.4625,44.446,159.352,101.146,101.49,0.00201191,0.276279,20.6868,561.331,-0.0311523,0.0,0.0
1537,384,39.1751,43.9073,152.879,101.162,100.816,0.00217716,0.269584,20.6953,560.17,0.0314857,0.0,0.0
1590,397.25,38.7864,43.0164,157.548,100.671,101.141,0.00169888,0.261272,20.7033,559.049,-0.0427723,0.0,0.0
1643,410.5,38.222,42.5596,155.313,101.606,101.625,0.00169552,0.254851,20.7122,557.958,-0.00169348,0.0,0.0
1696,423.75,38.4668,42.0954,155.411,101.111,101.658,0.00167256,0.249914,20.7161,556.887,-0.0495314,0.0,0.0
1749,437,37.7759,41.7788,159.321,101.454,102.03,0.00169243,0.246821,20.7198,555.826,-0.0519127,0.0,0.0
1802,450.25,37.4998,40.9155,166.354,101.798,101.955,0.00157791,0.242536,20.7258,554.795,-0.0142041,0.0,0.0
1855,463.5,37.0306,40.7293,154.723,101.87,102.077,0.0018023,0.23821,20.7294,553.794,-0.0185682,0.0,0.0
1908,476.75,36.7927,40.7768,157.982,101.667,102.277,0.00124676,0.235466,20.7342,552.793,-0.0548411,0.0,0.0
1961,490,36.6252,40.5636,158.922,101.315,102.1,0.00143299,0.232276,20.7365,551.812,-0.0707766,0.0,0.0
2014,503.25,36.3359,39.9206,159.494,100.909,101.471,0.00122789,0.230084,20.7374,550.901,-0.0509365,0.0,0.0
2067,516.5,36.0185,39.473,157.961,100.501,100.997,0.00137492,0.22948,20.7379,549.961,-0.0451816,0.0,0.0
2120,529.75,36.2041,39.4732,156.95,100.161,100.233,0.00154907,0.228883,20.7384,549.04,-0.00659901,0.0,0.0
2173,543,35.8814,39.147,158.131,100.032,100.36,0.00164459,0.228598,20.7383,548.119,-0.0299774,0.0,0.0
2226,556.25,35.7892,38.7865,160.917,100.016,100.228,0.00172288,0.227814,20.7393,547.218,-0.0194742,0.0,0.0
2279,569.5,35.4369,38.9544,162.357,100.097,100.329,0.00132108,0.227493,20.7402,546.327,-0.021299,0.0,0.0
2332,582.75,35.4618,38.9852,157.477,100.194,101.171,0.00139758,0.225194,20.7428,545.477,-0.0890513,0.0,0.0
2385,596,34.6585,38.1547,157.903,100.361,100.718,0.00153536,0.224391,20.7404,544.586,-0.0326123,0.0,0.0
2438,609.25,35.0367,38.5646,160.749,100.53,100.869,0.00136637,0.224462,20.7418,543.735,-0.0308928,0.0,0.0
2491,622.5,34.7975,38.5962,157.247,100.667,101.095,0.00179906,0.224157,20.7419,542.874,-0.0389233,0.0,0.0
2544,635.75,35.0067,38.8226,154.372,100.734,100.997,0.0016393,0.2257,20.739,542.003,-0.0239895,0.0,0.0
2597,649,34.7578,38.288,160.023,100.758,100.763,0.00163909,0.228518,20.7351,541.143,-0.000418418,0.0,0.0
2650,662.25,35.0893,38.2005,162.96,100.788,100.885,0.00200569,0.230196,20.732,540.282,-0.00883787,0.0,0.0
2703,675.5,35.2248,38.8624,158.944,100.777,101.098,0.00162846,0.232403,20.7275,539.441,-0.0292109,0.0,0.0
2756,688.75,35.3718,39.1759,158.118,100.754,101.234,0.00130097,0.236492,20.7241,538.54,-0.0436768,0.0,0.0
2809,702,35.319,39.45,163.58,100.665,100.723,0.00138977,0.238891,20.7219,537.649,-0.0052658,0.0,0.0
2862,715.25,35.6124,39.6036,163.044,100.566,100.79,0.00163375,0.242653,20.7184,536.739,-0.0204214,0.0,0.0
2915,728.5,35.7682,40.0793,149.606,100.417,100.152,0.00182907,0.247217,20.7137,535.788,0.0242989,0.0,0.0
2968,741.75,36.4984,40.631,164.485,100.215,99.8824,0.00166699,0.253989,20.7031,534.827,0.0305274,0.0,0.0
3021,755,36.709,41.0478,154.798,100.083,99.3424,0.0017482,0.260115,20.6944,533.846,0.0681509,0.0,0.0
3074,768.25,37.4838,41.6917,163.14,100.013,99.2668,0.00171356,0.269359,20.6849,532.775,0.0687057,0.0,0.0
3127,781.5,37.0902,42.1211,152.424,100.042,98.9291,0.00179278,0.278752,20.6682,531.754,0.102662,0.0,0.0
3180,794.75,37.9324,43.0844,152.964,100.138,98.9519,0.00185444,0.287874,20.6568,530.633,0.109351,0.0,0.0
3233,808,38.9961,43.778,158.622,100.28,99.1608,0.0020816,0.29667,20.6499,529.502,0.102982,0.0,0.0
3286,821.25,39.2625,44.5172,152.105,100.45,98.9965,0.00228362,0.304236,20.6381,528.301,0.133724,0.0,0.0
3339,834.5,39.758,44.877,151.024,100.679,98.5528,0.00227533,0.312368,20.6291,527.13,0.195855,0.0,0.0
3392,847.75,40.15,45.5997,151.157,101.038,98.7034,0.0021356,0.320201,20.6218,525.899,0.214506,0.0,0.0
3445,861,40.9834,46.4249,148.765,101.372,98.5888,0.00258911,0.32556,20.613,524.608,0.25544,0.0,0.0
3498,874.25,41.4488,47.1387,152.954,101.664,98.5173,0.00271902,0.332733,20.6061,523.346,0.288474,0.0,0.0
3551,887.5,41.9291,48.0494,148.525,101.832,98.1827,0.00233438,0.339812,20.5946,521.975,0.334865,0.0,0.0
3604,900.75,42.1329,48.495,151.34,101.909,97.8708,0.0026823,0.346073,20.5875,520.624,0.371,0.0,0.0
3657,914,42.686,48.9981,153.235,101.879,98.7699,0.00311158,0.350157,20.5875,519.253,0.284383,0.0,0.0
3710,927.25,43.1254,49.6171,155.132,101.779,96.8562,0.00309882,0.352304,20.5825,517.911,0.454932,0.0,0.0
3763,940.5,43.524,49.369,147.977,101.657,97.3967,0.00340134,0.356998,20.5771,516.49,0.392856,0.0,0.0
3816,953.75,43.9682,49.4414,145.975,101.489,96.1878,0.00332015,0.358595,20.5758,515.159,0.492306,0.0,0.0
3869,967,44.1953,50.0064,152.65,101.327,96.0697,0.00331668,0.360743,20.5726,513.768,0.488852,0.0,0.0
3922,980.25,44.1355,50.6713,151.877,101.171,96.0905,0.00361671,0.361091,20.5705,512.406,0.472783,0.0,0.0
3975,993.5,44.75,50.7923,151.363,101.21,96.9637,0.00304875,0.362841,20.5674,511.025,0.393325,0.0,0.0
4028,1006.75,44.4234,50.5514,152.198,101.493,95.4607,0.00368057,0.359131,20.574,509.654,0.562273,0.0,0.0
4081,1020,44.2502,49.8865,156.383,101.62,96.4916,0.0028877,0.352334,20.5873,508.383,0.475145,0.0,0.0
4134,1033.25,43.5794,48.443,153.136,101.605,97.6964,0.00326176,0.332978,20.6083,507.242,0.359977,0.0,0.0
4187,1046.5,42.3003,46.8248,155.136,101.445,96.5144,0.00343764,0.302069,20.6515,506.371,0.45718,0.0,0.0
4240,1059.75,40.6558,44.0267,154.798,101.193,97.6021,0.00545163,0.270628,20.6675,505.61,0.3315,0.0,0.0
4293,1073,38.4286,40.4538,160.817,100.784,101.03,0.00710382,0.235197,20.7327,505.05,-0.0223198,0.0,0.0
4346,1086.25,35.3198,36.6347,158.46,100.727,100.633,0.00918209,0.193674,20.7717,504.609,0.0085578,0.0,0.0
4399,1099.5,33.0385,33.6534,161.465,100.829,100.853,0.0104732,0.165651,20.8005,504.269,-0.00222631,0.0,0.0
4452,1112.75,31.9299,31.6115,161.381,100.96,100.76,0.00950365,0.156243,20.8058,503.949,0.0181972,0.0,0.0
4505,1126,30.4418,30.6658,164.12,101.112,100.775,0.0101226,0.148878,20.817,503.648,0.0306626,0.0,0.0
4558,1139.25,30.067,29.6804,159.799,101.237,101.243,0.0100129,0.144333,20.8185,503.348,-0.000528359,0.0,0.0
4611,1152.5,28.6673,28.3375,158.955,101.32,101.198,0.0103769,0.142418,20.8176,503.128,0.0110317,0.0,0.0
4664,1165.75,27.6784,27.7236,167.331,101.336,101.07,0.0108989,0.141142,20.8242,502.888,0.024156,0.0,0.0
4717,1179,27.3286,27.2849,167.428,101.292,100.934,0.0104272,0.138312,20.827,502.638,0.0325169,0.0,0.0
4770,1192.25,26.8552,26.5323,164.081,101.226,101.032,0.0102145,0.136479,20.8286,502.427,0.017564,0.0,0.0
4823,1205.5,25.9433,25.9463,168.8,101.049,100.703,0.00969306,0.136266,20.8295,502.237,0.0314596,0.0,0.0
4876,1218.75,25.6469,26.4092,170.084,100.829,100.653,0.00983055,0.134904,20.8288,502.017,0.0160528,0.0,0.0
4929,1232,25.1861,25.9004,165.134,100.533,100.271,0.00949733,0.135437,20.8313,501.807,0.0240022,0.0,0.0
4982,1245.25,25.4318,25.1931,164.791,100.226,99.8692,0.00956149,0.135994,20.8264,501.577,0.0326815,0.0,0.0
5035,1258.5,24.1619,25.4661,163.709,100.055,99.7643,,,,501.436,0.0267315,0.0,0.0
5065,1266,24.1517,25.477,163.351,100.007,99.6517,,,,501.296,0.0326303,0.0,0.0

File: OSB_Cone_HF75Scalar_210325_R1.csv
LABORATORY,FSRI
TEST IDENT,OSB_HF75_1
OPERATOR,Dow
MATERIAL,5/8 inch OSB
ORIENTATION,Horizontal
HEAT FLUX,75
SURF AREA,0.01
C FACTOR,0.0386052
SPEC HOLDER DIFF,-90.89
SPECIMEN MASS,102.3
SCAN TIME,0.25
O2 DELAY TIME,11
CO DELAY TIME,11
CO2 DELAY TIME,8
FLOW FACTOR,1
SCAN COUNT,3155
TIME TO IGN,10.25
END OF TEST SCAN,2675
END OF TEST TIME,668.75
TEST STATUS,1
PRE TEST CMT,without retainer frame or grid

File: OSB_Cone_HF75Scalar_210325_R2.csv
LABORATORY,FSRI
TEST IDENT,OSB_HF75_2
OPERATOR,Dow
MATERIAL,5/8 inch OSB
ORIENTATION,Horizontal
HEAT FLUX,75
SURF AREA,0.01
C FACTOR,0.0386052
SPEC HOLDER DIFF,-86.93
SPECIMEN MASS,105.57
SCAN TIME,0.25
O2 DELAY TIME,11
CO DELAY TIME,11
CO2 DELAY TIME,8
FLOW FACTOR,1
SCAN COUNT,3601
TIME TO IGN,7.5
END OF TEST SCAN,3121
END OF TEST TIME,780.25
TEST STATUS,1
PRE TEST CMT,Test w/o frame or grid