Folder: fsri_materials_database/01_Data/Homasote/HFM

Note: 01_Data/README.md
# Materials and Products Database
## 01_Data

Raw data generated from each apparatus are included here in plain-text format. The data is organized first by material, next by the short name of test apparatus used, and where applicable additional filtering by test settings.

### material.json

Each material directory contains a json file of the same name as the material. This file links the data stored in the repository as well as data and graphs produced by the accompanying scripts (__02_Scripts__) to the respective landing page for the material on the front-end website.

File: Homasote_Density_Dry_R1.csv
,Homasote_1_DRY
Sample Mass [g],202.6
Sample Volume [cm3],490.9
Sample Density [kg/m3],413

File: Homasote_Density_Dry_R2.csv
,Homasote_2_DRY
Sample Mass [g],201.9
Sample Volume [cm3],493.9
Sample Density [kg/m3],409

File: Homasote_Density_Dry_R3.csv
,Homasote_3_DRY
Sample Mass [g],197.1
Sample Volume [cm3],486.1
Sample Density [kg/m3],406

File: Homasote_Density_Wet_R1.csv
,Homasote_1_WET
Sample Mass [g],220.8
Sample Volume [cm3],490.9
Sample Density [kg/m3],450

File: Homasote_Density_Wet_R2.csv
,Homasote_2_WET
Sample Mass [g],222.1
Sample Volume [cm3],493.9
Sample Density [kg/m3],450

File: Homasote_Density_Wet_R3.csv
,Homasote_3_WET
Sample Mass [g],216.5
Sample Volume [cm3],486.1
Sample Density [kg/m3],445

File: Homasote_Ignition_Temp_Properties.csv
Thermal Conductivity (W/m-K),0.076
Heat Capacity (J/kg-K),1546.0
Density (kg/m3),448.333