Folder: fsri_materials_database/01_Data/Homasote/MCC

Note: 01_Data/README.md
# Materials and Products Database
## 01_Data

Raw data generated from each apparatus are included here in plain-text format. The data is organized first by material, next by the short name of test apparatus used, and where applicable additional filtering by test settings.

### material.json

Each material directory contains a json file of the same name as the material. This file links the data stored in the repository as well as data and graphs produced by the accompanying scripts (__02_Scripts__) to the respective landing page for the material on the front-end website.

File: Homasote_MCC_30K_min_220317_R1.txt
Sample ID:	C:\MCC\MCC Cal\Test\Homasote_MCC_30K_min_220317_R1.txt
Sample Weight (mg):	4.64
Heating Rate (C/s):	0.5
Combustor Temp (C):	900
N2 Flow Rate (cc/min):	80
O2 Flow Rate (cc/min):	20
Calibration File:	C:\MCC\MCC Cal\Coeff1 JN10440_30_210304.txt.txt
T Correction Coefficients:	0	1.024463	0
Time Shift (s):	14
*
Time (s)	Temperature (C)	N2 flow rate (cc/min)	O2 flow rate (cc/min)	Flow Rate (cc/min)	Oxygen (%)	HRR (W/g)	Heating rate (C/s)
0.000	105.886	80.001	19.996	103.601	19.959	0.272	0.006
8.000	105.834	80.003	19.994	103.596	19.959	0.278	-0.009
16.000	105.898	80.003	19.994	103.679	19.943	1.391	0.024
24.000	106.325	80.001	19.996	103.718	19.934	2.055	0.069
32.000	107.103	80.002	19.994	103.775	19.926	2.563	0.109
40.001	108.336	80.001	19.994	103.802	19.920	2.990	0.160
48.000	110.001	80.002	19.995	103.839	19.917	3.226	0.229
56.000	112.095	80.000	19.994	103.853	19.913	3.521	0.316
64.000	114.536	80.003	19.994	103.875	19.910	3.699	0.366
72.000	117.286	80.003	19.994	103.875	19.908	3.874	0.332
80.000	120.421	80.000	19.993	103.886	19.903	4.230	0.421
88.000	123.789	80.002	19.996	103.878	19.906	3.971	0.442
96.000	127.378	80.002	19.995	103.878	19.906	3.982	0.465
104.001	131.101	80.000	19.995	103.879	19.907	3.924	0.459
112.000	134.965	80.001	19.995	103.880	19.906	3.970	0.502
120.000	138.920	80.001	19.995	103.865	19.912	3.584	0.480
128.000	142.921	80.002	19.994	103.856	19.910	3.714	0.493
136.000	147.010	80.000	19.994	103.856	19.915	3.359	0.505
144.000	151.066	80.002	19.993	103.848	19.918	3.154	0.497
152.000	155.099	80.002	19.995	103.842	19.915	3.376	0.470
160.000	159.122	80.000	19.995	103.834	19.911	3.637	0.530
168.000	163.062	80.001	19.995	103.823	19.913	3.469	0.521
176.000	167.018	80.000	19.995	103.821	19.910	3.736	0.475
184.000	170.895	80.000	19.996	103.813	19.907	3.924	0.484
192.000	174.756	80.000	19.996	103.811	19.907	3.910	0.481
200.000	178.700	80.002	19.996	103.813	19.907	3.954	0.486
208.000	182.603	80.002	19.996	103.756	19.902	4.254	0.519
216.000	186.504	80.002	19.995	103.808	19.903	4.171	0.487
224.000	190.400	80.004	19.995	103.808	19.897	4.581	0.499
232.000	194.284	80.003	19.994	103.803	19.895	4.740	0.470
240.000	198.217	80.000	19.995	103.808	19.892	4.965	0.499
248.000	202.141	80.002	19.995	103.810	19.889	5.205	0.516
256.000	206.107	80.002	19.994	103.810	19.883	5.606	0.490
264.000	210.060	80.000	19.994	103.810	19.884	5.538	0.492
272.000	214.027	80.000	19.995	103.808	19.874	6.205	0.503
280.000	217.978	80.002	19.994	103.803	19.867	6.695	0.471
288.000	221.989	80.002	19.995	103.805	19.861	7.107	0.523
296.000	225.926	80.001	19.994	103.806	19.851	7.811	0.497
304.000	230.002	80.004	19.996	103.795	19.842	8.457	0.497
312.000	233.974	80.002	19.994	103.782	19.826	9.548	0.490
320.000	238.003	80.000	19.995	103.795	19.822	9.864	0.525
328.000	241.965	80.001	19.995	103.785	19.815	10.320	0.507
336.000	245.962	80.001	19.995	103.801	19.803	11.164	0.475
344.000	249.975	80.002	19.995	103.776	19.791	12.038	0.533
352.000	253.928	80.002	19.995	103.773	19.785	12.464	0.488
360.000	257.867	80.002	19.995	103.775	19.779	12.876	0.516
368.000	261.757	80.002	19.996	103.798	19.772	13.320	0.462
376.000	265.648	80.003	19.994	103.805	19.767	13.670	0.473
384.000	269.618	80.002	19.994	103.809	19.763	13.955	0.507
392.000	273.616	80.004	19.996	103.808	19.760	14.165	0.490
400.000	277.559	80.002	19.995	103.810	19.750	14.869	0.467
408.000	281.509	80.001	19.995	103.822	19.742	15.438	0.488
416.000	285.462	80.002	19.994	103.841	19.727	16.505	0.473
424.000	289.445	80.000	19.995	103.835	19.709	17.764	0.475
432.000	293.510	80.002	19.995	103.851	19.692	18.916	0.507
440.000	297.517	80.001	19.996	103.872	19.671	20.431	0.516
448.000	301.525	80.001	19.996	103.870	19.644	22.259	0.491
456.000	305.485	80.003	19.995	103.883	19.621	23.904	0.475
464.000	309.548	80.003	19.995	103.889	19.590	26.100	0.518
472.000	313.638	80.003	19.995	103.911	19.552	28.713	0.526
480.000	317.706	80.001	19.996	103.914	19.521	30.930	0.538
488.000	321.732	80.002	19.997	103.924	19.480	33.745	0.514
496.000	325.764	80.000	19.994	103.931	19.438	36.718	0.514
504.000	329.814	80.000	19.994	103.964	19.390	40.056	0.489
512.000	333.812	80.000	19.995	103.967	19.341	43.495	0.485
520.000	337.790	80.002	19.994	103.996	19.293	46.862	0.478
528.000	341.746	80.002	19.994	104.007	19.235	50.913	0.498
536.000	345.733	80.003	19.996	104.009	19.185	54.445	0.481
544.000	349.729	80.002	19.996	104.043	19.135	57.953	0.522
552.000	353.744	80.002	19.994	104.042	19.083	61.572	0.514
560.000	357.713	80.001	19.996	104.047	19.044	64.290	0.506
568.000	361.692	79.999	19.996	104.057	19.026	65.572	0.515
576.000	365.676	79.999	19.996	104.023	19.037	64.702	0.529
584.000	369.615	80.000	19.994	103.968	19.098	60.459	0.499
592.000	373.597	80.001	19.994	103.922	19.204	52.995	0.486
600.000	377.620	80.002	19.996	103.856	19.352	42.654	0.500
608.000	381.668	80.002	19.995	103.805	19.515	31.245	0.512
616.000	385.706	80.003	19.995	103.769	19.666	20.742	0.502
624.000	389.780	80.004	19.994	103.759	19.760	14.160	0.507
632.000	393.884	80.002	19.995	103.744	19.815	10.358	0.534
640.000	397.959	80.001	19.995	103.735	19.838	8.723	0.536
648.000	402.041	80.001	19.995	103.740	19.847	8.118	0.517
656.000	406.193	80.002	19.995	103.749	19.851	7.812	0.529
664.000	410.276	80.002	19.996	103.731	19.856	7.445	0.555
672.000	414.344	80.002	19.995	103.734	19.858	7.365	0.518
680.000	418.408	80.003	19.995	103.734	19.858	7.365	0.467
688.000	422.481	80.002	19.994	103.734	19.858	7.306	0.504
696.000	426.562	80.003	19.995	103.731	19.861	7.095	0.516
704.000	430.593	80.003	19.994	103.733	19.860	7.209	0.507
712.000	434.650	80.003	19.994	103.732	19.865	6.870	0.513
720.000	438.652	80.001	19.994	103.735	19.871	6.401	0.492
728.000	442.665	80.002	19.996	103.729	19.873	6.278	0.516
736.000	446.572	80.002	19.995	103.717	19.876	6.088	0.475
744.000	450.508	80.002	19.994	103.731	19.874	6.245	0.473
752.000	454.483	79.999	19.997	103.728	19.880	5.808	0.487
760.000	458.492	80.003	19.995	103.729	19.885	5.446	0.507
768.000	462.638	80.005	19.993	103.729	19.885	5.417	0.505
776.000	466.767	80.000	19.994	103.730	19.886	5.369	0.508
784.000	470.867	80.002	19.994	103.727	19.893	4.864	0.553
792.000	475.079	80.003	19.995	103.726	19.896	4.694	0.531
800.000	479.197	80.003	19.994	103.726	19.903	4.201	0.505
808.000	483.322	79.998	19.994	103.722	19.906	3.997	0.500
816.000	487.366	80.000	19.996	103.729	19.907	3.897	0.500
824.000	491.394	80.000	19.994	103.716	19.909	3.762	0.472
832.000	495.482	80.002	19.995	103.702	19.916	3.282	0.514
840.000	499.478	80.000	19.995	103.718	19.917	3.192	0.517
848.000	503.473	80.001	19.996	103.697	19.915	3.335	0.530
856.000	507.388	80.002	19.995	103.703	19.916	3.279	0.488
864.000	511.397	80.003	19.994	103.705	19.916	3.256	0.515
872.000	515.420	80.004	19.995	103.708	19.921	2.945	0.539
880.000	519.515	80.000	19.995	103.706	19.923	2.794	0.523
888.000	523.587	80.001	19.993	103.719	19.923	2.775	0.506
896.000	527.639	80.001	19.995	103.715	19.923	2.773	0.507
904.000	531.757	80.000	19.995	103.698	19.929	2.402	0.542
912.000	535.878	80.000	19.996	103.710	19.925	2.643	0.533
920.000	539.924	80.002	19.995	103.692	19.929	2.404	0.493
928.000	543.998	80.002	19.995	103.696	19.923	2.790	0.531
936.000	548.120	80.003	19.996	103.693	19.925	2.631	0.487
944.000	552.205	80.003	19.996	103.699	19.925	2.659	0.514
952.000	556.322	80.001	19.995	103.704	19.923	2.767	0.510
960.000	560.372	80.000	19.995	103.703	19.924	2.753	0.503
968.000	564.471	80.000	19.994	103.707	19.926	2.587	0.515
976.000	568.524	80.002	19.994	103.696	19.929	2.390	0.519
984.001	572.537	80.001	19.994	103.692	19.929	2.403	0.494
992.001	576.600	80.002	19.995	103.694	19.928	2.419	0.497
1000.000	580.620	80.003	19.995	103.696	19.930	2.305	0.503
1008.000	584.584	80.002	19.995	103.692	19.927	2.515	0.490
1016.000	588.630	80.002	19.997	103.712	19.930	2.283	0.529
1024.000	592.647	80.002	19.995	103.692	19.929	2.347	0.493
1032.000	596.717	80.002	19.995	103.694	19.932	2.148	0.503
1040.000	600.775	80.001	19.994	103.695	19.933	2.109	0.499
1048.000	604.837	80.001	19.994	103.693	19.926	2.614	0.517
1056.001	608.914	80.002	19.994	103.704	19.927	2.535	0.483
1064.000	613.013	80.002	19.995	103.696	19.925	2.636	0.530
1072.001	617.095	80.001	19.994	103.692	19.924	2.750	0.500
1080.000	621.145	80.003	19.994	103.696	19.927	2.549	0.486
1088.000	625.233	80.002	19.994	103.697	19.924	2.752	0.515
1096.000	629.274	80.002	19.996	103.702	19.926	2.608	0.514
1104.001	633.356	80.001	19.994	103.696	19.926	2.605	0.471
1112.001	637.427	80.000	19.995	103.696	19.926	2.622	0.511
1120.000	641.465	80.000	19.995	103.709	19.923	2.812	0.500
1128.000	645.486	80.000	19.994	103.706	19.921	2.955	0.500
1136.000	649.537	80.001	19.995	103.727	19.926	2.609	0.524
1144.000	653.653	79.999	19.994	103.715	19.922	2.874	0.511
1152.001	657.853	80.001	19.994	103.732	19.922	2.847	0.550
1160.000	662.092	80.003	19.994	103.736	19.921	2.917	0.545
1168.001	666.411	80.001	19.993	103.735	19.918	3.168	0.544
1176.000	670.732	80.001	19.994	103.737	19.918	3.153	0.538
1184.000	675.117	80.003	19.995	103.738	19.913	3.486	0.582
1192.000	679.377	80.000	19.994	103.740	19.917	3.198	0.547
1200.000	683.615	80.001	19.996	103.745	19.914	3.407	0.515
1208.000	687.966	80.000	19.996	103.758	19.908	3.837	0.309
1216.001	692.173	79.999	19.994	103.761	19.907	3.893	0.518
1224.000	696.460	79.999	19.994	103.760	19.910	3.724	0.513
1232.000	700.588	80.001	19.996	103.766	19.911	3.612	0.516
1240.000	704.812	80.003	19.995	103.760	19.908	3.814	0.528
1248.000	708.974	80.003	19.994	103.751	19.910	3.723	0.496
1256.000	713.213	80.002	19.995	103.740	19.912	3.575	0.528
1264.000	717.543	80.004	19.993	103.730	19.909	3.759	0.544
1272.001	721.910	80.001	19.995	103.701	19.912	3.563	0.543
1280.000	726.150	80.001	19.994	103.695	19.914	3.397	0.543
1288.000	730.417	80.001	19.993	103.708	19.912	3.581	0.547
1296.000	734.606	80.000	19.996	103.693	19.913	3.522	0.496
1304.000	738.835	79.999	19.997	103.688	19.913	3.469	0.541
1312.000	743.037	80.002	19.994	103.690	19.914	3.408	0.534
1313.000	743.532	80.002	19.994	103.689	19.913	3.478	0.512

File: Homasote_MCC_30K_min_220317_R2.txt
Sample ID:	C:\MCC\MCC Cal\Test\Homasote_MCC_30K_min_220317_R2.txt
Sample Weight (mg):	4.23
Heating Rate (C/s):	0.5
Combustor Temp (C):	900
N2 Flow Rate (cc/min):	80
O2 Flow Rate (cc/min):	20
Calibration File:	C:\MCC\MCC Cal\Coeff1 JN10440_30_210304.txt.txt
T Correction Coefficients:	0	1.024463	0
Time Shift (s):	14
*
Time (s)	Temperature (C)	N2 flow rate (cc/min)	O2 flow rate (cc/min)	Flow Rate (cc/min)	Oxygen (%)	HRR (W/g)	Heating rate (C/s)
0.000	110.201	80.004	19.993	103.610	19.951	-0.464	-0.005
8.000	110.126	80.001	19.993	103.628	19.943	0.113	-0.005
16.000	110.248	80.001	19.995	103.643	19.929	1.225	0.048
24.000	110.646	80.000	19.994	103.787	19.910	2.671	0.059
32.000	111.559	80.003	19.996	103.796	19.908	2.820	0.127
40.001	112.910	80.002	19.994	103.725	19.905	3.050	0.186
48.000	114.588	80.001	19.994	103.832	19.904	3.132	0.221
56.000	116.537	80.003	19.995	103.831	19.901	3.326	0.234
64.000	118.846	80.003	19.992	103.838	19.898	3.541	0.277
72.000	121.313	80.001	19.996	103.854	19.896	3.726	0.293
80.001	124.102	80.004	19.994	103.855	19.894	3.915	0.342
88.000	127.098	80.003	19.995	103.863	19.891	4.112	0.377
96.000	130.269	80.001	19.994	103.862	19.890	4.187	0.381
104.000	133.536	80.003	19.994	103.848	19.892	4.014	0.402
112.000	136.991	80.001	19.998	103.852	19.892	4.015	0.428
120.000	140.549	80.001	19.995	103.851	19.893	3.938	0.407
128.000	144.223	79.999	19.994	103.850	19.893	3.985	0.483
136.000	147.855	80.003	19.994	103.849	19.891	4.089	0.460
144.000	151.634	80.001	19.995	103.848	19.904	3.154	0.487
152.000	155.430	80.003	19.994	103.845	19.892	4.057	0.316
160.000	159.206	80.004	19.994	103.827	19.891	4.106	0.458
168.000	163.115	80.002	19.994	103.843	19.895	3.825	0.464
176.000	167.040	80.002	19.995	103.835	19.888	4.331	0.481
184.000	170.900	80.001	19.992	103.841	19.890	4.216	0.456
192.000	174.817	80.000	19.995	103.840	19.892	4.033	0.485
200.000	178.788	80.000	19.995	103.840	19.891	4.096	0.522
208.000	182.759	80.000	19.996	103.820	19.887	4.395	0.477
216.000	186.769	80.002	19.995	103.814	19.898	3.546	0.521
224.000	190.729	80.003	19.995	103.809	19.887	4.457	0.495
232.000	194.749	80.002	19.996	103.825	19.883	4.705	0.547
240.000	198.721	80.002	19.994	103.823	19.881	4.841	0.472
248.000	202.782	80.004	19.994	103.817	19.875	5.334	0.487
256.000	206.813	80.003	19.994	103.811	19.867	5.945	0.535
264.000	210.759	80.000	19.996	103.734	19.858	6.632	0.518
272.000	214.764	80.000	19.995	103.800	19.856	6.805	0.527
280.000	218.706	80.001	19.996	103.804	19.851	7.184	0.517
288.000	222.608	80.000	19.997	103.800	19.843	7.799	0.485
296.000	226.518	80.001	19.997	103.796	19.837	8.250	0.524
304.000	230.483	80.003	19.995	103.806	19.827	9.038	0.491
312.000	234.372	80.002	19.995	103.788	19.820	9.547	0.483
320.000	238.351	80.001	19.995	103.786	19.812	10.192	0.496
328.000	242.273	80.002	19.994	103.803	19.804	10.743	0.503
336.000	246.240	80.001	19.995	103.790	19.798	11.207	0.507
344.000	250.243	80.001	19.994	103.792	19.791	11.784	0.530
352.000	254.175	80.002	19.995	103.797	19.783	12.352	0.471
360.000	258.064	80.003	19.995	103.782	19.782	12.433	0.480
368.000	262.005	80.000	19.996	103.806	19.773	13.129	0.494
376.000	265.934	80.002	19.995	103.802	19.768	13.559	0.503
384.000	269.976	80.002	19.996	103.811	19.765	13.778	0.550
392.000	274.049	80.001	19.995	103.810	19.755	14.543	0.498
400.000	278.146	80.003	19.994	103.810	19.750	14.903	0.531
408.000	282.176	80.003	19.996	103.814	19.735	16.076	0.491
416.000	286.226	79.999	19.997	103.810	19.729	16.532	0.511
424.000	290.181	80.002	19.995	103.822	19.712	17.802	0.491
432.000	294.101	80.003	19.995	103.846	19.693	19.246	0.494
440.001	298.062	80.002	19.994	103.854	19.676	20.611	0.501
448.000	302.082	80.001	19.995	103.857	19.653	22.317	0.494
456.000	306.090	80.002	19.995	103.880	19.626	24.447	0.527
464.001	310.205	80.004	19.995	103.889	19.597	26.620	0.528
472.000	314.344	80.002	19.997	103.885	19.563	29.219	0.548
480.000	318.437	80.004	19.996	103.889	19.530	31.795	0.511
488.000	322.434	80.005	19.994	103.913	19.491	34.738	0.497
496.000	326.420	80.002	19.996	103.921	19.452	37.786	0.510
504.000	330.341	80.001	19.998	103.929	19.418	40.361	0.460
512.000	334.292	80.002	19.994	103.955	19.371	44.002	0.534
520.000	338.282	80.003	19.994	103.963	19.326	47.487	0.484
528.000	342.165	80.002	19.994	103.970	19.275	51.362	0.454
536.000	346.118	80.001	19.995	103.993	19.225	55.242	0.495
544.000	350.071	80.002	19.995	104.001	19.179	58.715	0.505
552.000	354.052	80.004	19.995	104.012	19.139	61.807	0.474
560.000	358.132	80.004	19.994	104.021	19.105	64.447	0.512
568.000	362.202	80.002	20.000	104.011	19.091	65.505	0.519
576.000	366.327	80.002	19.995	103.984	19.111	63.922	0.545
584.000	370.484	80.001	19.995	103.932	19.171	59.262	0.520
592.000	374.696	80.002	19.995	103.901	19.282	50.769	0.533
600.000	378.810	80.003	19.994	103.827	19.426	39.688	0.518
608.000	382.928	80.001	19.994	103.776	19.575	28.250	0.501
616.000	386.945	80.002	19.996	103.746	19.701	18.617	0.484
624.000	390.963	80.003	19.995	103.736	19.780	12.588	0.519
632.000	395.011	80.001	19.996	103.728	19.821	9.499	0.496
640.000	398.937	80.003	19.995	103.732	19.838	8.179	0.507
648.000	402.939	80.001	19.994	103.748	19.842	7.892	0.486
656.000	407.020	80.002	19.997	103.733	19.842	7.837	0.523
664.000	411.050	80.000	19.996	103.731	19.841	7.941	0.497
672.000	415.071	80.002	19.995	103.728	19.843	7.750	0.492
680.000	419.146	80.002	19.994	103.733	19.849	7.298	0.510
688.000	423.255	80.000	19.995	103.729	19.845	7.659	0.515
696.000	427.307	80.001	19.995	103.731	19.846	7.585	0.521
704.000	431.272	80.004	19.994	103.729	19.851	7.185	0.487
712.000	435.300	80.001	19.996	103.724	19.851	7.158	0.487
720.000	439.206	80.004	19.995	103.719	19.855	6.840	0.493
728.000	443.136	80.004	19.995	103.726	19.859	6.591	0.500
736.000	447.098	80.002	19.995	103.720	19.859	6.549	0.485
744.000	451.125	80.002	19.995	103.719	19.863	6.230	0.510
752.000	455.218	80.001	19.996	103.725	19.867	5.982	0.517
760.001	459.345	80.001	19.995	103.722	19.868	5.868	0.530
768.000	463.404	80.002	19.993	103.728	19.873	5.498	0.518
776.000	467.474	80.001	19.995	103.709	19.870	5.731	0.535
784.000	471.509	80.002	19.994	103.711	19.878	5.110	0.490
792.000	475.518	80.003	19.998	103.701	19.881	4.879	0.506
800.000	479.575	80.004	19.995	103.708	19.884	4.674	0.540
808.000	483.615	80.004	19.994	103.702	19.885	4.583	0.508
816.000	487.621	80.001	19.997	103.701	19.890	4.153	0.490
824.000	491.672	80.002	19.995	103.702	19.893	3.954	0.500
832.000	495.800	80.002	19.995	103.721	19.898	3.597	0.527
840.000	499.822	79.999	19.994	103.699	19.898	3.582	0.496
848.000	503.831	80.000	19.996	103.693	19.897	3.627	0.475
856.000	507.776	80.002	19.994	103.690	19.900	3.400	0.481
864.000	511.711	80.004	19.995	103.691	19.902	3.277	0.490
872.000	515.728	80.002	19.996	103.693	19.904	3.084	0.500
880.000	519.763	80.004	19.995	103.699	19.904	3.101	0.501
888.000	523.776	80.005	19.994	103.697	19.905	3.027	0.532
896.000	527.743	80.001	19.993	103.702	19.903	3.175	0.485
904.000	531.783	80.001	19.994	103.709	19.906	2.959	0.491
912.000	535.827	80.001	19.995	103.693	19.904	3.118	0.500
920.000	539.904	80.001	19.993	103.697	19.906	2.969	0.487
928.000	543.988	80.000	19.994	103.707	19.906	2.994	0.530
936.000	548.086	80.002	19.995	103.683	19.903	3.192	0.514
944.000	552.187	80.004	19.995	103.690	19.906	2.993	0.497
952.000	556.453	80.002	19.996	103.707	19.907	2.850	0.550
960.000	560.598	80.003	19.995	103.697	19.905	3.046	0.519
968.000	564.839	80.004	19.994	103.696	19.907	2.852	0.515
976.000	568.960	80.004	19.994	103.692	19.906	2.980	0.515
984.000	573.055	80.002	19.995	103.697	19.904	3.092	0.499
992.000	577.136	80.003	19.995	103.691	19.907	2.878	0.483
1000.000	581.062	80.002	19.995	103.702	19.906	2.972	0.509
1008.000	585.099	80.001	19.994	103.704	19.906	2.968	0.523
1016.000	589.318	80.002	19.994	103.715	19.906	2.991	0.536
1024.001	593.675	80.004	19.996	103.697	19.905	3.043	0.567
1032.001	598.062	80.002	19.995	103.707	19.905	3.037	0.580
1040.000	602.474	80.003	19.994	103.706	19.909	2.764	0.548
1048.000	606.837	80.006	19.994	103.702	19.907	2.882	0.542
1056.000	611.125	80.001	19.994	103.691	19.906	2.952	0.527
1064.000	615.384	80.001	19.995	103.697	19.903	3.222	0.533
1072.000	619.629	80.003	19.995	103.701	19.901	3.315	0.557
1080.001	623.784	80.003	19.994	103.695	19.903	3.196	0.531
1088.000	627.957	80.002	19.994	103.707	19.904	3.135	0.520
1096.001	632.120	80.002	19.995	103.697	19.907	2.882	0.555
1104.000	636.257	80.003	19.995	103.696	19.901	3.325	0.523
1112.000	640.320	80.001	19.995	103.650	19.901	3.349	0.480
1120.000	644.300	80.003	19.996	103.717	19.905	3.035	0.479
1128.000	648.383	80.004	19.994	103.719	19.900	3.411	0.508
1136.000	652.505	80.003	19.995	103.712	19.902	3.250	0.493
1144.000	656.625	80.001	19.995	103.727	19.898	3.562	0.495
1152.000	660.737	80.001	19.994	103.793	19.900	3.405	0.475
1160.001	664.840	80.001	19.993	103.724	19.900	3.456	0.504
1168.001	668.867	80.001	19.994	103.734	19.897	3.613	0.482
1176.000	672.910	80.003	19.995	103.730	19.895	3.789	0.472
1184.000	676.844	80.003	19.994	103.728	19.891	4.071	0.384
1192.000	681.049	80.002	19.995	103.740	19.895	3.817	0.503
1200.000	685.087	80.002	19.994	103.747	19.892	4.070	0.500
1208.000	689.120	80.004	19.995	103.733	19.889	4.290	0.526
1216.001	693.151	80.000	19.995	103.751	19.889	4.290	0.528
1224.000	697.259	80.001	19.994	103.737	19.892	4.027	0.543
1232.001	701.446	80.003	19.995	103.740	19.895	3.783	0.548
1240.000	705.699	80.002	19.994	103.733	19.894	3.914	0.549
1248.001	709.882	80.001	19.994	103.744	19.899	3.509	0.499
1256.000	714.024	80.004	19.994	103.723	19.895	3.811	0.516
1264.001	718.204	80.004	19.995	103.711	19.897	3.625	0.514
1272.000	722.336	80.003	19.994	103.699	19.899	3.470	0.528
1280.000	726.396	80.002	19.995	103.694	19.899	3.500	0.496
1288.000	730.585	80.004	19.993	103.693	19.901	3.378	0.528
1296.001	734.650	80.003	19.995	103.694	19.901	3.325	0.454
1304.001	738.654	80.003	19.997	103.690	19.899	3.463	0.497
1312.000	742.686	80.002	19.995	103.692	19.897	3.654	0.520
1313.500	743.484	80.000	19.996	103.690	19.898	3.597	0.529