Folder: fsri_materials_database/01_Data/Homasote/MCC (part 2)

File: Homasote_MCC_30K_min_220317_R3.txt
Sample ID:	C:\MCC\MCC Cal\Test\Homasote_MCC_30K_min_220317_R3.txt
Sample Weight (mg):	4.24
Heating Rate (C/s):	0.5
Combustor Temp (C):	900
N2 Flow Rate (cc/min):	80
O2 Flow Rate (cc/min):	20
Calibration File:	C:\MCC\MCC Cal\Coeff1 JN10440_30_210304.txt.txt
T Correction Coefficients:	0	1.024463	0
Time Shift (s):	14
*
Time (s)	Temperature (C)	N2 flow rate (cc/min)	O2 flow rate (cc/min)	Flow Rate (cc/min)	Oxygen (%)	HRR (W/g)	Heating rate (C/s)
0.000	109.088	80.003	19.994	103.618	19.975	-0.192	-0.009
7.999	109.089	79.998	19.996	103.639	19.969	0.301	0.017
16.000	109.113	80.005	19.991	103.681	19.964	0.682	0.018
24.000	109.372	80.001	19.994	103.779	19.949	1.826	0.061
32.000	110.070	80.001	19.994	103.816	19.939	2.569	0.119
40.000	111.272	80.000	19.995	103.827	19.926	3.584	0.193
47.999	112.819	80.000	19.996	103.841	19.929	3.359	0.192
55.999	114.806	80.000	19.994	103.853	19.926	3.554	0.269
63.999	117.110	80.000	19.995	103.869	19.925	3.656	0.309
71.999	119.678	80.002	19.996	103.856	19.923	3.840	0.317
80.000	122.447	80.003	19.996	103.836	19.919	4.114	0.319
87.999	125.481	80.002	19.994	103.883	19.920	4.003	0.397
96.000	128.673	80.003	19.993	103.886	19.921	3.934	0.425
103.999	131.976	80.002	19.993	103.895	19.920	4.032	0.438
111.999	135.507	80.000	19.994	103.885	19.921	3.945	0.426
119.999	139.153	80.000	19.994	103.889	19.922	3.921	0.463
128.000	142.852	80.001	19.996	103.885	19.919	4.123	0.439
136.000	146.712	80.001	19.995	103.863	19.922	3.923	0.445
144.000	150.630	80.001	19.994	103.878	19.924	3.696	0.498
152.000	154.535	80.001	19.995	103.858	19.922	3.857	0.492
160.000	158.458	80.001	19.995	103.853	19.922	3.859	0.500
168.000	162.376	80.000	19.995	103.848	19.919	4.083	0.504
176.000	166.406	80.003	19.993	103.849	19.918	4.225	0.506
184.000	170.359	80.003	19.994	103.848	19.917	4.234	0.504
192.000	174.299	80.001	19.993	103.836	19.919	4.120	0.490
200.000	178.200	80.001	19.995	103.817	19.918	4.210	0.483
208.000	182.110	80.001	19.993	103.830	19.916	4.333	0.457
216.000	186.050	80.001	19.995	103.818	19.916	4.356	0.487
224.000	189.968	80.000	19.994	103.829	19.911	4.726	0.478
232.000	193.907	80.001	19.994	103.812	19.906	5.082	0.509
240.000	197.774	80.002	19.995	103.818	19.902	5.416	0.459
248.000	201.705	80.001	19.996	103.817	19.901	5.452	0.504
256.000	205.638	80.002	19.995	103.809	19.893	6.104	0.492
264.000	209.642	80.002	19.995	103.805	19.887	6.564	0.514
272.000	213.616	80.001	19.994	103.821	19.884	6.810	0.508
280.000	217.629	80.000	19.995	103.815	19.878	7.213	0.505
288.000	221.610	80.001	19.995	103.811	19.873	7.606	0.477
296.000	225.650	80.001	19.993	103.808	19.864	8.341	0.519
304.000	229.631	80.000	19.995	103.812	19.858	8.771	0.500
312.000	233.578	80.004	19.996	103.802	19.851	9.339	0.507
320.000	237.486	80.001	19.996	103.808	19.841	10.089	0.490
328.000	241.344	80.002	19.995	103.802	19.831	10.856	0.477
336.000	245.283	80.003	19.995	103.808	19.827	11.131	0.496
344.000	249.293	80.002	19.994	103.806	19.816	11.957	0.510
352.000	253.377	80.000	19.995	103.810	19.809	12.497	0.505
360.000	257.433	80.002	19.995	103.810	19.804	12.883	0.510
368.000	261.469	80.001	19.993	103.812	19.798	13.329	0.513
376.000	265.389	80.001	19.996	103.809	19.790	13.968	0.488
384.000	269.297	80.000	19.994	103.809	19.783	14.477	0.471
392.000	273.314	80.003	19.995	103.811	19.774	15.153	0.500
400.000	277.307	80.002	19.993	103.815	19.769	15.599	0.511
408.000	281.267	80.003	19.994	103.836	19.762	16.123	0.512
416.000	285.304	80.002	19.996	103.838	19.747	17.276	0.516
424.000	289.206	80.003	19.997	103.852	19.728	18.696	0.485
432.000	293.189	80.002	19.994	103.862	19.714	19.790	0.493
440.000	297.138	80.002	19.994	103.855	19.694	21.288	0.494
448.000	301.105	80.001	19.996	103.879	19.674	22.838	0.487
456.000	305.049	80.001	19.994	103.886	19.647	24.882	0.491
464.000	309.030	80.001	19.995	103.887	19.620	26.971	0.496
472.000	313.020	80.003	19.996	103.888	19.584	29.699	0.482
480.000	317.059	80.003	19.994	103.897	19.551	32.281	0.529
488.000	320.956	80.002	19.995	103.920	19.519	34.703	0.461
496.000	324.947	80.004	19.993	103.931	19.483	37.462	0.474
504.000	328.932	80.004	19.993	103.946	19.443	40.522	0.509
512.000	332.979	80.001	19.994	103.964	19.395	44.209	0.522
520.000	336.987	80.002	19.995	103.972	19.344	48.091	0.507
528.000	340.920	80.004	19.994	103.983	19.299	51.555	0.484
536.000	344.848	80.001	19.995	104.005	19.248	55.451	0.509
544.000	348.860	80.001	19.995	104.023	19.198	59.293	0.522
552.000	352.867	80.003	19.994	104.021	19.158	62.394	0.513
560.000	356.878	80.002	19.994	104.023	19.128	64.659	0.499
568.000	360.902	80.002	19.994	104.008	19.124	64.972	0.509
576.000	364.932	80.003	19.994	103.988	19.150	62.908	0.513
584.000	368.977	80.002	19.994	103.944	19.220	57.532	0.523
592.000	373.060	80.001	19.995	103.898	19.320	49.873	0.534
600.000	377.220	80.002	19.994	103.851	19.447	40.151	0.529
608.000	381.335	80.002	19.994	103.798	19.588	29.402	0.528
616.000	385.441	80.003	19.994	103.773	19.707	20.301	0.486
624.000	389.499	80.000	19.995	103.769	19.792	13.829	0.480
632.000	393.565	80.004	19.996	103.744	19.837	10.399	0.536
640.000	397.570	80.004	19.996	103.733	19.861	8.566	0.477
648.000	401.560	80.002	19.994	103.735	19.867	8.098	0.517
656.000	405.557	80.002	19.996	103.734	19.869	7.949	0.514
664.000	409.495	80.004	19.996	103.747	19.874	7.575	0.463
672.000	413.578	80.002	19.995	103.746	19.873	7.610	0.516
680.000	417.617	80.002	19.994	103.746	19.875	7.472	0.484
688.000	421.645	80.001	19.994	103.735	19.879	7.165	0.499
696.000	425.684	80.001	19.994	103.738	19.878	7.254	0.499
704.000	429.674	80.001	19.995	103.734	19.881	6.972	0.498
712.000	433.698	80.002	19.995	103.734	19.877	7.332	0.499
720.000	437.830	80.002	19.995	103.730	19.882	6.919	0.521
728.000	441.934	80.002	19.995	103.731	19.881	7.042	0.537
736.000	445.997	80.003	19.995	103.734	19.884	6.769	0.532
744.000	449.995	80.003	19.994	103.731	19.890	6.289	0.501
752.000	453.994	80.002	19.994	103.735	19.889	6.385	0.485
760.000	458.042	80.001	19.994	103.732	19.892	6.142	0.500
768.000	462.069	80.001	19.993	103.730	19.895	5.950	0.522
776.000	466.024	80.002	19.995	103.727	19.895	5.950	0.486
784.000	470.077	80.000	19.997	103.728	19.902	5.438	0.505
792.000	474.164	80.002	19.995	103.724	19.905	5.156	0.523
800.000	478.240	80.002	19.995	103.731	19.909	4.883	0.516
808.000	482.262	80.001	19.996	103.722	19.913	4.589	0.523
816.000	486.307	80.001	19.995	103.726	19.918	4.214	0.519
824.000	490.372	80.003	19.993	103.730	19.916	4.352	0.504
832.000	494.486	80.002	19.995	103.727	19.922	3.911	0.538
840.000	498.607	80.002	19.995	103.710	19.918	4.187	0.506
848.000	502.740	80.003	19.995	103.724	19.917	4.296	0.530
856.000	506.802	80.002	19.994	103.718	19.921	3.949	0.489
864.000	510.841	80.001	19.994	103.716	19.923	3.804	0.501
872.000	514.817	80.002	19.994	103.706	19.923	3.816	0.499
880.000	518.768	80.003	19.995	103.713	19.924	3.695	0.514
888.000	522.726	80.003	19.995	103.727	19.927	3.502	0.506
896.000	526.750	80.003	19.995	103.722	19.927	3.534	0.501
904.000	530.824	80.003	19.995	103.720	19.926	3.562	0.499
912.000	534.929	80.002	19.993	103.700	19.926	3.578	0.495
920.000	538.978	80.001	19.995	103.702	19.923	3.767	0.511
928.000	543.010	80.002	19.994	103.710	19.924	3.706	0.523
936.000	547.081	80.002	19.995	103.729	19.927	3.471	0.506
944.000	551.251	79.999	19.994	103.723	19.923	3.830	0.531
952.000	555.486	80.001	19.995	103.724	19.928	3.444	0.495
960.000	559.675	80.002	19.994	103.714	19.924	3.706	0.521
968.000	564.001	80.002	19.996	103.719	19.923	3.780	0.553
976.000	568.360	80.002	19.995	103.711	19.922	3.907	0.550
984.000	572.807	80.003	19.995	103.719	19.920	4.007	0.532
992.000	577.358	80.000	19.996	103.731	19.922	3.871	0.570
1000.000	581.773	80.000	19.996	103.728	19.923	3.814	0.557
1008.000	586.144	80.001	19.993	103.724	19.925	3.676	0.537
1016.000	590.468	80.002	19.994	103.715	19.927	3.534	0.540
1024.000	594.678	80.000	19.996	103.715	19.926	3.604	0.546
1031.999	598.783	80.002	19.994	103.695	19.924	3.703	0.510
1039.999	602.833	80.001	19.995	103.716	19.924	3.697	0.501
1047.999	606.926	80.003	19.995	103.712	19.925	3.655	0.488
1055.999	610.990	80.003	19.996	103.700	19.925	3.682	0.491
1064.000	615.120	80.004	19.994	103.723	19.920	4.063	0.509
1071.999	619.250	80.001	19.994	103.710	19.924	3.731	0.535
1080.000	623.433	80.001	19.995	103.710	19.923	3.817	0.551
1087.999	627.567	80.002	19.995	103.724	19.922	3.845	0.493
1095.999	631.743	80.002	19.996	103.710	19.923	3.841	0.487
1104.000	635.930	80.003	19.994	103.710	19.924	3.729	0.516
1111.999	640.113	80.003	19.994	103.724	19.925	3.679	0.558
1120.000	644.235	80.004	19.996	103.725	19.922	3.863	0.521
1128.000	648.389	80.002	19.994	103.733	19.923	3.831	0.564
1135.999	652.507	80.003	19.994	103.733	19.923	3.837	0.525
1144.000	656.659	80.005	19.995	103.730	19.924	3.736	0.512
1152.000	660.759	80.002	19.994	103.729	19.920	4.013	0.536
1160.000	664.863	80.002	19.995	103.730	19.919	4.132	0.515
1168.000	668.947	80.003	19.996	103.743	19.919	4.111	0.542
1176.000	672.944	80.001	19.996	103.737	19.919	4.121	0.463
1184.000	676.979	80.002	19.995	103.734	19.916	4.342	0.492
1192.000	681.004	80.003	19.994	103.744	19.915	4.446	0.486
1200.000	685.101	80.003	19.994	103.744	19.918	4.198	0.508
1208.000	689.046	80.004	19.995	103.742	19.921	3.971	0.513
1216.000	692.896	80.004	19.994	103.742	19.916	4.348	0.484
1224.000	696.671	80.004	19.993	103.745	19.913	4.604	0.471
1232.000	700.410	80.002	19.994	103.748	19.913	4.604	0.485
1240.000	704.287	80.003	19.994	103.731	19.915	4.425	0.495
1248.000	708.163	80.003	19.994	103.745	19.918	4.152	0.448
1256.000	712.087	80.004	19.995	103.707	19.918	4.169	0.480
1264.000	716.136	79.998	19.997	103.713	19.919	4.099	0.502
1272.000	720.173	80.002	19.995	103.696	19.918	4.177	0.494
1280.000	724.267	80.003	19.994	103.689	19.912	4.636	0.517
1288.000	728.484	80.002	19.994	103.705	19.916	4.316	0.572
1296.000	732.715	80.003	19.993	103.695	19.922	3.912	0.520
1304.000	736.825	80.005	19.995	103.691	19.921	3.961	0.492
1312.000	741.040	80.002	19.994	103.703	19.920	4.020	0.517
1316.500	743.362	80.001	19.995	103.696	19.919	4.118	0.478