Folder: fsri_materials_database/01_Data/Cotton_Raw/STA/N2/10K_min

Note: 01_Data/README.md
# Materials and Products Database
## 01_Data

Raw data generated from each apparatus are included here in plain-text format. The data is organized first by material, next by the short name of test apparatus used, and where applicable additional filtering by test settings.

### material.json

Each material directory contains a json file of the same name as the material. This file links the data stored in the repository as well as data and graphs produced by the accompanying scripts (__02_Scripts__) to the respective landing page for the material on the front-end website.

File: Cotton_Raw_STA_N2_10KData_210708_R3.csv
##Temp./Â°C,Time/min,Mass loss(subtr.2)/mg,DSC(subtr.2)/(mW/mg),Sensit./(uV/mW)
49.277,10.00917,-0.05298,0.02221077,0.61829
51.877,12.2468,-0.05912507,0.0760917,0.61967
54.477,12.88299,-0.06886255,0.10826,0.62102
57.077,13.386,-0.06318944,0.1304,0.62234
59.677,13.8296,-0.06347474,0.14817,0.62365
62.277,14.23877,-0.06672019,0.16837,0.62493
64.877,14.62239,-0.06977548,0.18469,0.62619
67.477,14.9842,-0.07119597,0.19895,0.62742
70.077,15.3324,-0.07535802,0.21123,0.62863
72.677,15.66676,-0.07663249,0.23154,0.62982
75.277,15.9883,-0.08010747,0.24209,0.63098
77.877,16.30174,-0.08374579,0.25535,0.63212
80.477,16.60651,-0.08449918,0.26826,0.63323
83.077,16.90367,-0.08903982,0.27376,0.63432
85.677,17.1947,-0.09443489,0.28178,0.63539
88.277,17.47968,-0.09467246,0.28652,0.63643
90.877,17.75927,-0.10178,0.29353,0.63745
93.477,18.03375,-0.09990561,0.28987,0.63845
96.077,18.30385,-0.10244,0.28838,0.63942
98.677,18.5707,-0.11078,0.29049,0.64037
101.277,18.83577,-0.10766,0.28238,0.6413
103.877,19.09675,-0.10936,0.27428,0.6422
106.477,19.35696,-0.11298,0.26695,0.64308
109.077,19.6144,-0.11298,0.26526,0.64393
111.677,19.87184,-0.1145,0.25862,0.64476
114.277,20.12554,-0.11562,0.25748,0.64557
116.877,20.37889,-0.11561,0.25198,0.64635
119.477,20.6309,-0.11693,0.24748,0.64711
122.077,20.8814,-0.11955,0.24562,0.64784
124.677,21.12903,-0.11693,0.24732,0.64855
127.277,21.37673,-0.11958,0.24478,0.64924
129.877,21.62262,-0.12088,0.24205,0.64991
132.477,21.8669,-0.12087,0.23597,0.65055
135.077,22.1101,-0.12088,0.24293,0.65117
137.677,22.35218,-0.12088,0.24148,0.65176
140.277,22.59283,-0.1222,0.24564,0.65233
142.877,22.83238,-0.12318,0.24827,0.65288
145.477,23.07089,-0.12207,0.24864,0.6534
148.077,23.30925,-0.12351,0.25261,0.65391
150.677,23.5453,-0.1222,0.25318,0.65438
153.277,23.7824,-0.12614,0.25597,0.65484
155.877,24.01875,-0.12546,0.25503,0.65527
158.477,24.25473,-0.12582,0.26256,0.65568
161.077,24.49014,-0.12352,0.26141,0.65607
163.677,24.72555,-0.12483,0.26676,0.65643
166.277,24.96071,-0.12582,0.27662,0.65677
168.877,25.19584,-0.1357,0.27927,0.65709
171.477,25.4309,-0.12812,0.28078,0.65739
174.077,25.6651,-0.12779,0.28316,0.65766
176.677,25.8997,-0.12911,0.28941,0.65791
179.277,26.13365,-0.12976,0.29251,0.65814
181.877,26.3668,-0.1324,0.29976,0.65835
184.477,26.6,-0.13239,0.30627,0.65853
187.077,26.8322,-0.13377,0.31152,0.65869
189.677,27.06472,-0.13504,0.31983,0.65883
192.277,27.2965,-0.13371,0.3133,0.65895
194.877,27.52836,-0.13635,0.3129,0.65905
197.477,27.7591,-0.13229,0.31774,0.65913
200.077,27.9908,-0.13952,0.31957,0.65918
202.677,28.22226,-0.13959,0.32097,0.65921
205.277,28.45262,-0.13997,0.323,0.65922
207.877,28.68422,-0.14266,0.32569,0.65921
210.477,28.91507,-0.14392,0.32662,0.65918
213.077,29.14705,-0.14761,0.32495,0.65913
215.677,29.3782,-0.14923,0.3245,0.65906
218.277,29.6096,-0.15181,0.32225,0.65897
220.877,29.84122,-0.15476,0.31712,0.65885
223.477,30.0728,-0.15888,0.31324,0.65872
226.077,30.3049,-0.16298,0.30648,0.65856
228.677,30.5365,-0.16825,0.30704,0.65839
231.277,30.7687,-0.17353,0.30921,0.65819
233.877,31.0004,-0.1811,0.31084,0.65798
236.477,31.2325,-0.18844,0.31956,0.65775
239.077,31.4649,-0.19669,0.32022,0.65749
241.677,31.69684,-0.20603,0.32398,0.65722
244.277,31.92929,-0.21817,0.33714,0.65693
246.877,32.16198,-0.23012,0.34722,0.65661
249.477,32.3939,-0.24504,0.36424,0.65628
252.077,32.6268,-0.25948,0.38338,0.65593
254.677,32.85895,-0.27673,0.40607,0.65556
257.277,33.0916,-0.29308,0.40721,0.65518
259.877,33.3235,-0.31064,0.38789,0.65477
262.477,33.5561,-0.33148,0.37244,0.65435
265.077,33.78859,-0.35688,0.36311,0.65391
267.677,34.02094,-0.3763,0.36105,0.65345
270.277,34.2545,-0.40184,0.3621,0.65297
272.877,34.48772,-0.42619,0.36696,0.65247
275.477,34.72067,-0.45556,0.36951,0.65196
278.077,34.9542,-0.48834,0.37288,0.65143
280.677,35.18731,-0.51898,0.38129,0.65088
283.277,35.42143,-0.55569,0.39109,0.65032
285.877,35.65444,-0.59274,0.39565,0.64974
288.477,35.8893,-0.63403,0.40374,0.64914
291.077,36.12334,-0.6777,0.41512,0.64852
293.677,36.35731,-0.72673,0.42548,0.64789
296.277,36.59218,-0.77854,0.43503,0.64725
298.877,36.82694,-0.83012,0.44715,0.64658
301.477,37.06149,-0.88925,0.46294,0.6459
304.077,37.29619,-0.95111,0.47256,0.64521
306.677,37.53152,-1.01851,0.48398,0.6445
309.277,37.76661,-1.08787,0.49422,0.64378
311.877,38.00205,-1.16347,0.50442,0.64304
314.477,38.2376,-1.24476,0.51715,0.64228
317.077,38.47279,-1.33222,0.5296,0.64151
319.677,38.70763,-1.42995,0.55104,0.64073
322.277,38.94407,-1.53364,0.56629,0.63993
324.877,39.1809,-1.65182,0.5889,0.63912
327.477,39.41733,-1.7851,0.60612,0.63829
330.077,39.65447,-1.93786,0.60226,0.63745
332.677,39.89079,-2.09776,0.55574,0.6366
335.277,40.1288,-2.25307,0.46302,0.63573
337.877,40.367,-2.3735,0.38077,0.63485
340.477,40.60507,-2.46049,0.30359,0.63396
343.077,40.84415,-2.5221,0.24125,0.63305
345.677,41.08303,-2.57405,0.19713,0.63213
348.277,41.32192,-2.5863,0.16156,0.6312
350.877,41.56114,-2.6062,0.14433,0.63026
353.477,41.8003,-2.62002,0.13249,0.6293
356.077,42.0403,-2.63682,0.12288,0.62833
358.677,42.27997,-2.64956,0.11518,0.62735
361.277,42.52004,-2.65879,0.10964,0.62636
363.877,42.75971,-2.67287,0.10674,0.62536
366.477,43.00076,-2.6845,0.10263,0.62435
369.077,43.24142,-2.69433,0.10006,0.62332
371.677,43.48196,-2.70826,0.10081,0.62229
374.277,43.72315,-2.71685,0.09872099,0.62125
376.877,43.96415,-2.72963,0.09929337,0.62019
379.477,44.20515,-2.74086,0.09178429,0.61913
382.077,44.44672,-2.75331,0.09617087,0.61805
384.677,44.68872,-2.76532,0.09614368,0.61696
387.277,44.93084,-2.77495,0.09085141,0.61587
389.877,45.17317,-2.78627,0.08956524,0.61477
392.477,45.41576,-2.79572,0.08578089,0.61365
395.077,45.65872,-2.80622,0.08164101,0.61253
397.677,45.902,-2.8173,0.08215231,0.6114
400.277,46.1456,-2.82855,0.0734872,0.61026
402.877,46.38944,-2.83828,0.0708936,0.60911
405.477,46.63394,-2.84747,0.06925445,0.60796
408.077,46.87855,-2.85859,0.06703062,0.6068
410.677,47.12318,-2.86815,0.06202991,0.60562
413.277,47.3681,-2.87652,0.06110894,0.60445
415.877,47.6128,-2.88621,0.05750147,0.60326
418.477,47.8581,-2.89472,0.05147584,0.60207
421.077,48.10308,-2.90364,0.05294628,0.60087
423.677,48.34896,-2.91195,0.04648599,0.59966
426.277,48.59432,-2.91863,0.0478583,0.59845
428.877,48.8401,-2.92488,0.04386544,0.59722
431.477,49.0862,-2.93679,0.03604541,0.596
434.077,49.33272,-2.94325,0.0329065,0.59477
436.677,49.57938,-2.93916,0.02506641,0.59353
439.277,49.8257,-2.95872,0.02276576,0.59228
441.877,50.07318,-2.96891,0.02488361,0.59104
444.477,50.31978,-2.97039,0.02179398,0.58978
447.077,50.56657,-2.98121,0.01753742,0.58852
449.677,50.81442,-2.98418,0.02198092,0.58726
452.277,51.06265,-2.99101,0.02021882,0.58599
454.877,51.311,-2.99962,0.01572039,0.58471
457.477,51.5603,-2.99969,0.01355125,0.58344
460.077,51.80953,-3.01155,0.01332061,0.58215
462.677,52.05855,-3.01331,0.01160423,0.58087
465.277,52.3075,-3.02241,0.01101394,0.57958
467.877,52.5563,-3.02588,0.01267867,0.57828
470.477,52.8059,-3.02998,0.01127601,0.57699
473.077,53.05535,-3.03417,0.00872644,0.57569
475.677,53.30536,-3.042,0.01202085,0.57438
478.277,53.55519,-3.04422,0.01103667,0.57308
480.877,53.806,-3.04845,0.00609405,0.57177
483.477,54.0569,-3.05169,0.008855348,0.57046
486.077,54.3079,-3.05805,0.009724579,0.56914
488.677,54.55996,-3.0608,0.009625362,0.56783
491.277,54.81175,-3.06504,0.01499713,0.56651
493.877,55.06305,-3.06815,0.01079286,0.56519
496.477,55.3144,-3.07068,0.009395627,0.56387
499.077,55.56672,-3.07423,0.01328884,0.56255
501.677,55.8186,-3.07944,0.01464491,0.56122
504.277,56.0715,-3.08383,0.02298775,0.5599
506.877,56.32465,-3.08606,0.02486111,0.55857
509.477,56.5776,-3.08646,0.02490826,0.55724
512.077,56.83059,-3.09205,0.02788239,0.55591
514.677,57.0845,-3.09732,0.02871552,0.55459
517.277,57.3379,-3.09623,0.03156677,0.55326
519.877,57.5916,-3.10114,0.03570837,0.55193
522.477,57.8457,-3.10223,0.03534309,0.5506
525.077,58.1001,-3.09783,0.033829,0.54927
527.677,58.3546,-3.1082,0.02906157,0.54794
530.277,58.60974,-3.11092,0.03432692,0.54661
532.877,58.86486,-3.1152,0.03900842,0.54528
535.477,59.1199,-3.11576,0.03605577,0.54395
538.077,59.3758,-3.11978,0.033492,0.54263
540.677,59.63129,-3.12155,0.03158532,0.5413
543.277,59.8873,-3.12345,0.02928828,0.53998
545.877,60.14334,-3.12617,0.02972319,0.53865
548.477,60.39954,-3.12954,0.0323387,0.53733
551.077,60.65554,-3.13011,0.03234038,0.53601
553.677,60.9122,-3.13261,0.03109062,0.53469
556.277,61.16956,-3.13466,0.03003078,0.53338
558.877,61.4272,-3.14516,0.02613442,0.53206
561.477,61.6846,-3.13884,0.03232061,0.53075
564.077,61.94185,-3.14033,0.03064141,0.52944
566.677,62.19888,-3.14525,0.02831413,0.52813
569.277,62.45564,-3.14789,0.02656526,0.52682
571.877,62.71331,-3.14751,0.03356509,0.52552
574.477,62.96976,-3.15364,0.02779378,0.52422
577.077,63.2275,-3.15392,0.03324794,0.52292
579.677,63.48646,-3.15689,0.03667425,0.52162
582.277,63.74536,-3.16811,0.03575799,0.52033
584.877,64.00435,-3.16112,0.04355436,0.51904
587.477,64.26387,-3.165,0.05331798,0.51776
590.077,64.52314,-3.16486,0.05590589,0.51647
592.677,64.78281,-3.16688,0.05422803,0.5152
595.277,65.0429,-3.17082,0.05069558,0.51392
597.877,65.30382,-3.1718,0.04509465,0.51265
600.477,65.56433,-3.17378,0.04955521,0.51138
603.077,65.8245,-3.17411,0.06111692,0.51012
605.677,66.08452,-3.17633,0.06833707,0.50886
608.277,66.34577,-3.17684,0.08067837,0.5076
610.877,66.60597,-3.17816,0.08738736,0.50635
613.477,66.86599,-3.18177,0.08355296,0.5051
616.077,67.1262,-3.18046,0.08954918,0.50386
618.677,67.38688,-3.1831,0.09123826,0.50262
621.277,67.6475,-3.18191,0.08805459,0.50138
623.877,67.90911,-3.1832,0.08542004,0.50015
626.477,68.17138,-3.18452,0.09187442,0.49893
629.077,68.43344,-3.18602,0.09025599,0.49771
631.677,68.69534,-3.18442,0.09144679,0.49649
634.277,68.95698,-3.18646,0.09645892,0.49528
636.877,69.21934,-3.18737,0.10312,0.49408
639.477,69.48219,-3.1877,0.10286,0.49288
642.077,69.74548,-3.18836,0.1058,0.49168
644.577,69.99856,-3.18967,0.11639,0.49054