Folder: fsri_materials_database/01_Data/Cotton_Raw/STA/N2/30K_min (part 2)

File: Cotton_Raw_STA_N2_30KData_210712_R3.csv
##Temp./Â°C,Time/min,Mass loss(subtr.2)/mg,DSC(subtr.2)/(mW/mg),Sensit./(uV/mW)
50.562,10.00583,-0.02896,-0.018653,0.6235
53.062,11.48816,-0.0323485,0.05326947,0.62347
55.562,11.81537,-0.03453767,0.10726,0.62343
58.062,12.05228,-0.03298725,0.15372,0.62339
60.562,12.24721,-0.03470232,0.19335,0.62333
63.062,12.41949,-0.03694666,0.22734,0.62326
65.562,12.57651,-0.03680177,0.2613,0.62318
68.062,12.7238,-0.03855876,0.29082,0.6231
70.562,12.86388,-0.04643325,0.31985,0.623
73.062,12.99824,-0.04543248,0.3475,0.6229
75.562,13.12793,-0.04383192,0.37161,0.62278
78.062,13.25429,-0.04553972,0.40247,0.62266
80.562,13.37725,-0.04701088,0.43396,0.62253
83.062,13.497,-0.04859449,0.45734,0.62239
85.562,13.61411,-0.05166635,0.48738,0.62224
88.062,13.72891,-0.05304368,0.5203,0.62208
90.562,13.8403,-0.05717252,0.54637,0.62191
93.062,13.95033,-0.05885698,0.57506,0.62173
95.562,14.05763,-0.06237436,0.60061,0.62155
98.062,14.16265,-0.06505454,0.6172,0.62135
100.562,14.266,-0.06868349,0.64086,0.62115
103.062,14.3672,-0.07176033,0.66075,0.62094
105.562,14.46611,-0.07589878,0.67604,0.62072
108.062,14.56429,-0.07854072,0.68791,0.62049
110.562,14.66053,-0.08225576,0.69348,0.62025
113.062,14.7552,-0.08400007,0.69555,0.62
115.562,14.8486,-0.08637977,0.69289,0.61975
118.062,14.9406,-0.09015779,0.68693,0.61948
120.562,15.03134,-0.0917,0.68163,0.61921
123.062,15.12072,-0.09301358,0.6738,0.61893
125.562,15.20916,-0.0974701,0.66394,0.61864
128.062,15.2962,-0.0974,0.65391,0.61835
130.562,15.38231,-0.09740089,0.64425,0.61804
133.062,15.4672,-0.09871999,0.63116,0.61773
135.562,15.55137,-0.09994548,0.62278,0.61741
138.062,15.63447,-0.10004,0.61284,0.61708
140.562,15.71679,-0.1029,0.60566,0.61674
143.062,15.7981,-0.103,0.60038,0.61639
145.562,15.87905,-0.103,0.59231,0.61604
148.062,15.95928,-0.10299,0.5884,0.61568
150.562,16.03872,-0.10431,0.58645,0.61531
153.062,16.1178,-0.10431,0.58607,0.61493
155.562,16.19639,-0.10596,0.58936,0.61455
158.062,16.2744,-0.10593,0.5833,0.61415
160.562,16.35206,-0.10595,0.59209,0.61375
163.062,16.4293,-0.10595,0.59876,0.61335
165.562,16.50609,-0.10596,0.6072,0.61293
168.062,16.58234,-0.10596,0.61414,0.61251
170.562,16.6584,-0.10727,0.61671,0.61208
173.062,16.73435,-0.10662,0.62717,0.61164
175.562,16.8098,-0.10795,0.63429,0.6112
178.062,16.88481,-0.10662,0.64575,0.61075
180.562,16.95939,-0.1053,0.6543,0.61029
183.062,17.03349,-0.10661,0.66426,0.60982
185.562,17.10725,-0.10661,0.67193,0.60935
188.062,17.18076,-0.10666,0.68131,0.60887
190.562,17.25394,-0.10926,0.69035,0.60838
193.062,17.3266,-0.11008,0.69953,0.60789
195.562,17.399,-0.11056,0.7072,0.60739
198.062,17.47116,-0.11056,0.71519,0.60688
200.562,17.54296,-0.11198,0.7202,0.60637
203.062,17.61467,-0.11378,0.72666,0.60585
205.562,17.68599,-0.11429,0.73237,0.60532
208.062,17.7573,-0.11594,0.7454,0.60478
210.562,17.8283,-0.11724,0.75159,0.60424
213.062,17.89909,-0.11725,0.75467,0.6037
215.562,17.9696,-0.11859,0.76319,0.60314
218.062,18.04,-0.12218,0.77053,0.60258
220.562,18.11049,-0.12142,0.78176,0.60202
223.062,18.1804,-0.12141,0.78354,0.60145
225.562,18.2504,-0.12484,0.78844,0.60087
228.062,18.32033,-0.12713,0.78839,0.60028
230.562,18.39,-0.13027,0.79104,0.59969
233.062,18.45962,-0.13312,0.7866,0.5991
235.562,18.52899,-0.1371,0.79703,0.59849
238.062,18.5983,-0.14064,0.80349,0.59789
240.562,18.6674,-0.14422,0.81429,0.59727
243.062,18.73649,-0.15203,0.83453,0.59665
245.562,18.80545,-0.15626,0.86148,0.59603
248.062,18.8744,-0.15991,0.8948,0.5954
250.562,18.9433,-0.16944,0.92808,0.59476
253.062,19.01193,-0.17809,0.95819,0.59412
255.562,19.0806,-0.18867,0.96666,0.59347
258.062,19.14912,-0.19799,0.94839,0.59282
260.562,19.21753,-0.20996,0.91953,0.59216
263.062,19.286,-0.22403,0.89129,0.59149
265.562,19.35444,-0.23763,0.8765,0.59082
268.062,19.4226,-0.25266,0.86732,0.59015
270.562,19.49083,-0.2678,0.86632,0.58947
273.062,19.5591,-0.28812,0.86886,0.58879
275.562,19.62731,-0.31058,0.86712,0.5881
278.062,19.69537,-0.33007,0.8744,0.5874
280.562,19.76351,-0.35277,0.88057,0.5867
283.062,19.8317,-0.37737,0.88218,0.586
285.562,19.8998,-0.40162,0.89134,0.58529
288.062,19.96793,-0.42946,0.89865,0.58458
290.562,20.03631,-0.45875,0.90362,0.58386
293.062,20.10439,-0.48764,0.9098,0.58314
295.562,20.1726,-0.52052,0.91454,0.58241
298.062,20.24072,-0.55489,0.92182,0.58168
300.562,20.3088,-0.59375,0.93381,0.58094
303.062,20.37707,-0.63418,0.9424,0.5802
305.562,20.4451,-0.67631,0.95558,0.57946
308.062,20.5134,-0.72587,0.96711,0.57871
310.562,20.5815,-0.77447,0.9856,0.57796
313.062,20.64963,-0.82939,1.00164,0.5772
315.562,20.7178,-0.88945,1.02028,0.57644
318.062,20.78588,-0.95189,1.03845,0.57567
320.562,20.854,-1.01836,1.06007,0.5749
323.062,20.92212,-1.09003,1.08915,0.57413
325.562,20.9903,-1.16753,1.11442,0.57335
328.062,21.05855,-1.25313,1.14391,0.57257
330.562,21.1268,-1.34124,1.18006,0.57179
333.062,21.19494,-1.44022,1.21777,0.571
335.562,21.26309,-1.54699,1.26345,0.57021
338.062,21.3311,-1.66487,1.31357,0.56942
340.562,21.39939,-1.7948,1.37114,0.56862
343.062,21.46743,-1.94052,1.43301,0.56782
345.562,21.53541,-2.10659,1.47494,0.56701
348.062,21.60335,-2.30181,1.45442,0.5662
350.562,21.67139,-2.49824,1.32292,0.56539
353.062,21.74,-2.68913,1.10955,0.56458
355.562,21.80844,-2.84874,0.89846,0.56376
358.062,21.87817,-2.96762,0.71196,0.56294
360.562,21.94805,-3.05657,0.55057,0.56211
363.062,22.0181,-3.1198,0.41767,0.56129
365.562,22.08832,-3.16002,0.31853,0.56046
368.062,22.15861,-3.18782,0.25191,0.55962
370.562,22.22893,-3.21106,0.20717,0.55879
373.062,22.29908,-3.23001,0.17375,0.55795
375.562,22.36935,-3.24675,0.1541,0.55711
378.062,22.43964,-3.26027,0.13618,0.55626
380.562,22.51005,-3.27342,0.12792,0.55542
383.062,22.5805,-3.28792,0.11779,0.55457
385.562,22.651,-3.30023,0.11045,0.55372
388.062,22.72169,-3.31391,0.10228,0.55287
390.562,22.79233,-3.32599,0.09559551,0.55201
393.062,22.8632,-3.33976,0.08817442,0.55115
395.562,22.93391,-3.35089,0.08196717,0.55029
398.062,23.005,-3.36466,0.07944457,0.54943
400.562,23.076,-3.37599,0.07532748,0.54856
403.062,23.14716,-3.38892,0.06893562,0.5477
405.562,23.21827,-3.40069,0.06431986,0.54683
408.062,23.28941,-3.41284,0.05877658,0.54596
410.562,23.36099,-3.42403,0.05573956,0.54509
413.062,23.4324,-3.43666,0.05015146,0.54421
415.562,23.50408,-3.44801,0.04457733,0.54334
418.062,23.5755,-3.45901,0.03627104,0.54246
420.562,23.64733,-3.47255,0.02676461,0.54158
423.062,23.7192,-3.48231,0.02036276,0.5407
425.562,23.7909,-3.4936,0.01134497,0.53981
428.062,23.86315,-3.50376,0.00196896,0.53893
430.562,23.93525,-3.51578,-0.00525533,0.53804
433.062,24.00755,-3.52524,-0.01475162,0.53716
435.562,24.07982,-3.53781,-0.02439958,0.53627
438.062,24.15231,-3.54763,-0.03615634,0.53538
440.562,24.22485,-3.55863,-0.04729715,0.53449
443.062,24.29748,-3.56906,-0.05839886,0.53359
445.562,24.37033,-3.57933,-0.06646763,0.5327
448.062,24.44305,-3.58803,-0.08248874,0.53181
450.562,24.51625,-3.59819,-0.09628313,0.53091
453.062,24.58934,-3.60902,-0.11173,0.53001
455.562,24.66271,-3.61784,-0.12293,0.52912
458.062,24.73605,-3.62664,-0.13791,0.52822
460.562,24.80934,-3.63766,-0.14539,0.52732
463.062,24.88291,-3.64329,-0.15945,0.52642
465.562,24.95672,-3.64769,-0.16632,0.52552
468.062,25.0304,-3.65697,-0.17443,0.52461
470.562,25.10465,-3.66765,-0.17781,0.52371
473.062,25.1785,-3.67426,-0.18537,0.52281
475.562,25.25275,-3.68103,-0.19131,0.5219
478.062,25.32701,-3.68917,-0.19434,0.521
480.562,25.40159,-3.69742,-0.19583,0.52009
483.062,25.476,-3.70336,-0.19843,0.51919
485.562,25.5506,-3.70969,-0.20404,0.51828
488.062,25.6254,-3.71496,-0.19954,0.51738
490.562,25.70027,-3.72026,-0.20448,0.51647
493.062,25.77511,-3.7264,-0.20864,0.51556
495.562,25.8503,-3.73248,-0.20825,0.51466
498.062,25.92553,-3.7385,-0.20767,0.51375
500.562,26.00082,-3.74253,-0.20872,0.51284
503.062,26.0762,-3.74813,-0.2099,0.51193
505.562,26.15179,-3.75247,-0.21738,0.51103
508.062,26.2275,-3.75793,-0.21622,0.51012
510.562,26.30335,-3.76278,-0.21794,0.50921
513.062,26.3792,-3.76586,-0.21873,0.5083
515.562,26.45515,-3.77261,-0.21674,0.5074
518.062,26.53118,-3.77551,-0.2208,0.50649
520.562,26.6073,-3.7794,-0.22125,0.50558
523.062,26.6836,-3.78407,-0.21854,0.50468
525.562,26.7601,-3.78669,-0.22369,0.50377
528.062,26.8365,-3.78952,-0.22596,0.50286
530.562,26.91318,-3.79471,-0.22926,0.50196
533.062,26.9897,-3.79903,-0.23214,0.50105
535.562,27.06635,-3.80155,-0.23322,0.50015
538.062,27.1435,-3.8054,-0.23665,0.49924
540.562,27.2204,-3.80859,-0.23781,0.49834
543.062,27.29715,-3.81359,-0.24361,0.49743
545.562,27.3745,-3.81712,-0.2455,0.49653
548.062,27.4517,-3.81971,-0.24818,0.49563
550.562,27.52903,-3.82142,-0.2491,0.49473
553.062,27.60606,-3.8262,-0.2521,0.49382
555.562,27.68405,-3.83055,-0.25444,0.49292
558.062,27.76153,-3.83359,-0.25811,0.49202
560.562,27.8393,-3.83605,-0.25796,0.49113
563.062,27.91706,-3.84014,-0.25622,0.49023
565.562,27.99493,-3.84288,-0.26229,0.48933
568.062,28.0729,-3.84461,-0.26544,0.48843
570.562,28.151,-3.84743,-0.27047,0.48754
573.062,28.2291,-3.85042,-0.27234,0.48664
575.562,28.3075,-3.8543,-0.27741,0.48575
578.062,28.3859,-3.8592,-0.28529,0.48486
580.562,28.4643,-3.86072,-0.29318,0.48397
583.062,28.5427,-3.86371,-0.30672,0.48308
585.562,28.6212,-3.86649,-0.31169,0.48219
588.062,28.69973,-3.87106,-0.31665,0.4813
590.562,28.77852,-3.87219,-0.32075,0.48041
593.062,28.85731,-3.87452,-0.32544,0.47953
595.562,28.93623,-3.8788,-0.33399,0.47864
598.062,29.0152,-3.8848,-0.33158,0.47776
600.562,29.0943,-3.88819,-0.3384,0.47688
603.062,29.17339,-3.88946,-0.33835,0.476
605.562,29.2526,-3.89331,-0.33878,0.47512
608.062,29.33189,-3.8975,-0.34008,0.47424
610.562,29.41119,-3.90048,-0.33393,0.47336
613.062,29.49059,-3.90448,-0.3209,0.47249
615.562,29.5701,-3.90806,-0.33304,0.47162
618.062,29.64975,-3.91021,-0.36891,0.47074
620.562,29.729,-3.91308,-0.40059,0.46987
623.062,29.80899,-3.91639,-0.42432,0.469
625.562,29.88855,-3.92092,-0.43528,0.46814
628.062,29.96845,-3.9238,-0.42771,0.46727
628.962,29.99734,-3.9238,-0.42486,0.46696