Folder: fsri_materials_database/01_Data/Cotton_Raw/STA/N2/30K_min

Note: 01_Data/README.md
# Materials and Products Database
## 01_Data

Raw data generated from each apparatus are included here in plain-text format. The data is organized first by material, next by the short name of test apparatus used, and where applicable additional filtering by test settings.

### material.json

Each material directory contains a json file of the same name as the material. This file links the data stored in the repository as well as data and graphs produced by the accompanying scripts (__02_Scripts__) to the respective landing page for the material on the front-end website.

File: Cotton_Raw_STA_N2_30KData_210708_R1.csv
##Temp./Â°C,Time/min,Mass loss(subtr.2)/mg,DSC(subtr.2)/(mW/mg),Sensit./(uV/mW)
50.47,10.00667,-0.08358,0.02920038,0.6235
52.87,11.46417,-0.09101274,0.0985278,0.62348
55.27,11.78817,-0.09107717,0.15039,0.62344
57.67,12.02139,-0.09036567,0.20117,0.62339
60.07,12.21401,-0.09276956,0.24298,0.62334
62.47,12.38235,-0.09465817,0.28062,0.62328
64.87,12.53606,-0.09326595,0.31949,0.62321
67.27,12.67919,-0.09708807,0.35004,0.62313
69.67,12.81564,-0.09716014,0.38485,0.62304
72.07,12.94572,-0.09814918,0.41447,0.62294
74.47,13.07195,-0.10088,0.44266,0.62284
76.87,13.1946,-0.10215,0.475,0.62272
79.27,13.31417,-0.10535,0.50296,0.6226
81.67,13.4307,-0.10635,0.54163,0.62247
84.07,13.54444,-0.1076,0.57386,0.62233
86.47,13.6559,-0.11024,0.60517,0.62218
88.87,13.76501,-0.11806,0.6355,0.62203
91.27,13.8716,-0.11934,0.65924,0.62186
93.67,13.97615,-0.12235,0.68141,0.62169
96.07,14.0786,-0.12635,0.70064,0.62151
98.47,14.1791,-0.12946,0.7138,0.62132
100.87,14.27765,-0.13086,0.72815,0.62112
103.27,14.3748,-0.13394,0.73596,0.62092
105.67,14.46991,-0.13832,0.74258,0.62071
108.07,14.5636,-0.13963,0.74479,0.62049
110.47,14.65574,-0.14102,0.74202,0.62026
112.87,14.7468,-0.14358,0.74135,0.62002
115.27,14.83639,-0.14534,0.73128,0.61978
117.67,14.9246,-0.14935,0.72637,0.61953
120.07,15.0117,-0.15199,0.71659,0.61927
122.47,15.09774,-0.15336,0.7018,0.619
124.87,15.18273,-0.15379,0.69152,0.61872
127.27,15.2666,-0.15477,0.68161,0.61844
129.67,15.34934,-0.15477,0.67237,0.61815
132.07,15.43125,-0.15652,0.65936,0.61785
134.47,15.51211,-0.15925,0.64652,0.61755
136.87,15.5923,-0.15993,0.63635,0.61723
139.27,15.67186,-0.16006,0.62604,0.61691
141.67,15.75048,-0.1614,0.61772,0.61659
144.07,15.8284,-0.16003,0.60502,0.61625
146.47,15.90576,-0.16268,0.608,0.61591
148.87,15.9825,-0.16392,0.60489,0.61556
151.27,16.05868,-0.16112,0.6031,0.6152
153.67,16.13433,-0.16323,0.60772,0.61484
156.07,16.20949,-0.16377,0.60809,0.61447
158.47,16.28445,-0.16213,0.61391,0.61409
160.87,16.3591,-0.16212,0.61722,0.6137
163.27,16.43308,-0.16475,0.61989,0.61331
165.67,16.50647,-0.16275,0.62799,0.61291
168.07,16.58026,-0.16344,0.63803,0.61251
170.47,16.65331,-0.16278,0.64022,0.6121
172.87,16.72599,-0.1627,0.64103,0.61168
175.27,16.7984,-0.16323,0.65257,0.61125
177.67,16.8704,-0.16212,0.65587,0.61082
180.07,16.94217,-0.16368,0.66895,0.61038
182.47,17.0132,-0.16497,0.67374,0.60993
184.87,17.08406,-0.1664,0.68042,0.60948
187.27,17.15494,-0.16773,0.69059,0.60902
189.67,17.2251,-0.1664,0.69341,0.60856
192.07,17.29491,-0.16725,0.70577,0.60809
194.47,17.36463,-0.16673,0.7168,0.60761
196.87,17.43393,-0.16672,0.72331,0.60712
199.27,17.5032,-0.16871,0.73295,0.60663
201.67,17.57195,-0.16671,0.74047,0.60614
204.07,17.64057,-0.16676,0.74094,0.60563
206.47,17.70871,-0.16805,0.75273,0.60513
208.87,17.77712,-0.16949,0.76841,0.60461
211.27,17.84507,-0.17198,0.77475,0.60409
213.67,17.91301,-0.17749,0.77855,0.60356
216.07,17.98067,-0.16975,0.79362,0.60303
218.47,18.04831,-0.17295,0.80467,0.60249
220.87,18.1157,-0.17582,0.80655,0.60195
223.27,18.18317,-0.1774,0.80684,0.6014
225.67,18.25035,-0.17932,0.81425,0.60084
228.07,18.31737,-0.17993,0.80667,0.60028
230.47,18.3843,-0.18207,0.80865,0.59972
232.87,18.45111,-0.18471,0.81605,0.59914
235.27,18.5178,-0.18738,0.821,0.59857
237.67,18.5841,-0.19199,0.8267,0.59798
240.07,18.65082,-0.19565,0.83673,0.59739
242.47,18.71708,-0.20178,0.85223,0.5968
244.87,18.78329,-0.20502,0.86366,0.5962
247.27,18.8495,-0.20976,0.89075,0.5956
249.67,18.91566,-0.2152,0.92501,0.59499
252.07,18.98185,-0.22063,0.93261,0.59437
254.47,19.04782,-0.22845,0.9457,0.59375
256.87,19.1138,-0.2534,0.93441,0.59313
259.27,19.17941,-0.26106,0.91453,0.5925
261.67,19.24524,-0.26106,0.88759,0.59186
264.07,19.31096,-0.26585,0.87073,0.59122
266.47,19.37633,-0.29084,0.85356,0.59058
268.87,19.4418,-0.29927,0.84409,0.58993
271.27,19.50737,-0.30469,0.8422,0.58928
273.67,19.5728,-0.33023,0.84728,0.58862
276.07,19.63826,-0.35266,0.85396,0.58796
278.47,19.70363,-0.36951,0.85812,0.58729
280.87,19.7692,-0.39509,0.86695,0.58662
283.27,19.83475,-0.40859,0.86855,0.58594
285.67,19.9003,-0.41844,0.88495,0.58526
288.07,19.9657,-0.44468,0.88805,0.58458
290.47,20.03086,-0.4698,0.89953,0.58389
292.87,20.09671,-0.49374,0.90145,0.58319
295.27,20.16217,-0.52128,0.90709,0.5825
297.67,20.22765,-0.55268,0.91402,0.58179
300.07,20.29318,-0.58247,0.92796,0.58109
302.47,20.35868,-0.61556,0.94084,0.58038
304.87,20.42406,-0.65336,0.95236,0.57966
307.27,20.48935,-0.70074,0.9691,0.57895
309.67,20.5546,-0.73427,0.98165,0.57823
312.07,20.62043,-0.7831,1.00889,0.5775
314.47,20.68595,-0.82988,1.03183,0.57677
316.87,20.75151,-0.87821,1.05274,0.57604
319.27,20.8169,-0.93583,1.07666,0.5753
321.67,20.8824,-0.99326,1.10222,0.57456
324.07,20.948,-1.05136,1.12521,0.57382
326.47,21.01353,-1.10915,1.14511,0.57307
328.87,21.07912,-1.1918,1.18191,0.57232
331.27,21.1447,-1.26824,1.21226,0.57157
333.67,21.2103,-1.35067,1.2528,0.57081
336.07,21.27581,-1.44403,1.294,0.57005
338.47,21.34132,-1.54467,1.34298,0.56929
340.87,21.40691,-1.65166,1.39155,0.56852
343.27,21.47208,-1.7761,1.44354,0.56775
345.67,21.53764,-1.91708,1.47449,0.56698
348.07,21.60269,-2.06678,1.44878,0.5662
350.47,21.66872,-2.24783,1.31664,0.56542
352.87,21.73453,-2.4095,1.12403,0.56464
355.27,21.8007,-2.53379,0.92226,0.56385
357.67,21.86713,-2.64444,0.74242,0.56307
360.07,21.93425,-2.71668,0.58127,0.56227
362.47,22.00124,-2.77133,0.43947,0.56148
364.87,22.06847,-2.81204,0.33122,0.56069
367.27,22.13574,-2.83796,0.26152,0.55989
369.67,22.20299,-2.85592,0.21281,0.55909
372.07,22.27028,-2.87667,0.17667,0.55828
374.47,22.33773,-2.88593,0.14817,0.55748
376.87,22.40503,-2.90177,0.13401,0.55667
379.27,22.4724,-2.92501,0.12231,0.55586
381.67,22.53985,-2.92796,0.10904,0.55504
384.07,22.6073,-2.93684,0.10014,0.55423
386.47,22.67495,-2.9491,0.09224376,0.55341
388.87,22.74271,-2.9634,0.08328949,0.55259
391.27,22.8105,-2.97156,0.07896321,0.55177
393.67,22.87839,-2.98393,0.07344117,0.55094
396.07,22.94641,-3.00207,0.07120781,0.55012
398.47,23.01446,-2.99188,0.05745203,0.54929
400.87,23.08269,-3.01063,0.04902168,0.54846
403.27,23.1509,-3.02226,0.04534381,0.54763
405.67,23.21929,-3.03229,0.03769818,0.54679
408.07,23.28773,-3.04398,0.03340737,0.54596
410.47,23.35633,-3.05547,0.02789843,0.54512
412.87,23.425,-3.06514,0.02261212,0.54428
415.27,23.4937,-3.06854,0.01474252,0.54344
417.67,23.56259,-3.07943,0.01143177,0.5426
420.07,23.6315,-3.08632,-0.005171409,0.54175
422.47,23.7005,-3.09591,-0.01283802,0.54091
424.87,23.7696,-3.10587,-0.02031718,0.54006
427.27,23.83869,-3.11736,-0.02897228,0.53921
429.67,23.90795,-3.12906,-0.03184358,0.53836
432.07,23.9774,-3.13724,-0.04364896,0.53751
434.47,24.0469,-3.14527,-0.05405025,0.53666
436.87,24.11637,-3.15428,-0.06347202,0.5358
439.27,24.18594,-3.16092,-0.08022304,0.53495
441.67,24.25579,-3.16685,-0.08686307,0.53409
444.07,24.32565,-3.18315,-0.09769241,0.53323
446.47,24.39568,-3.18221,-0.11443,0.53238
448.87,24.46571,-3.19332,-0.12716,0.53152
451.27,24.5357,-3.19744,-0.14145,0.53066
453.67,24.60603,-3.20603,-0.1562,0.5298
456.07,24.67642,-3.21574,-0.16402,0.52893
458.47,24.74671,-3.22774,-0.17534,0.52807
460.87,24.8172,-3.23024,-0.1819,0.52721
463.27,24.8879,-3.23683,-0.19348,0.52634
465.67,24.95867,-3.24205,-0.2006,0.52548
468.07,25.02948,-3.249,-0.21099,0.52461
470.47,25.1006,-3.25277,-0.21969,0.52374
472.87,25.17165,-3.25928,-0.22796,0.52288
475.27,25.24295,-3.26664,-0.22826,0.52201
477.67,25.3142,-3.27591,-0.23558,0.52114
480.07,25.38564,-3.2783,-0.23906,0.52027
482.47,25.45733,-3.28781,-0.24217,0.5194
484.87,25.52896,-3.28985,-0.2428,0.51853
487.27,25.6008,-3.29486,-0.2462,0.51766
489.67,25.67267,-3.29791,-0.2483,0.51679
492.07,25.7446,-3.30516,-0.24945,0.51592
494.47,25.81666,-3.30946,-0.25059,0.51505
496.87,25.88876,-3.31505,-0.24929,0.51418
499.27,25.96098,-3.32017,-0.24611,0.51331
501.67,26.0335,-3.32296,-0.24695,0.51244
504.07,26.10596,-3.32493,-0.25103,0.51157
506.47,26.17845,-3.32744,-0.24886,0.5107
508.87,26.25099,-3.33046,-0.24829,0.50983
511.27,26.32327,-3.33436,-0.25221,0.50895
513.67,26.3965,-3.33913,-0.25011,0.50808
516.07,26.46937,-3.34692,-0.25464,0.50721
518.47,26.5427,-3.35039,-0.25317,0.50634
520.87,26.6158,-3.35303,-0.2531,0.50547
523.27,26.6892,-3.35925,-0.24908,0.5046
525.67,26.76255,-3.35992,-0.25164,0.50373
528.07,26.836,-3.36141,-0.25719,0.50286
530.47,26.90952,-3.36532,-0.25704,0.50199
532.87,26.98307,-3.37011,-0.25348,0.50112
535.27,27.0567,-3.37274,-0.25853,0.50025
537.67,27.1306,-3.37569,-0.26349,0.49938
540.07,27.20451,-3.37827,-0.26422,0.49851
542.47,27.27842,-3.37828,-0.26086,0.49765
544.87,27.3523,-3.38171,-0.26197,0.49678
547.27,27.42646,-3.38513,-0.26337,0.49591
549.67,27.50062,-3.38557,-0.25985,0.49505
552.07,27.5749,-3.38896,-0.26074,0.49418
554.47,27.6493,-3.38897,-0.26424,0.49332
556.87,27.72373,-3.3902,-0.26592,0.49245
559.27,27.7982,-3.39755,-0.26927,0.49159
561.67,27.87286,-3.40181,-0.27742,0.49073
564.07,27.9474,-3.40346,-0.27487,0.48987
566.47,28.0222,-3.405,-0.27766,0.489
568.87,28.09712,-3.40827,-0.2796,0.48814
571.27,28.172,-3.41266,-0.27496,0.48728
573.67,28.24703,-3.41815,-0.28029,0.48643
576.07,28.322,-3.41684,-0.28468,0.48557
578.47,28.3973,-3.41893,-0.28703,0.48471
580.87,28.47255,-3.42199,-0.28951,0.48386
583.27,28.54774,-3.42205,-0.29199,0.483
585.67,28.62319,-3.42563,-0.2893,0.48215
588.07,28.69875,-3.42812,-0.29031,0.4813
590.47,28.7744,-3.42949,-0.32992,0.48044
592.87,28.84988,-3.43429,-0.34192,0.47959
595.27,28.9256,-3.43689,-0.3462,0.47875
597.67,29.0013,-3.441,-0.35054,0.4779
600.07,29.07722,-3.44261,-0.34831,0.47705
602.47,29.1531,-3.44425,-0.35721,0.47621
604.87,29.22901,-3.44943,-0.35626,0.47536
607.27,29.305,-3.45117,-0.3589,0.47452
609.67,29.3813,-3.45264,-0.35914,0.47368
612.07,29.4575,-3.45549,-0.35096,0.47284
614.47,29.53394,-3.45893,-0.3572,0.472
616.87,29.61021,-3.46137,-0.38987,0.47116
619.27,29.68683,-3.46204,-0.42785,0.47032
621.67,29.76339,-3.46714,-0.45885,0.46949
624.07,29.84,-3.4685,-0.47395,0.46865
626.47,29.9167,-3.4685,-0.47146,0.46782
628.87,29.99349,-3.47092,-0.46698,0.46699
629.07,29.9998,-3.47092,-0.4671,0.46692

File: Cotton_Raw_STA_N2_30KData_210709_R2.csv
##Temp./Â°C,Time/min,Mass loss(subtr.2)/mg,DSC(subtr.2)/(mW/mg),Sensit./(uV/mW)
50.627,10.00667,-0.03796,-0.007389115,0.6235
53.127,11.4881,-0.04319949,0.08096997,0.62347
55.627,11.81734,-0.04332132,0.13914,0.62343
58.127,12.05286,-0.0453982,0.18678,0.62338
60.627,12.2484,-0.04475096,0.23552,0.62333
63.127,12.4202,-0.04605382,0.27591,0.62326
65.627,12.5779,-0.04765888,0.31234,0.62318
68.127,12.72513,-0.04805027,0.35071,0.6231
70.627,12.8649,-0.04963695,0.38313,0.623
73.127,12.9991,-0.04983574,0.41619,0.6229
75.627,13.1291,-0.05345964,0.44263,0.62278
78.127,13.25542,-0.05349983,0.47006,0.62266
80.627,13.37868,-0.05649088,0.50361,0.62253
83.127,13.4988,-0.05775076,0.53658,0.62238
85.627,13.61611,-0.0606604,0.56835,0.62223
88.127,13.73051,-0.06320624,0.59649,0.62207
90.627,13.84249,-0.06642948,0.62829,0.62191
93.127,13.95204,-0.06888671,0.65154,0.62173
95.627,14.05925,-0.07112538,0.67665,0.62154
98.127,14.1646,-0.07544656,0.697,0.62135
100.627,14.2673,-0.07815713,0.72443,0.62114
103.127,14.3683,-0.07939268,0.7444,0.62093
105.627,14.4683,-0.08245855,0.75677,0.62071
108.127,14.5657,-0.08467879,0.76748,0.62048
110.627,14.66189,-0.08797029,0.77255,0.62024
113.127,14.75649,-0.08955946,0.77621,0.62
115.627,14.8497,-0.09235219,0.77621,0.61974
118.127,14.9417,-0.09367491,0.77544,0.61948
120.627,15.03239,-0.09651973,0.76836,0.6192
123.127,15.1218,-0.09651925,0.75983,0.61892
125.627,15.2101,-0.09735024,0.7546,0.61863
128.127,15.2972,-0.09994652,0.74719,0.61834
130.627,15.38308,-0.10134,0.73939,0.61803
133.127,15.46826,-0.10267,0.73304,0.61772
135.627,15.5524,-0.10292,0.72961,0.6174
138.127,15.6356,-0.10281,0.72369,0.61707
140.627,15.71786,-0.10409,0.71823,0.61673
143.127,15.7997,-0.1054,0.71569,0.61638
145.627,15.88039,-0.10539,0.71316,0.61603
148.127,15.9608,-0.10541,0.71944,0.61567
150.627,16.04038,-0.10578,0.72261,0.6153
153.127,16.11946,-0.10672,0.72155,0.61492
155.627,16.19804,-0.10672,0.72657,0.61454
158.127,16.27628,-0.1084,0.73425,0.61414
160.627,16.35386,-0.10805,0.74712,0.61374
163.127,16.4311,-0.10673,0.74933,0.61334
165.627,16.50796,-0.10755,0.76103,0.61292
168.127,16.58455,-0.10872,0.76472,0.6125
170.627,16.6607,-0.1087,0.77462,0.61207
173.127,16.7365,-0.10936,0.76195,0.61163
175.627,16.81194,-0.10934,0.77244,0.61119
178.127,16.88671,-0.11068,0.79059,0.61074
180.627,16.9614,-0.10936,0.80045,0.61028
183.127,17.03556,-0.11029,0.81304,0.60981
185.627,17.1093,-0.11067,0.82653,0.60934
188.127,17.18272,-0.11067,0.84295,0.60886
190.627,17.2558,-0.11199,0.85668,0.60837
193.127,17.32852,-0.11199,0.86326,0.60788
195.627,17.40081,-0.11238,0.88963,0.60738
198.127,17.47306,-0.1133,0.90236,0.60687
200.627,17.54489,-0.11463,0.90828,0.60635
203.127,17.61671,-0.1144,0.91832,0.60583
205.627,17.688,-0.11571,0.92093,0.60531
208.127,17.75911,-0.11535,0.92163,0.60477
210.627,17.83023,-0.11638,0.93753,0.60423
213.127,17.90105,-0.11736,0.93448,0.60368
215.627,17.97181,-0.11933,0.94834,0.60313
218.127,18.0423,-0.12066,0.9537,0.60257
220.627,18.11273,-0.12197,0.95766,0.602
223.127,18.18287,-0.1233,0.96524,0.60143
225.627,18.25284,-0.12651,0.97424,0.60085
228.127,18.32268,-0.12592,0.9802,0.60027
230.627,18.3924,-0.12732,0.98798,0.59968
233.127,18.46207,-0.13268,0.99353,0.59908
235.627,18.53146,-0.13535,1.0076,0.59848
238.127,18.60097,-0.13931,1.01354,0.59787
240.627,18.67013,-0.14462,1.02717,0.59726
243.127,18.7394,-0.14906,1.04503,0.59664
245.627,18.80848,-0.15405,1.07392,0.59601
248.127,18.87734,-0.15844,1.10004,0.59538
250.627,18.9463,-0.16699,1.13115,0.59474
253.127,19.0151,-0.17278,1.16399,0.5941
255.627,19.08372,-0.182,1.16875,0.59345
258.127,19.1524,-0.19193,1.15138,0.5928
260.627,19.22104,-0.20121,1.12985,0.59214
263.127,19.28952,-0.21296,1.10056,0.59148
265.627,19.35795,-0.22387,1.09291,0.59081
268.127,19.42613,-0.23763,1.08345,0.59013
270.627,19.4944,-0.25154,1.083,0.58945
273.127,19.56275,-0.26533,1.08224,0.58877
275.627,19.63113,-0.28086,1.09127,0.58808
278.127,19.6993,-0.29903,1.09335,0.58739
280.627,19.76748,-0.31623,1.10423,0.58669
283.127,19.8357,-0.33517,1.11081,0.58598
285.627,19.904,-0.35647,1.12296,0.58527
288.127,19.97225,-0.37711,1.13085,0.58456
290.627,20.04051,-0.40185,1.14196,0.58384
293.127,20.1084,-0.42814,1.14858,0.58312
295.627,20.17691,-0.45476,1.15904,0.58239
298.127,20.2452,-0.48269,1.1726,0.58166
300.627,20.31345,-0.51504,1.1792,0.58092
303.127,20.38168,-0.54741,1.1941,0.58018
305.627,20.44997,-0.5842,1.21227,0.57944
308.127,20.51819,-0.62289,1.22902,0.57869
310.627,20.5864,-0.66561,1.26275,0.57794
313.127,20.6547,-0.71128,1.27939,0.57718
315.627,20.72299,-0.76263,1.30698,0.57642
318.127,20.79126,-0.81188,1.32972,0.57565
320.627,20.85954,-0.87095,1.35248,0.57488
323.127,20.92774,-0.93078,1.37817,0.57411
325.627,20.99611,-0.99507,1.4062,0.57333
328.127,21.06446,-1.06423,1.43414,0.57255
330.627,21.1329,-1.13964,1.47007,0.57177
333.127,21.20137,-1.21924,1.51033,0.57098
335.627,21.26981,-1.31215,1.55159,0.57019
338.127,21.3382,-1.40261,1.6004,0.56939
340.627,21.40664,-1.51099,1.65615,0.5686
343.127,21.47499,-1.62646,1.7134,0.56779
345.627,21.54334,-1.76137,1.75863,0.56699
348.127,21.61157,-1.90977,1.76062,0.56618
350.627,21.67987,-2.08014,1.65718,0.56537
353.127,21.7485,-2.25108,1.45745,0.56455
355.627,21.81725,-2.3831,1.23726,0.56374
358.127,21.88666,-2.49052,1.02634,0.56291
360.627,21.95644,-2.57313,0.84637,0.56209
363.127,22.0264,-2.62782,0.70213,0.56126
365.627,22.0965,-2.66487,0.59084,0.56043
368.127,22.1667,-2.69017,0.52488,0.5596
370.627,22.23675,-2.7101,0.47613,0.55877
373.127,22.307,-2.72765,0.44404,0.55793
375.627,22.3772,-2.74026,0.42151,0.55709
378.127,22.44741,-2.75536,0.40519,0.55624
380.627,22.51765,-2.76514,0.39375,0.5554
383.127,22.58813,-2.77713,0.38684,0.55455
385.627,22.65855,-2.78907,0.37602,0.5537
388.127,22.7289,-2.79993,0.36825,0.55284
390.627,22.7997,-2.81152,0.36503,0.55199
393.127,22.87041,-2.82074,0.35553,0.55113
395.627,22.94109,-2.83208,0.34534,0.55027
398.127,23.01216,-2.84255,0.34008,0.54941
400.627,23.08292,-2.8527,0.33709,0.54854
403.127,23.1542,-2.86477,0.3252,0.54768
405.627,23.22534,-2.87135,0.31777,0.54681
408.127,23.2966,-2.88487,0.31024,0.54594
410.627,23.36796,-2.89325,0.3013,0.54506
413.127,23.43937,-2.90279,0.29865,0.54419
415.627,23.51088,-2.91305,0.29213,0.54331
418.127,23.5825,-2.9218,0.28009,0.54243
420.627,23.65426,-2.93351,0.27558,0.54156
423.127,23.7261,-2.94292,0.26424,0.54067
425.627,23.79799,-2.95145,0.25669,0.53979
428.127,23.87005,-2.95905,0.2443,0.53891
430.627,23.94225,-2.97056,0.2378,0.53802
433.127,24.01444,-2.98089,0.23062,0.53713
435.627,24.08682,-2.98896,0.21791,0.53625
438.127,24.15942,-2.99953,0.19671,0.53536
440.627,24.23185,-3.008,0.18353,0.53446
443.127,24.3047,-3.01561,0.1622,0.53357
445.627,24.37746,-3.02296,0.14512,0.53268
448.127,24.4504,-3.03102,0.13036,0.53178
450.627,24.5234,-3.03868,0.1139,0.53089
453.127,24.59666,-3.04686,0.1039,0.52999
455.627,24.66999,-3.05516,0.09280346,0.52909
458.127,24.74344,-3.06271,0.0806512,0.52819
460.627,24.81693,-3.06941,0.06806048,0.52729
463.127,24.8906,-3.07527,0.055273,0.52639
465.627,24.96436,-3.0834,0.04312619,0.52549
468.127,25.03829,-3.08812,0.0358669,0.52459
470.627,25.11225,-3.09729,0.03096314,0.52369
473.127,25.18645,-3.10237,0.02161228,0.52278
475.627,25.26064,-3.10715,0.01432117,0.52188
478.127,25.3351,-3.11436,0.01385848,0.52098
480.627,25.4095,-3.11757,0.01141279,0.52007
483.127,25.484,-3.12696,0.005605415,0.51917
485.627,25.55859,-3.13046,0.00583652,0.51826
488.127,25.63349,-3.13438,0.006751627,0.51735
490.627,25.70844,-3.14091,0.009976476,0.51645
493.127,25.78342,-3.14636,0.00722032,0.51554
495.627,25.85867,-3.14985,0.005429853,0.51463
498.127,25.9338,-3.15516,0.00105528,0.51373
500.627,26.0092,-3.1594,-0.00235774,0.51282
503.127,26.0848,-3.16272,0.000868286,0.51191
505.627,26.16037,-3.16743,-0.004838418,0.511
508.127,26.236,-3.17146,-0.00294394,0.5101
510.627,26.3119,-3.17494,-0.001247662,0.50919
513.127,26.38768,-3.17826,0.001842725,0.50828
515.627,26.4638,-3.18276,0.004888863,0.50737
518.127,26.54,-3.18595,0.00364815,0.50647
520.627,26.6162,-3.19222,0.00294697,0.50556
523.127,26.6926,-3.19372,0.002640514,0.50465
525.627,26.76894,-3.19749,-0.00890649,0.50374
528.127,26.84543,-3.20071,-0.008702859,0.50284
530.627,26.92199,-3.20258,-0.00305161,0.50193
533.127,26.99878,-3.20368,-0.005357262,0.50103
535.627,27.07553,-3.20864,0.0003095489,0.50012
538.127,27.1526,-3.21214,-0.003625245,0.49922
540.627,27.22956,-3.21347,-0.00216509,0.49831
543.127,27.30671,-3.21764,-0.004818606,0.49741
545.627,27.38368,-3.21899,-0.002433181,0.49651
548.127,27.46112,-3.22347,-0.007358929,0.4956
550.627,27.53844,-3.2262,-0.007692114,0.4947
553.127,27.61597,-3.22753,-0.006736045,0.4938
555.627,27.6936,-3.23169,-0.008567564,0.4929
558.127,27.7713,-3.23309,-0.00521521,0.492
560.627,27.8491,-3.23469,-0.006210635,0.4911
563.127,27.9269,-3.23872,-0.01160609,0.4902
565.627,28.00478,-3.24064,-0.0109014,0.48931
568.127,28.08291,-3.24328,-0.01586955,0.48841
570.627,28.1611,-3.24739,-0.01818306,0.48752
573.127,28.23925,-3.2496,-0.02070592,0.48662
575.627,28.3172,-3.25062,-0.02153127,0.48573
578.127,28.39568,-3.25486,-0.02118021,0.48483
580.627,28.4743,-3.2554,-0.02237046,0.48394
583.127,28.5526,-3.25801,-0.02376079,0.48305
585.627,28.63145,-3.26109,-0.02340831,0.48216
588.127,28.7099,-3.26437,-0.02908086,0.48128
590.627,28.78896,-3.26692,-0.03495882,0.48039
593.127,28.8678,-3.27023,-0.03202707,0.4795
595.627,28.94678,-3.2715,-0.02730977,0.47862
598.127,29.0258,-3.27721,-0.02917928,0.47774
600.627,29.1049,-3.2784,-0.02884831,0.47685
603.127,29.18406,-3.28118,-0.02515094,0.47597
605.627,29.26339,-3.28375,-0.02886603,0.4751
608.127,29.34272,-3.28457,-0.02799834,0.47422
610.627,29.422,-3.28869,-0.01346862,0.47334
613.127,29.50158,-3.29005,-0.01229377,0.47247
615.627,29.5811,-3.29313,-0.02446629,0.47159
618.127,29.6605,-3.29738,-0.05073653,0.47072
620.627,29.74022,-3.30233,-0.09060436,0.46985
623.127,29.81959,-3.30437,-0.11499,0.46898
625.627,29.8997,-3.30715,-0.12196,0.46811
628.127,29.9795,-3.30715,-0.1156,0.46725
628.727,29.99871,-3.30715,-0.1158,0.46704