Folder: fsri_materials_database/01_Data/Cotton_Raw/STA/N2/3K_min

Note: 01_Data/README.md
# Materials and Products Database
## 01_Data

Raw data generated from each apparatus are included here in plain-text format. The data is organized first by material, next by the short name of test apparatus used, and where applicable additional filtering by test settings.

### material.json

Each material directory contains a json file of the same name as the material. This file links the data stored in the repository as well as data and graphs produced by the accompanying scripts (__02_Scripts__) to the respective landing page for the material on the front-end website.

File: Cotton_Raw_STA_N2_3KData_210709_R1.csv
##Temp./Â°C,Time/min,Mass loss(subtr.2)/mg,DSC(subtr.2)/(mW/mg),Sensit./(uV/mW)
48.844,10.00667,-0.03104,0.01384991,0.58406
51.444,13.6706,-0.03949202,0.05166458,0.58529
54.044,15.10126,-0.04859901,0.06232359,0.5865
56.644,16.3168,-0.04299044,0.07834928,0.58769
59.244,17.41234,-0.04628983,0.08914648,0.58886
61.844,18.44344,-0.05189,0.09541103,0.59002
64.444,19.42889,-0.05418363,0.1044,0.59116
67.044,20.38391,-0.05769,0.10605,0.59228
69.644,21.31798,-0.06160503,0.11573,0.59338
72.244,22.23345,-0.06746,0.11439,0.59446
74.844,23.14005,-0.07206011,0.11532,0.59553
77.444,24.0372,-0.07535008,0.1189,0.59658
80.044,24.92892,-0.07765902,0.11509,0.59761
82.644,25.81551,-0.08194002,0.11597,0.59862
85.244,26.6909,-0.08340745,0.11347,0.59962
87.844,27.5616,-0.0886409,0.11429,0.60059
90.444,28.42592,-0.08894799,0.10959,0.60155
93.044,29.28487,-0.09345001,0.10639,0.60249
95.644,30.1388,-0.09323,0.10126,0.60342
98.244,30.9892,-0.09620101,0.09900226,0.60432
100.844,31.8363,-0.09606607,0.10239,0.60521
103.444,32.678,-0.09773,0.09764894,0.60608
106.044,33.5197,-0.09740034,0.09282101,0.60693
108.644,34.3611,-0.09839661,0.09337785,0.60777
111.244,35.19954,-0.09949063,0.09229776,0.60858
113.844,36.04054,-0.09894,0.09082884,0.60938
116.444,36.8792,-0.09789191,0.09112093,0.61016
119.044,37.71499,-0.09992,0.09112679,0.61092
121.644,38.55106,-0.09806009,0.08692475,0.61167
124.244,39.38544,-0.09805806,0.09239996,0.61239
126.844,40.21718,-0.10005,0.09070271,0.6131
129.444,41.05255,-0.09904,0.09791085,0.61379
132.044,41.88657,-0.09772999,0.09423942,0.61446
134.644,42.71575,-0.09782696,0.09276275,0.61512
137.244,43.54622,-0.09903996,0.09873007,0.61575
139.844,44.37314,-0.09773,0.1014,0.61637
142.444,45.19654,-0.09839756,0.09784295,0.61697
145.044,46.01726,-0.09702284,0.09610885,0.61755
147.644,46.8395,-0.09682988,0.09515294,0.61812
150.244,47.6614,-0.09883001,0.09573259,0.61866
152.844,48.48149,-0.09711216,0.09886327,0.61919
155.444,49.3005,-0.09773653,0.09603586,0.6197
158.044,50.119,-0.09904,0.09385295,0.62019
160.644,50.93649,-0.09974827,0.09570832,0.62067
163.244,51.75219,-0.10113,0.09742551,0.62113
165.844,52.5679,-0.10113,0.09692385,0.62157
168.444,53.38377,-0.10102,0.09809656,0.62199
171.044,54.2008,-0.10046,0.10136,0.62239
173.644,55.01693,-0.10288,0.0977345,0.62278
176.244,55.83449,-0.10288,0.09945967,0.62314
178.844,56.64985,-0.10475,0.10227,0.62349
181.444,57.46496,-0.10771,0.10343,0.62383
184.044,58.27899,-0.10782,0.10193,0.62414
186.644,59.09245,-0.11177,0.102,0.62444
189.244,59.9052,-0.1132,0.10259,0.62472
191.844,60.71756,-0.11582,0.10433,0.62498
194.444,61.52905,-0.11889,0.10159,0.62523
197.044,62.33976,-0.12076,0.10047,0.62545
199.644,63.14956,-0.12032,0.10069,0.62566
202.244,63.9612,-0.12351,0.09952863,0.62586
204.844,64.77449,-0.11697,0.10175,0.62603
207.444,65.58681,-0.13383,0.10052,0.62619
210.044,66.39707,-0.12543,0.10579,0.62633
212.644,67.20919,-0.14475,0.11197,0.62645
215.244,68.02224,-0.15247,0.11649,0.62656
217.844,68.83251,-0.16157,0.11525,0.62665
220.444,69.64457,-0.17221,0.12117,0.62672
223.044,70.457,-0.18227,0.12041,0.62677
225.644,71.2689,-0.19678,0.11803,0.62681
228.244,72.07868,-0.20773,0.12725,0.62683
230.844,72.88939,-0.22426,0.12174,0.62684
233.444,73.70031,-0.24164,0.1252,0.62682
236.044,74.51285,-0.2595,0.1261,0.62679
238.644,75.32082,-0.28171,0.12848,0.62675
241.244,76.13235,-0.30438,0.13226,0.62668
243.844,76.94564,-0.32972,0.13177,0.6266
246.444,77.7591,-0.35464,0.13483,0.62651
249.044,78.57249,-0.38089,0.13631,0.62639
251.644,79.3862,-0.4133,0.14375,0.62626
254.244,80.19628,-0.44689,0.15227,0.62612
256.844,81.01168,-0.48013,0.16313,0.62595
259.444,81.8252,-0.52051,0.1599,0.62577
262.044,82.63996,-0.5594,0.15771,0.62558
264.644,83.454,-0.59917,0.15366,0.62537
267.244,84.26895,-0.65214,0.14847,0.62514
269.844,85.08376,-0.70022,0.15364,0.62489
272.444,85.8941,-0.75665,0.1561,0.62463
275.044,86.70634,-0.81605,0.1572,0.62436
277.644,87.5192,-0.87958,0.15808,0.62407
280.244,88.3352,-0.94801,0.16385,0.62376
282.844,89.1523,-1.0214,0.16598,0.62344
285.444,89.96907,-1.09858,0.17283,0.6231
288.044,90.78631,-1.17865,0.17225,0.62274
290.644,91.60257,-1.26826,0.17558,0.62237
293.244,92.4174,-1.35721,0.17173,0.62199
295.844,93.23084,-1.45465,0.17858,0.62158
298.444,94.04743,-1.55707,0.18281,0.62117
301.044,94.86616,-1.66669,0.18039,0.62073
303.644,95.6828,-1.78618,0.18444,0.62029
306.244,96.49863,-1.91428,0.18477,0.61983
308.844,97.31765,-2.05944,0.18721,0.61935
311.444,98.13871,-2.21567,0.18693,0.61886
314.044,98.95784,-2.38172,0.17994,0.61835
316.644,99.7791,-2.54848,0.15875,0.61783
319.244,100.6,-2.69541,0.13496,0.61729
321.844,101.421,-2.81007,0.10956,0.61674
324.444,102.24,-2.89331,0.08930736,0.61617
327.044,103.059,-2.94881,0.07241546,0.61559
329.644,103.88,-2.98903,0.06806168,0.61499
332.244,104.703,-3.01769,0.06221026,0.61439
334.844,105.526,-3.04029,0.0571111,0.61376
337.444,106.351,-3.06126,0.05297931,0.61312
340.044,107.177,-3.07893,0.05492031,0.61247
342.644,108.001,-3.09688,0.05056178,0.6118
345.244,108.826,-3.11396,0.05136113,0.61112
347.844,109.655,-3.13037,0.04898129,0.61043
350.444,110.481,-3.14682,0.05001486,0.60972
353.044,111.3064,-3.1617,0.04846391,0.609
355.644,112.134,-3.17994,0.05164878,0.60827
358.244,112.962,-3.1965,0.05001999,0.60752
360.844,113.793,-3.21028,0.05336401,0.60676
363.444,114.625,-3.226,0.05498569,0.60598
366.044,115.46,-3.23946,0.05609646,0.60519
368.644,116.293,-3.25522,0.05556564,0.60439
371.244,117.124,-3.26889,0.05288443,0.60358
373.844,117.9554,-3.28235,0.05357886,0.60275
376.444,118.788,-3.29589,0.05256503,0.60191
379.044,119.621,-3.31066,0.05603338,0.60105
381.644,120.459,-3.32304,0.0540249,0.60019
384.244,121.292,-3.33775,0.05324083,0.59931
386.844,122.125,-3.3485,0.05604894,0.59842
389.444,122.9617,-3.36101,0.05379006,0.59752
392.044,123.802,-3.37205,0.05606115,0.5966
394.644,124.644,-3.3858,0.0519596,0.59567
397.244,125.481,-3.39772,0.0504125,0.59473
399.844,126.315,-3.40806,0.05435547,0.59378
402.444,127.149,-3.41885,0.05661849,0.59281
405.044,127.988,-3.43098,0.05588043,0.59184
407.644,128.828,-3.44109,0.05454173,0.59085
410.244,129.669,-3.45436,0.05450996,0.58985
412.844,130.511,-3.46208,0.05235275,0.58884
415.444,131.3519,-3.47343,0.05354901,0.58782
418.044,132.1949,-3.48153,0.05117275,0.58679
420.644,133.036,-3.49054,0.05092196,0.58574
423.244,133.877,-3.49844,0.05409704,0.58468
425.844,134.725,-3.5071,0.05464415,0.58362
428.444,135.569,-3.51635,0.04880163,0.58254
431.044,136.416,-3.5253,0.05386745,0.58145
433.644,137.268,-3.53167,0.0556927,0.58035
436.244,138.113,-3.53573,0.05514461,0.57924
438.844,138.96,-3.54637,0.05295554,0.57812
441.444,139.81,-3.55262,0.05370575,0.57699
444.044,140.657,-3.558,0.05437652,0.57585
446.644,141.509,-3.56475,0.06210842,0.57469
449.244,142.357,-3.5752,0.06254212,0.57353
451.844,143.204,-3.57741,0.06870921,0.57236
454.444,144.054,-3.58543,0.0703279,0.57118
457.044,144.907,-3.59179,0.07618938,0.56999
459.644,145.762,-3.59704,0.07560017,0.56878
462.244,146.618,-3.60335,0.07915303,0.56757
464.844,147.465,-3.61043,0.07859816,0.56635
467.444,148.318,-3.61525,0.07972198,0.56512
470.044,149.174,-3.61032,0.08041242,0.56388
472.644,150.031,-3.62512,0.08172056,0.56263
475.244,150.8877,-3.62938,0.07811106,0.56138
477.844,151.749,-3.63436,0.07797371,0.56011
480.444,152.609,-3.6396,0.07650689,0.55883
483.044,153.468,-3.64125,0.07578461,0.55755
485.644,154.333,-3.64718,0.07018726,0.55626
488.244,155.196,-3.6508,0.07214139,0.55495
490.844,156.055,-3.65409,0.07600785,0.55364
493.444,156.919,-3.65694,0.07905726,0.55233
496.044,157.777,-3.66198,0.08024917,0.551
498.644,158.638,-3.66589,0.07808935,0.54966
501.244,159.5,-3.67153,0.08362382,0.54832
503.844,160.364,-3.67645,0.08641607,0.54697
506.444,161.232,-3.68018,0.09057339,0.54561
509.044,162.096,-3.68151,0.09445131,0.54424
511.644,162.964,-3.68721,0.095018,0.54287
514.244,163.831,-3.68964,0.09861284,0.54149
516.844,164.696,-3.69138,0.10615,0.5401
519.444,165.56,-3.69664,0.10061,0.5387
522.044,166.426,-3.69938,0.10145,0.5373
524.644,167.295,-3.70202,0.10489,0.53589
527.244,168.169,-3.70454,0.10952,0.53447
529.844,169.037,-3.71002,0.11652,0.53304
532.444,169.91,-3.71222,0.12179,0.53161
535.044,170.78,-3.71638,0.12531,0.53017
537.644,171.649,-3.71735,0.12901,0.52873
540.244,172.519,-3.72083,0.13237,0.52727
542.844,173.391,-3.72341,0.13568,0.52582
545.444,174.2637,-3.72571,0.13299,0.52435
548.044,175.135,-3.72829,0.13061,0.52288
550.644,176.0106,-3.73173,0.13045,0.5214
553.244,176.882,-3.73151,0.1362,0.51992
555.844,177.755,-3.73843,0.13563,0.51843
558.444,178.632,-3.73865,0.14314,0.51694
561.044,179.508,-3.74304,0.145,0.51544
563.644,180.383,-3.74337,0.1511,0.51393
566.244,181.254,-3.74732,0.15517,0.51242
568.844,182.139,-3.75148,0.16339,0.5109
571.444,183.021,-3.74054,0.15862,0.50938
574.044,183.897,-3.75333,0.15795,0.50785
576.644,184.775,-3.75488,0.15834,0.50632
579.244,185.655,-3.75499,0.15826,0.50478
581.844,186.535,-3.75885,0.15452,0.50324
584.444,187.414,-3.7573,0.15572,0.5017
587.044,188.293,-3.75829,0.16015,0.50014
589.644,189.172,-3.76081,0.16488,0.49859
592.244,190.055,-3.76245,0.17099,0.49703
594.844,190.937,-3.76237,0.17475,0.49546
597.444,191.821,-3.76431,0.19983,0.49389
600.044,192.704,-3.76158,0.20669,0.49232
602.644,193.586,-3.7699,0.20898,0.49074
605.244,194.466,-3.76508,0.20812,0.48916
607.844,195.354,-3.76662,0.21291,0.48757
610.444,196.239,-3.76827,0.21332,0.48598
613.044,197.123,-3.7663,0.21675,0.48439
615.644,198.01,-3.76892,0.21703,0.48279
618.244,198.898,-3.77006,0.22524,0.48119
620.844,199.783,-3.7594,0.23767,0.47959
623.444,200.669,-3.76947,0.24139,0.47798
626.044,201.554,-3.77045,0.23834,0.47637
628.644,202.4412,-3.77046,0.25057,0.47476
631.244,203.328,-3.77309,0.2503,0.47314
633.844,204.215,-3.77309,0.24989,0.47153
636.444,205.099,-3.77276,0.25328,0.4699
639.044,205.987,-3.77468,0.25407,0.46828
641.644,206.8765,-3.77413,0.25186,0.46665
644.244,207.768,-3.77649,0.25703,0.46502
646.844,208.656,-3.77615,0.26114,0.46339
649.444,209.547,-3.77686,0.26876,0.46175
650.744,209.9901,-3.7732,0.27991,0.46093