Folder: fsri_materials_database/01_Data/Feather_Pillow_Feathers/STA/N2/10K_min

Note: 01_Data/README.md
# Materials and Products Database
## 01_Data

Raw data generated from each apparatus are included here in plain-text format. The data is organized first by material, next by the short name of test apparatus used, and where applicable additional filtering by test settings.

### material.json

Each material directory contains a json file of the same name as the material. This file links the data stored in the repository as well as data and graphs produced by the accompanying scripts (__02_Scripts__) to the respective landing page for the material on the front-end website.

File: Feather_Pillow_Feathers_STA_N2_10KData_2226_R2.csv
##Temp./Â°C,Time/min,Mass loss(subtr.2)/mg,DSC(subtr.2)/(mW/mg),Sensit./(uV/mW)
49.684,10.01,-0.09596,0.04811247,1.07018
52.584,11.2743,-0.10658,0.14602,1.06938
55.484,11.7005,-0.10978,0.20267,1.06857
58.384,12.05897,-0.11246,0.23622,1.06776
61.284,12.39332,-0.1144,0.26502,1.06693
64.184,12.71584,-0.11694,0.29039,1.0661
67.084,13.03147,-0.11967,0.3115,1.06525
69.984,13.3422,-0.12465,0.33351,1.0644
72.884,13.6496,-0.12647,0.35434,1.06354
75.784,13.95393,-0.13272,0.37383,1.06267
78.684,14.25584,-0.13687,0.39269,1.06179
81.584,14.55481,-0.14228,0.40608,1.0609
84.484,14.85104,-0.14525,0.41612,1.06001
87.384,15.14439,-0.15044,0.42337,1.0591
90.284,15.4359,-0.1551,0.42534,1.05819
93.184,15.72509,-0.15808,0.42033,1.05727
96.084,16.01267,-0.16315,0.41526,1.05633
98.984,16.29881,-0.16709,0.40749,1.05539
101.884,16.58352,-0.17003,0.39801,1.05444
104.784,16.8671,-0.17236,0.38397,1.05348
107.684,17.1505,-0.17537,0.37152,1.05252
110.584,17.43308,-0.17763,0.35901,1.05154
113.484,17.7165,-0.18129,0.34657,1.05055
116.384,17.9986,-0.18192,0.33708,1.04956
119.284,18.28037,-0.18224,0.32707,1.04855
122.184,18.56235,-0.18456,0.32127,1.04754
125.084,18.84352,-0.18521,0.31613,1.04652
127.984,19.1239,-0.18605,0.31298,1.04549
130.884,19.4039,-0.18719,0.31015,1.04445
133.784,19.68432,-0.18885,0.30894,1.0434
136.684,19.9637,-0.18916,0.30968,1.04234
139.584,20.24346,-0.19048,0.31101,1.04127
142.484,20.52168,-0.19048,0.30835,1.04019
145.384,20.80041,-0.18916,0.3116,1.0391
148.284,21.07874,-0.19047,0.31608,1.03801
151.184,21.3568,-0.19047,0.31755,1.0369
154.084,21.63532,-0.19213,0.31993,1.03579
156.984,21.91341,-0.19246,0.32227,1.03466
159.884,22.19115,-0.19279,0.32629,1.03353
162.784,22.4687,-0.1941,0.32933,1.03238
165.684,22.74643,-0.19506,0.33356,1.03123
168.584,23.02362,-0.19509,0.33593,1.03007
171.484,23.3007,-0.1964,0.3406,1.0289
174.384,23.57773,-0.19754,0.34252,1.02772
177.284,23.85481,-0.19673,0.34764,1.02653
180.184,24.1314,-0.19838,0.35313,1.02532
183.084,24.40759,-0.19836,0.3596,1.02411
185.984,24.68273,-0.20102,0.36547,1.02289
188.884,24.9588,-0.20068,0.37059,1.02167
191.784,25.23465,-0.20194,0.37726,1.02043
194.684,25.5107,-0.20497,0.38344,1.01918
197.584,25.78716,-0.20565,0.39077,1.01792
200.484,26.0629,-0.20735,0.40361,1.01665
203.384,26.3391,-0.2099,0.41824,1.01537
206.284,26.61474,-0.21249,0.43595,1.01409
209.184,26.89064,-0.21485,0.45914,1.01279
212.084,27.16593,-0.21821,0.48674,1.01148
214.984,27.44112,-0.2231,0.52496,1.01016
217.884,27.7168,-0.22844,0.57515,1.00884
220.784,27.9924,-0.23619,0.64499,1.0075
223.684,28.2695,-0.24604,0.72642,1.00615
226.584,28.5468,-0.25548,0.81551,1.0048
229.484,28.82382,-0.27186,0.87289,1.00343
232.384,29.10125,-0.28791,0.87976,1.00205
235.284,29.37845,-0.30661,0.85562,1.00067
238.184,29.6542,-0.3252,0.82084,0.99927
241.084,29.92965,-0.34199,0.79058,0.99786
243.984,30.20543,-0.36039,0.76972,0.99645
246.884,30.4808,-0.37857,0.76719,0.99502
249.784,30.7561,-0.39918,0.77532,0.99359
252.684,31.0321,-0.41774,0.78264,0.99214
255.584,31.3083,-0.43781,0.79225,0.99068
258.484,31.5842,-0.46123,0.7998,0.98922
261.384,31.86093,-0.48343,0.80837,0.98774
264.284,32.13715,-0.50917,0.81552,0.98625
267.184,32.41332,-0.53614,0.82546,0.98476
270.084,32.68955,-0.565,0.83005,0.98325
272.984,32.96613,-0.59215,0.84148,0.98173
275.884,33.24191,-0.62345,0.85007,0.9802
278.784,33.51801,-0.65108,0.86029,0.97867
281.684,33.79438,-0.68519,0.87338,0.97712
284.584,34.07098,-0.71899,0.88803,0.97556
287.484,34.34798,-0.75482,0.89884,0.97399
290.384,34.62466,-0.79432,0.90564,0.97241
293.284,34.90104,-0.83325,0.90485,0.97082
296.184,35.1777,-0.87514,0.89452,0.96923
299.084,35.45486,-0.91822,0.87043,0.96762
301.984,35.73125,-0.9636,0.83206,0.966
304.884,36.0088,-1.00589,0.79572,0.96437
307.784,36.28604,-1.04806,0.77038,0.96273
310.684,36.56261,-1.09925,0.79023,0.96108
313.584,36.8406,-1.15022,0.82386,0.95942
316.484,37.1189,-1.20811,0.84492,0.95775
319.384,37.39663,-1.2704,0.86118,0.95607
322.284,37.6746,-1.33359,0.87687,0.95437
325.184,37.95301,-1.40265,0.85179,0.95267
328.084,38.2309,-1.46621,0.82555,0.95096
330.984,38.50797,-1.53411,0.82849,0.94924
333.884,38.78712,-1.59802,0.81732,0.94751
336.784,39.0657,-1.66586,0.80491,0.94576
339.684,39.34393,-1.73071,0.77994,0.94401
342.584,39.6235,-1.79291,0.75303,0.94225
345.484,39.90253,-1.85121,0.71438,0.94047
348.384,40.18073,-1.9087,0.67114,0.93869
351.284,40.45955,-1.95932,0.63971,0.9369
354.184,40.7378,-2.00754,0.60536,0.93509
357.084,41.0171,-2.05331,0.57816,0.93328
359.984,41.29696,-2.09679,0.55724,0.93145
362.884,41.5765,-2.13527,0.53459,0.92962
365.784,41.85622,-2.17477,0.50732,0.92777
368.684,42.1364,-2.20769,0.48469,0.92592
371.584,42.41659,-2.24122,0.46338,0.92405
374.484,42.69744,-2.27017,0.447,0.92218
377.384,42.97837,-2.30029,0.43039,0.92029
380.284,43.25958,-2.32606,0.41645,0.91839
383.184,43.54128,-2.35173,0.4037,0.91649
386.084,43.82277,-2.37716,0.39227,0.91457
388.984,44.1042,-2.40167,0.38516,0.91264
391.884,44.3857,-2.42309,0.37634,0.91071
394.784,44.66721,-2.44363,0.36674,0.90876
397.684,44.94863,-2.46463,0.35883,0.9068
400.584,45.2296,-2.48316,0.35097,0.90484
403.484,45.51113,-2.50269,0.34463,0.90286
406.384,45.79305,-2.5193,0.33899,0.90087
409.284,46.0753,-2.53484,0.33164,0.89888
412.184,46.35802,-2.55151,0.32482,0.89687
415.084,46.64063,-2.56789,0.32253,0.89485
417.984,46.9227,-2.58314,0.31735,0.89282
420.884,47.20453,-2.59625,0.31359,0.89079
423.784,47.48758,-2.60984,0.3114,0.88874
426.684,47.77085,-2.62248,0.30448,0.88668
429.584,48.05473,-2.63726,0.30489,0.88462
432.484,48.33702,-2.64763,0.29811,0.88254
435.384,48.62148,-2.66061,0.29844,0.88045
438.284,48.90489,-2.67226,0.29471,0.87836
441.184,49.18842,-2.68233,0.29435,0.87625
444.084,49.47214,-2.69127,0.28838,0.87414
446.984,49.7564,-2.70244,0.28698,0.87201
449.884,50.04002,-2.71166,0.28364,0.86988
452.784,50.324,-2.71981,0.28327,0.86773
455.684,50.60792,-2.7294,0.27918,0.86558
458.584,50.8919,-2.73794,0.27822,0.86342
461.484,51.17646,-2.74858,0.27631,0.86124
464.384,51.4611,-2.75614,0.27419,0.85906
467.284,51.7454,-2.76191,0.27162,0.85687
470.184,52.03013,-2.77204,0.26978,0.85467
473.084,52.3155,-2.78015,0.26947,0.85246
475.984,52.6009,-2.78564,0.26517,0.85024
478.884,52.88609,-2.79244,0.26255,0.84801
481.784,53.17181,-2.79993,0.26476,0.84577
484.684,53.4571,-2.80575,0.26354,0.84352
487.584,53.74295,-2.81238,0.26018,0.84127
490.484,54.0292,-2.81788,0.26014,0.839
493.384,54.31491,-2.8244,0.25919,0.83673
496.284,54.60159,-2.83098,0.26032,0.83444
499.184,54.8877,-2.83616,0.25878,0.83215
502.084,55.1734,-2.8405,0.2576,0.82985
504.984,55.4598,-2.84546,0.25909,0.82754
507.884,55.74596,-2.85083,0.25876,0.82522
510.784,56.0321,-2.85435,0.25424,0.82289
513.684,56.3179,-2.85789,0.25581,0.82055
516.584,56.60411,-2.86052,0.26003,0.81821
519.484,56.8906,-2.86458,0.2653,0.81585
522.384,57.17768,-2.86714,0.26599,0.81349
525.284,57.4649,-2.87117,0.26939,0.81112
528.184,57.753,-2.87512,0.26719,0.80874
531.084,58.0412,-2.87786,0.26811,0.80636
533.984,58.3287,-2.88138,0.27095,0.80396
536.884,58.61623,-2.88434,0.27042,0.80156
539.784,58.9031,-2.88894,0.27293,0.79914
542.684,59.19045,-2.89224,0.2757,0.79672
545.584,59.4777,-2.89454,0.27819,0.79429
548.484,59.76481,-2.89583,0.27991,0.79186
551.384,60.05281,-2.8985,0.28249,0.78941
554.284,60.3411,-2.90248,0.28515,0.78696
557.184,60.62953,-2.90246,0.29989,0.7845
560.084,60.91715,-2.90771,0.30243,0.78203
562.984,61.2063,-2.90956,0.30507,0.77956
565.884,61.4948,-2.91464,0.30987,0.77708
568.784,61.78315,-2.91332,0.30796,0.77459
571.684,62.0717,-2.91544,0.30777,0.77209
574.584,62.361,-2.92002,0.30888,0.76958
577.484,62.65034,-2.92164,0.31138,0.76707
580.384,62.93968,-2.92562,0.31438,0.76455
583.284,63.22886,-2.92694,0.31269,0.76202
586.184,63.5183,-2.92889,0.31526,0.75949
589.084,63.80761,-2.93229,0.3175,0.75695
591.984,64.09659,-2.93253,0.32124,0.7544
594.884,64.38678,-2.93648,0.32042,0.75184
597.784,64.6768,-2.93781,0.32263,0.74928
600.684,64.9666,-2.94045,0.32394,0.74671
603.584,65.25628,-2.94146,0.32255,0.74414
606.484,65.5463,-2.94374,0.3263,0.74156
609.384,65.83699,-2.94814,0.3232,0.73897
612.284,66.12734,-2.9501,0.32242,0.73638
615.184,66.4181,-2.9501,0.32165,0.73378
618.084,66.70831,-2.95438,0.32131,0.73117
620.984,66.99908,-2.95405,0.32156,0.72856
623.884,67.28956,-2.95669,0.32256,0.72594
626.784,67.58009,-2.95866,0.32111,0.72331
629.684,67.8704,-2.96064,0.32096,0.72068
632.584,68.16163,-2.96116,0.31772,0.71804
635.484,68.45125,-2.96328,0.31446,0.7154
638.384,68.74237,-2.96591,0.31109,0.71275
641.284,69.03291,-2.96591,0.30626,0.7101
644.184,69.32382,-2.96987,0.30363,0.70744
647.084,69.61522,-2.97222,0.29998,0.70477
649.984,69.90639,-2.97238,0.30053,0.7021
652.884,70.1973,-2.97465,0.29546,0.69943
655.784,70.48971,-2.9758,0.29397,0.69675
658.684,70.78182,-2.97645,0.28922,0.69406
661.584,71.0737,-2.9792,0.2924,0.69137
664.484,71.3665,-2.97963,0.29498,0.68868
667.384,71.65795,-2.98015,0.29647,0.68598
670.284,71.9493,-2.98391,0.29791,0.68328
673.184,72.2406,-2.98626,0.2918,0.68057
676.084,72.53157,-2.98753,0.29479,0.67785
678.984,72.8233,-2.98885,0.29558,0.67514
681.884,73.115,-2.98952,0.29474,0.67241
684.784,73.4062,-2.99052,0.29362,0.66969
687.684,73.69896,-2.9915,0.2953,0.66696
690.584,73.99116,-2.99413,0.29493,0.66422
693.484,74.28278,-2.99544,0.29499,0.66148
696.384,74.5749,-2.99676,0.29804,0.65874
699.284,74.86596,-2.9984,0.29697,0.656
702.184,75.1563,-3.00107,0.29579,0.65325
705.084,75.4474,-3.00202,0.29988,0.6505
707.984,75.7388,-3.00335,0.29343,0.64774
710.884,76.03138,-3.005,0.2934,0.64498
713.784,76.3237,-3.00499,0.29234,0.64222
716.684,76.61694,-3.00763,0.28934,0.63945
719.584,76.90987,-3.00664,0.28746,0.63668
722.484,77.20376,-3.009,0.28598,0.63391
725.384,77.4958,-3.01203,0.28819,0.63114
728.284,77.7898,-3.01224,0.2841,0.62836
731.184,78.0824,-3.01454,0.28282,0.62558
734.084,78.375,-3.01444,0.28609,0.6228
736.984,78.6678,-3.01402,0.28024,0.62002
739.884,78.96082,-3.01549,0.27709,0.61723
742.784,79.25274,-3.0161,0.27727,0.61444
745.684,79.54549,-3.01575,0.27754,0.61165
748.584,79.83882,-3.01707,0.27841,0.60886
750.184,79.99936,-3.01805,0.27722,0.60731

File: Feather_Pillow_Feathers_STA_N2_10KData_2236_R3.csv
##Temp./Â°C,Time/min,Mass loss(subtr.2)/mg,DSC(subtr.2)/(mW/mg),Sensit./(uV/mW)
49.619,10.01,-0.00999,0.03030239,1.0702
52.619,11.2865,-0.0058403,0.13881,1.06937
55.619,11.71774,-0.008550666,0.19796,1.06854
58.619,12.08589,-0.008575479,0.23475,1.06769
61.619,12.42805,-0.009566277,0.26459,1.06684
64.619,12.75957,-0.00954998,0.2894,1.06597
67.619,13.08412,-0.01216038,0.31151,1.0651
70.619,13.40492,-0.01491011,0.3325,1.06421
73.619,13.722,-0.01743914,0.35532,1.06332
76.619,14.0362,-0.01876296,0.37507,1.06242
79.619,14.3468,-0.02405029,0.39496,1.06151
82.619,14.65506,-0.0266781,0.40867,1.06058
85.619,14.96049,-0.03062973,0.41976,1.05965
88.619,15.262,-0.03193776,0.4257,1.05871
91.619,15.5619,-0.03457957,0.42745,1.05776
94.619,15.85939,-0.0391466,0.42293,1.05681
97.619,16.1564,-0.04421041,0.4134,1.05584
100.619,16.45203,-0.04829223,0.40378,1.05486
103.619,16.74579,-0.0473728,0.39117,1.05387
106.619,17.0394,-0.04929,0.37705,1.05287
109.619,17.33257,-0.05064789,0.36315,1.05186
112.619,17.62485,-0.05176221,0.3496,1.05085
115.619,17.91701,-0.05222878,0.33917,1.04982
118.619,18.20893,-0.05206484,0.32673,1.04878
121.619,18.5007,-0.05455832,0.31773,1.04774
124.619,18.79091,-0.05456859,0.30937,1.04668
127.619,19.08118,-0.05367816,0.30333,1.04562
130.619,19.37136,-0.0545655,0.30137,1.04454
133.619,19.66058,-0.05170221,0.3006,1.04346
136.619,19.9499,-0.05357625,0.29817,1.04236
139.619,20.23845,-0.05598997,0.29776,1.04126
142.619,20.5272,-0.05336905,0.29822,1.04014
145.619,20.81557,-0.05282646,0.29765,1.03901
148.619,21.10333,-0.05423,0.30071,1.03788
151.619,21.391,-0.05424043,0.30213,1.03673
154.619,21.67843,-0.05281078,0.30487,1.03558
157.619,21.96605,-0.05412978,0.30642,1.03441
160.619,22.25255,-0.05541603,0.31364,1.03324
163.619,22.53923,-0.05279928,0.31605,1.03205
166.619,22.8259,-0.05279898,0.31955,1.03086
169.619,23.11241,-0.05522357,0.3212,1.02965
172.619,23.3989,-0.05368887,0.32581,1.02844
175.619,23.68516,-0.05450469,0.3278,1.02721
178.619,23.97198,-0.05379856,0.33081,1.02597
181.619,24.2575,-0.05387642,0.33522,1.02473
184.619,24.54414,-0.05758169,0.33989,1.02347
187.619,24.82943,-0.05609928,0.34622,1.0222
190.619,25.11373,-0.05872598,0.35422,1.02093
193.619,25.3992,-0.05607871,0.36079,1.01964
196.619,25.68721,-0.05731007,0.36872,1.01834
199.619,25.97325,-0.06212837,0.3779,1.01703
202.619,26.2584,-0.06279959,0.39268,1.01571
205.619,26.5442,-0.06559574,0.40839,1.01438
208.619,26.82987,-0.06751451,0.43096,1.01304
211.619,27.1151,-0.07048,0.45963,1.01169
214.619,27.40004,-0.07455339,0.4991,1.01033
217.619,27.6854,-0.080691,0.55058,1.00896
220.619,27.97125,-0.08597414,0.61858,1.00758
223.619,28.25746,-0.09619398,0.70924,1.00618
226.619,28.54246,-0.10782,0.80434,1.00478
229.619,28.8293,-0.12271,0.86339,1.00337
232.619,29.11559,-0.13836,0.87091,1.00194
235.619,29.40111,-0.16003,0.84176,1.00051
238.619,29.6857,-0.17723,0.80505,0.99906
241.619,29.96968,-0.19825,0.77286,0.9976
244.619,30.25618,-0.21477,0.75379,0.99614
247.619,30.5409,-0.23238,0.75073,0.99466
250.619,30.8262,-0.25362,0.7546,0.99317
253.619,31.1113,-0.27105,0.76075,0.99167
256.619,31.3976,-0.29706,0.77142,0.99016
259.619,31.68243,-0.32023,0.78107,0.98864
262.619,31.9687,-0.34302,0.7916,0.98711
265.619,32.25404,-0.36962,0.79849,0.98556
268.619,32.54038,-0.39816,0.80527,0.98401
271.619,32.8255,-0.42926,0.81238,0.98245
274.619,33.11101,-0.46015,0.81797,0.98087
277.619,33.39675,-0.48771,0.82679,0.97928
280.619,33.6828,-0.52159,0.83985,0.97769
283.619,33.96908,-0.55882,0.85119,0.97608
286.619,34.2553,-0.59596,0.86301,0.97446
289.619,34.5411,-0.63446,0.87144,0.97283
292.619,34.82761,-0.67532,0.87309,0.97119
295.619,35.11425,-0.71965,0.86709,0.96954
298.619,35.40146,-0.76452,0.84699,0.96788
301.619,35.68865,-0.81218,0.80677,0.9662
304.619,35.97551,-0.85918,0.74442,0.96452
307.619,36.26226,-0.9051,0.70756,0.96282
310.619,36.54866,-0.95157,0.73612,0.96111
313.619,36.83625,-1.00571,0.76625,0.9594
316.619,37.12343,-1.06127,0.79522,0.95767
319.619,37.41065,-1.1296,0.83001,0.95593
322.619,37.69882,-1.20274,0.83051,0.95418
325.619,37.98687,-1.27212,0.79,0.95242
328.619,38.27411,-1.33738,0.76332,0.95064
331.619,38.56205,-1.41081,0.76799,0.94886
334.619,38.84962,-1.48022,0.74165,0.94707
337.619,39.13823,-1.54757,0.72883,0.94526
340.619,39.42635,-1.61588,0.69083,0.94344
343.619,39.71483,-1.6798,0.65812,0.94162
346.619,40.00316,-1.74122,0.61365,0.93978
349.619,40.29195,-1.79897,0.56935,0.93793
352.619,40.5809,-1.85043,0.54226,0.93607
355.619,40.86956,-1.89936,0.50896,0.9342
358.619,41.1584,-1.94233,0.47798,0.93231
361.619,41.44849,-1.98261,0.45603,0.93042
364.619,41.7379,-2.02542,0.43686,0.92852
367.619,42.02778,-2.06172,0.41103,0.9266
370.619,42.31708,-2.09419,0.38502,0.92467
373.619,42.60694,-2.13061,0.36394,0.92274
376.619,42.8972,-2.16255,0.34772,0.92079
379.619,43.18785,-2.191,0.33323,0.91883
382.619,43.47867,-2.21712,0.31894,0.91686
385.619,43.76996,-2.24584,0.30898,0.91488
388.619,44.06131,-2.26602,0.29632,0.91289
391.619,44.35248,-2.29122,0.28614,0.91088
394.619,44.643,-2.31376,0.27628,0.90887
397.619,44.9339,-2.33229,0.26856,0.90685
400.619,45.22448,-2.35319,0.25952,0.90481
403.619,45.51531,-2.37065,0.25128,0.90277
406.619,45.80639,-2.39097,0.24524,0.90071
409.619,46.0974,-2.40635,0.23619,0.89864
412.619,46.39097,-2.42247,0.22829,0.89657
415.619,46.68342,-2.44006,0.22391,0.89448
418.619,46.97588,-2.45524,0.21828,0.89238
421.619,47.26883,-2.46787,0.21383,0.89027
424.619,47.5616,-2.48393,0.20994,0.88815
427.619,47.85455,-2.49747,0.20475,0.88602
430.619,48.147,-2.509,0.20056,0.88388
433.619,48.4398,-2.5192,0.1973,0.88172
436.619,48.73134,-2.53479,0.19287,0.87956
439.619,49.02442,-2.54621,0.18765,0.87739
442.619,49.3178,-2.55739,0.18323,0.87521
445.619,49.61312,-2.56759,0.179,0.87301
448.619,49.90708,-2.57762,0.17641,0.87081
451.619,50.20061,-2.58766,0.17589,0.8686
454.619,50.4947,-2.59713,0.17351,0.86637
457.619,50.78884,-2.6073,0.17153,0.86414
460.619,51.08333,-2.61566,0.16718,0.86189
463.619,51.37764,-2.62226,0.16429,0.85964
466.619,51.67185,-2.63159,0.16314,0.85737
469.619,51.96634,-2.63759,0.16082,0.8551
472.619,52.2609,-2.64846,0.1601,0.85281
475.619,52.55464,-2.65466,0.16025,0.85052
478.619,52.8498,-2.66355,0.15626,0.84821
481.619,53.1452,-2.66692,0.15438,0.8459
484.619,53.4401,-2.67498,0.15222,0.84357
487.619,53.73604,-2.6806,0.15088,0.84124
490.619,54.03144,-2.68906,0.14935,0.83889
493.619,54.3273,-2.69175,0.14708,0.83654
496.619,54.6233,-2.69874,0.14854,0.83418
499.619,54.92,-2.70309,0.14783,0.8318
502.619,55.2158,-2.71149,0.14493,0.82942
505.619,55.51226,-2.71303,0.14389,0.82703
508.619,55.80849,-2.71667,0.1416,0.82463
511.619,56.1049,-2.72394,0.13973,0.82222
514.619,56.40192,-2.72531,0.14188,0.8198
517.619,56.6982,-2.73141,0.14219,0.81737
520.619,56.99545,-2.7354,0.14526,0.81493
523.619,57.29184,-2.73823,0.1464,0.81248
526.619,57.5892,-2.74117,0.1475,0.81003
529.619,57.88689,-2.74535,0.14829,0.80756
532.619,58.18439,-2.74857,0.15076,0.80509
535.619,58.48202,-2.75269,0.15114,0.8026
538.619,58.78046,-2.75402,0.1518,0.80011
541.619,59.07878,-2.75809,0.15176,0.79761
544.619,59.3762,-2.75989,0.15401,0.7951
547.619,59.67402,-2.76192,0.1571,0.79259
550.619,59.9719,-2.76959,0.16121,0.79006
553.619,60.26831,-2.77015,0.16183,0.78752
556.619,60.5658,-2.77268,0.16334,0.78498
559.619,60.86555,-2.77542,0.16729,0.78243
562.619,61.1631,-2.77823,0.1672,0.77987
565.619,61.46181,-2.78103,0.17292,0.7773
568.619,61.76036,-2.78115,0.17668,0.77473
571.619,62.0593,-2.78652,0.17882,0.77214
574.619,62.35794,-2.78655,0.18188,0.76955
577.619,62.6574,-2.79037,0.18639,0.76695
580.619,62.9572,-2.79168,0.18811,0.76435
583.619,63.257,-2.79162,0.18702,0.76173
586.619,63.5564,-2.79831,0.18889,0.75911
589.619,63.85665,-2.80036,0.18973,0.75648
592.619,64.15528,-2.80299,0.19073,0.75384
595.619,64.4557,-2.80463,0.19012,0.7512
598.619,64.75559,-2.80694,0.19101,0.74854
601.619,65.0551,-2.80717,0.18714,0.74589
604.619,65.35445,-2.81014,0.18949,0.74322
607.619,65.6542,-2.81276,0.18473,0.74055
610.619,65.95479,-2.81362,0.18298,0.73787
613.619,66.2555,-2.81954,0.18247,0.73518
616.619,66.5556,-2.81859,0.18034,0.73249
619.619,66.85554,-2.81903,0.17911,0.72979
622.619,67.15728,-2.82324,0.17482,0.72708
625.619,67.45776,-2.82384,0.17312,0.72437
628.619,67.75855,-2.82667,0.17054,0.72165
631.619,68.0591,-2.8298,0.17035,0.71892
634.619,68.35973,-2.8311,0.1706,0.71619
637.619,68.66083,-2.83243,0.16487,0.71345
640.619,68.96035,-2.83538,0.16483,0.71071
643.619,69.26161,-2.83731,0.16207,0.70796
646.619,69.56435,-2.83779,0.15732,0.7052
649.619,69.8648,-2.84139,0.15445,0.70244
652.619,70.16571,-2.84318,0.15221,0.69967
655.619,70.46766,-2.84406,0.15045,0.6969
658.619,70.76947,-2.84603,0.14666,0.69412
661.619,71.07128,-2.84735,0.14199,0.69134
664.619,71.37316,-2.85144,0.14155,0.68855
667.619,71.67469,-2.85084,0.13476,0.68576
670.619,71.97589,-2.85437,0.13391,0.68296
673.619,72.27721,-2.85643,0.12946,0.68016
676.619,72.57888,-2.85876,0.12921,0.67735
679.619,72.87997,-2.85876,0.1245,0.67454
682.619,73.18119,-2.86052,0.1241,0.67172
685.619,73.4814,-2.86128,0.12447,0.6689
688.619,73.78214,-2.8626,0.12336,0.66608
691.619,74.08386,-2.86642,0.12349,0.66325
694.619,74.38548,-2.86392,0.11774,0.66041
697.619,74.68734,-2.86904,0.12006,0.65757
700.619,74.99043,-2.86974,0.11501,0.65473
703.619,75.2925,-2.87105,0.11194,0.65189
706.619,75.5946,-2.87269,0.11044,0.64904
709.619,75.89664,-2.87541,0.10788,0.64618
712.619,76.19926,-2.87413,0.09734472,0.64333
715.619,76.50227,-2.87493,0.09750209,0.64047
718.619,76.80516,-2.87907,0.09284283,0.63761
721.619,77.10808,-2.87841,0.09086979,0.63474
724.619,77.41133,-2.88105,0.09258254,0.63187
727.619,77.71427,-2.87863,0.09521278,0.629
730.619,78.0174,-2.88357,0.093184,0.62612
733.619,78.32136,-2.88346,0.08982394,0.62325
736.619,78.62371,-2.8873,0.08899705,0.62037
739.619,78.92663,-2.88763,0.08709397,0.61748
742.619,79.22869,-2.89044,0.08725963,0.6146
745.619,79.53153,-2.88906,0.0857878,0.61171
748.619,79.83498,-2.89408,0.08296265,0.60882
750.219,79.99673,-2.88726,0.08298019,0.60728