Folder: fsri_materials_database/01_Data/Feather_Pillow_Feathers/STA/N2/30K_min

Note: 01_Data/README.md
# Materials and Products Database
## 01_Data

Raw data generated from each apparatus are included here in plain-text format. The data is organized first by material, next by the short name of test apparatus used, and where applicable additional filtering by test settings.

### material.json

Each material directory contains a json file of the same name as the material. This file links the data stored in the repository as well as data and graphs produced by the accompanying scripts (__02_Scripts__) to the respective landing page for the material on the front-end website.

File: Feather_Pillow_Feathers_STA_N2_30KData_2236_R2.csv
##Temp./Â°C,Time/min,Mass loss(subtr.2)/mg,DSC(subtr.2)/(mW/mg),Sensit./(uV/mW)
48.557,10.01,-0.05797,0.03745291,1.054
51.757,10.8872,-0.06288591,0.18114,1.05335
54.957,11.1217,-0.06319708,0.2843,1.05267
58.157,11.30172,-0.06699702,0.36895,1.05198
61.357,11.45665,-0.06342459,0.4392,1.05127
64.557,11.59752,-0.06839917,0.50346,1.05054
67.757,11.7292,-0.06734708,0.56158,1.04979
70.957,11.85546,-0.06841779,0.61756,1.04902
74.157,11.97724,-0.06855009,0.67078,1.04824
77.357,12.09573,-0.07021622,0.72584,1.04743
80.557,12.21192,-0.07415003,0.7794,1.04661
83.757,12.32569,-0.07643976,0.83571,1.04577
86.957,12.4384,-0.0793979,0.88896,1.04491
90.157,12.54893,-0.08202383,0.937,1.04404
93.357,12.6591,-0.08471627,0.98096,1.04315
96.557,12.76798,-0.08879471,1.01798,1.04223
99.757,12.87606,-0.09282721,1.04649,1.04131
102.957,12.98396,-0.09578064,1.06586,1.04036
106.157,13.09104,-0.09838402,1.0676,1.03939
109.357,13.1987,-0.10243,1.06398,1.03841
112.557,13.30525,-0.10649,1.04938,1.03741
115.757,13.41196,-0.10781,1.02535,1.0364
118.957,13.51776,-0.11056,0.99529,1.03536
122.157,13.62365,-0.11341,0.95976,1.03431
125.357,13.7292,-0.11483,0.92383,1.03325
128.557,13.83365,-0.1189,0.88436,1.03216
131.757,13.93785,-0.1189,0.85027,1.03106
134.957,14.0413,-0.12033,0.81745,1.02994
138.157,14.14448,-0.12302,0.78532,1.02881
141.357,14.2471,-0.12428,0.76238,1.02765
144.557,14.349,-0.123,0.74281,1.02649
147.757,14.4507,-0.12428,0.72974,1.0253
150.957,14.552,-0.12428,0.72036,1.0241
154.157,14.65288,-0.1236,0.71542,1.02288
157.357,14.75366,-0.12459,0.71492,1.02165
160.557,14.854,-0.12593,0.7123,1.0204
163.757,14.9543,-0.12698,0.71705,1.01914
166.957,15.0543,-0.12758,0.72104,1.01786
170.157,15.1541,-0.12738,0.72526,1.01656
173.357,15.25349,-0.12758,0.73123,1.01525
176.557,15.35261,-0.12889,0.73762,1.01392
179.757,15.4515,-0.12889,0.74535,1.01257
182.957,15.54998,-0.13021,0.75429,1.01121
186.157,15.64811,-0.13218,0.76494,1.00984
189.357,15.74615,-0.13075,0.77616,1.00845
192.557,15.8439,-0.13207,0.79123,1.00704
195.757,15.94144,-0.13351,0.80653,1.00562
198.957,16.03869,-0.13405,0.82559,1.00419
202.157,16.13574,-0.13405,0.84553,1.00274
205.357,16.2328,-0.13546,0.87193,1.00127
208.557,16.32948,-0.13675,0.90332,0.99979
211.757,16.42621,-0.13557,0.94443,0.9983
214.957,16.5229,-0.13808,0.99678,0.99679
218.157,16.61946,-0.14098,1.06933,0.99527
221.357,16.71611,-0.1436,1.16509,0.99373
224.557,16.8128,-0.1489,1.29831,0.99218
227.757,16.90915,-0.15469,1.47302,0.99061
230.957,17.00619,-0.16246,1.6954,0.98903
234.157,17.1026,-0.17023,1.92535,0.98744
237.357,17.19981,-0.18343,2.0932,0.98583
240.557,17.29675,-0.19698,2.16495,0.98421
243.757,17.3936,-0.21326,2.17537,0.98257
246.957,17.4904,-0.2294,2.14387,0.98093
250.157,17.58691,-0.24776,2.09636,0.97926
253.357,17.68346,-0.26304,2.04798,0.97759
256.557,17.77965,-0.28077,2.01543,0.9759
259.757,17.8761,-0.29845,2.00017,0.9742
262.957,17.9726,-0.31591,2.00064,0.97248
266.157,18.0689,-0.33495,2.01813,0.97075
269.357,18.16531,-0.35518,2.046,0.96901
272.557,18.26165,-0.37854,2.07409,0.96726
275.757,18.3582,-0.40231,2.10014,0.96549
278.957,18.4546,-0.4274,2.1157,0.96372
282.157,18.55132,-0.45401,2.12334,0.96192
285.357,18.64793,-0.48107,2.1298,0.96012
288.557,18.74444,-0.51027,2.13601,0.9583
291.757,18.84094,-0.53996,2.14716,0.95648
294.957,18.9377,-0.57125,2.16482,0.95464
298.157,19.03414,-0.6027,2.18928,0.95278
301.357,19.13097,-0.63559,2.21413,0.95092
304.557,19.2271,-0.66883,2.21675,0.94904
307.757,19.32396,-0.70367,2.1591,0.94716
310.957,19.42073,-0.74079,1.97575,0.94526
314.157,19.51724,-0.77561,1.90243,0.94335
317.357,19.61395,-0.8133,1.90146,0.94142
320.557,19.7105,-0.85225,1.94737,0.93949
323.757,19.80725,-0.89573,2.01739,0.93755
326.957,19.90409,-0.95296,2.12126,0.93559
330.157,20.00121,-1.00796,2.14483,0.93362
333.357,20.09817,-1.06924,2.18723,0.93165
336.557,20.1954,-1.13436,2.25456,0.92966
339.757,20.29259,-1.20291,2.29956,0.92766
342.957,20.38997,-1.27721,2.332,0.92565
346.157,20.48745,-1.35291,2.34878,0.92363
349.357,20.58496,-1.43185,2.33385,0.9216
352.557,20.68253,-1.50718,2.29354,0.91956
355.757,20.78002,-1.59122,2.23416,0.91751
358.957,20.8777,-1.66622,2.14822,0.91544
362.157,20.97531,-1.74083,2.02776,0.91337
365.357,21.0732,-1.8096,1.9055,0.91129
368.557,21.1708,-1.87765,1.77273,0.9092
371.757,21.26861,-1.94045,1.64454,0.9071
374.957,21.36652,-1.99692,1.52323,0.90499
378.157,21.46423,-2.05142,1.41584,0.90287
381.357,21.56244,-2.10197,1.31975,0.90074
384.557,21.66074,-2.15069,1.23468,0.8986
387.757,21.75893,-2.19523,1.15931,0.89645
390.957,21.85726,-2.23689,1.08893,0.8943
394.157,21.95566,-2.27683,1.02144,0.89213
397.357,22.05415,-2.31539,0.95321,0.88996
400.557,22.1528,-2.34989,0.89184,0.88777
403.757,22.25157,-2.38372,0.8336,0.88558
406.957,22.3505,-2.41347,0.78067,0.88338
410.157,22.4494,-2.43965,0.7316,0.88117
413.357,22.5485,-2.46864,0.68982,0.87895
416.557,22.64752,-2.49409,0.65047,0.87672
419.757,22.74683,-2.51498,0.61564,0.87449
422.957,22.8463,-2.53972,0.58547,0.87224
426.157,22.94586,-2.55979,0.55413,0.86999
429.357,23.04567,-2.57867,0.52457,0.86773
432.557,23.1452,-2.59696,0.49696,0.86547
435.757,23.24514,-2.6148,0.47269,0.86319
438.957,23.3451,-2.63083,0.45152,0.86091
442.157,23.44523,-2.64439,0.43203,0.85862
445.357,23.5454,-2.65772,0.41138,0.85632
448.557,23.64578,-2.67246,0.39505,0.85401
451.757,23.74615,-2.68546,0.38099,0.8517
454.957,23.84696,-2.69614,0.36713,0.84938
458.157,23.94765,-2.70824,0.35138,0.84705
461.357,24.0485,-2.71874,0.3408,0.84472
464.557,24.14943,-2.72927,0.32756,0.84238
467.757,24.25054,-2.74092,0.31759,0.84003
470.957,24.3515,-2.74829,0.30721,0.83768
474.157,24.453,-2.7586,0.29844,0.83532
477.357,24.554,-2.76676,0.28849,0.83295
480.557,24.65575,-2.77554,0.27666,0.83057
483.757,24.75713,-2.78578,0.2685,0.82819
486.957,24.8588,-2.79198,0.26071,0.82581
490.157,24.96045,-2.80151,0.25328,0.82341
493.357,25.0621,-2.80902,0.24293,0.82101
496.557,25.16378,-2.81542,0.23663,0.81861
499.757,25.26576,-2.82229,0.22779,0.8162
502.957,25.36796,-2.82921,0.22012,0.81378
506.157,25.47002,-2.83527,0.21145,0.81135
509.357,25.57207,-2.8399,0.20444,0.80893
512.557,25.67429,-2.84715,0.19712,0.80649
515.757,25.77669,-2.85241,0.19004,0.80405
518.957,25.87908,-2.85832,0.18281,0.80161
522.157,25.98155,-2.86371,0.17576,0.79916
525.357,26.08391,-2.86734,0.17034,0.7967
528.557,26.18665,-2.87371,0.1662,0.79424
531.757,26.2893,-2.8781,0.15949,0.79177
534.957,26.39215,-2.88379,0.15124,0.7893
538.157,26.4951,-2.88579,0.14599,0.78683
541.357,26.59817,-2.88851,0.14465,0.78435
544.557,26.7013,-2.89243,0.14203,0.78186
547.757,26.8045,-2.89383,0.13561,0.77937
550.957,26.90782,-2.89819,0.13445,0.77688
554.157,27.011,-2.90151,0.13382,0.77438
557.357,27.11445,-2.90725,0.13213,0.77187
560.557,27.21782,-2.90872,0.13045,0.76937
563.757,27.3215,-2.91154,0.13017,0.76686
566.957,27.42495,-2.91436,0.13506,0.76434
570.157,27.5289,-2.9163,0.13405,0.76182
573.357,27.63255,-2.91991,0.1377,0.7593
576.557,27.73638,-2.92397,0.13899,0.75677
579.757,27.84011,-2.92683,0.13941,0.75424
582.957,27.94404,-2.92829,0.14036,0.7517
586.157,28.0476,-2.93107,0.14207,0.74916
589.357,28.1521,-2.93398,0.14209,0.74662
592.557,28.25644,-2.937,0.14499,0.74408
595.757,28.3605,-2.93968,0.14955,0.74153
598.957,28.4649,-2.94179,0.15181,0.73898
602.157,28.56907,-2.94415,0.15278,0.73642
605.357,28.67362,-2.94573,0.15342,0.73386
608.557,28.77807,-2.94879,0.15262,0.7313
611.757,28.8826,-2.94986,0.15044,0.72874
614.957,28.98695,-2.95152,0.14736,0.72617
618.157,29.092,-2.95481,0.14257,0.7236
621.357,29.19663,-2.95727,0.13755,0.72103
624.557,29.3017,-2.95855,0.132,0.71845
627.757,29.40655,-2.96152,0.13052,0.71588
630.957,29.51117,-2.96414,0.12206,0.7133
634.157,29.6162,-2.96741,0.11802,0.71071
637.357,29.7212,-2.96888,0.11334,0.70813
640.557,29.8264,-2.9701,0.10553,0.70554
643.757,29.93158,-2.97295,0.0965759,0.70295
646.957,30.0369,-2.97508,0.08803446,0.70036
650.157,30.14188,-2.978,0.0780036,0.69777
653.357,30.24725,-2.97853,0.0680387,0.69518
656.557,30.3527,-2.98225,0.05883948,0.69258
659.757,30.4582,-2.98239,0.04850755,0.68998
662.957,30.56338,-2.98537,0.03783035,0.68738
666.157,30.6688,-2.98809,0.02814787,0.68478
669.357,30.77423,-2.99102,0.02087833,0.68218
672.557,30.87957,-2.99128,0.00788451,0.67957
675.757,30.9851,-2.9927,-0.003172564,0.67697
678.957,31.09051,-2.99548,-0.01583703,0.67436
682.157,31.19623,-2.99683,-0.02449948,0.67176
685.357,31.3018,-2.99823,-0.03334981,0.66915
688.557,31.40751,-3.00148,-0.04392938,0.66654
691.757,31.51318,-3.00272,-0.05587092,0.66393
694.957,31.61895,-3.00557,-0.06752727,0.66131
698.157,31.7248,-3.00682,-0.08385494,0.6587
701.357,31.8306,-3.00811,-0.0908256,0.65609
704.557,31.9365,-3.01093,-0.09848455,0.65348
707.757,32.04247,-3.01376,-0.10994,0.65086
710.957,32.14832,-3.01369,-0.11896,0.64825
714.157,32.25464,-3.0153,-0.12412,0.64563
717.357,32.36072,-3.01795,-0.13574,0.64302
720.557,32.46705,-3.0193,-0.14373,0.6404
723.757,32.57331,-3.02129,-0.15091,0.63778
726.957,32.67945,-3.02311,-0.15683,0.63517
730.157,32.78581,-3.02461,-0.16414,0.63255
733.357,32.8922,-3.02518,-0.16721,0.62994
736.557,32.99842,-3.02666,-0.17591,0.62732
739.757,33.10507,-3.0287,-0.1784,0.62471
742.957,33.21157,-3.03002,-0.18564,0.62209
746.157,33.31816,-3.03163,-0.194,0.61948
749.357,33.4249,-3.03157,-0.19783,0.61686
752.557,33.53152,-3.03441,-0.20126,0.61425
755.757,33.63839,-3.03596,-0.20796,0.61163
758.957,33.74517,-3.03601,-0.21159,0.60902
762.157,33.85191,-3.03616,-0.20972,0.60641
765.357,33.95897,-3.03764,-0.21679,0.6038
768.557,34.06585,-3.04042,-0.23176,0.60119
771.757,34.1729,-3.04267,-0.23295,0.59858
774.957,34.2799,-3.04265,-0.23756,0.59597
778.157,34.38706,-3.04398,-0.23568,0.59336
781.357,34.49423,-3.044,-0.24443,0.59075
784.557,34.60132,-3.04398,-0.25068,0.58815
787.757,34.70865,-3.04672,-0.25761,0.58555
790.957,34.81595,-3.04739,-0.26066,0.58294
794.157,34.92334,-3.04952,-0.26302,0.58034
796.357,34.99727,-3.04946,-0.26435,0.57855

File: Feather_Pillow_Feathers_STA_N2_30KData_2236_R3.csv
##Temp./Â°C,Time/min,Mass loss(subtr.2)/mg,DSC(subtr.2)/(mW/mg),Sensit./(uV/mW)
48.491,10.01,-0.07497,0.04904603,1.05402
51.591,10.87707,-0.08020966,0.21017,1.05338
54.691,11.10853,-0.08098906,0.3254,1.05273
57.791,11.28577,-0.08038139,0.41894,1.05206
60.891,11.43832,-0.08096607,0.49594,1.05137
63.991,11.57681,-0.08268811,0.56859,1.05067
67.091,11.70571,-0.08602476,0.63481,1.04995
70.191,11.8291,-0.08490359,0.69838,1.04921
73.291,11.94805,-0.08677748,0.76085,1.04845
76.391,12.06391,-0.08798625,0.82314,1.04768
79.491,12.17689,-0.09035374,0.88063,1.04689
82.591,12.28823,-0.09067091,0.94011,1.04608
85.691,12.3977,-0.09388677,0.99457,1.04526
88.791,12.50571,-0.09771986,1.0493,1.04442
91.891,12.61261,-0.10047,1.09738,1.04356
94.991,12.71832,-0.10462,1.13287,1.04268
98.091,12.82368,-0.10725,1.1634,1.04179
101.191,12.92811,-0.11166,1.18767,1.04088
104.291,13.03209,-0.11537,1.19959,1.03996
107.391,13.1364,-0.11801,1.20133,1.03902
110.491,13.2399,-0.12064,1.19355,1.03806
113.591,13.34312,-0.12469,1.17712,1.03709
116.691,13.4459,-0.12593,1.15683,1.0361
119.791,13.54853,-0.12854,1.12661,1.03509
122.891,13.6509,-0.13085,1.09595,1.03407
125.991,13.7524,-0.1325,1.066,1.03303
129.091,13.8536,-0.13355,1.03591,1.03198
132.191,13.95434,-0.13478,1.01,1.03091
135.291,14.0543,-0.13646,0.98537,1.02982
138.391,14.154,-0.13718,0.96624,1.02872
141.491,14.2531,-0.13842,0.95171,1.02761
144.591,14.3521,-0.13842,0.94361,1.02647
147.691,14.45064,-0.13842,0.94111,1.02533
150.791,14.5488,-0.13974,0.94103,1.02416
153.891,14.6465,-0.13974,0.94114,1.02299
156.991,14.74394,-0.13974,0.94973,1.02179
160.091,14.84141,-0.13975,0.95473,1.02058
163.191,14.93844,-0.13971,0.96421,1.01936
166.291,15.0349,-0.14074,0.97187,1.01812
169.391,15.13214,-0.14188,0.98022,1.01687
172.491,15.2286,-0.14041,0.99262,1.0156
175.591,15.3248,-0.14041,1.00093,1.01432
178.691,15.4206,-0.14244,1.01146,1.01302
181.791,15.51624,-0.14304,1.02477,1.01171
184.891,15.61156,-0.14305,1.03691,1.01038
187.991,15.70659,-0.14421,1.04908,1.00904
191.091,15.8013,-0.14436,1.06779,1.00769
194.191,15.89616,-0.14567,1.08244,1.00632
197.291,15.99056,-0.14699,1.09963,1.00494
200.391,16.085,-0.14832,1.1203,1.00354
203.491,16.17933,-0.1496,1.14475,1.00213
206.591,16.27345,-0.15091,1.1739,1.0007
209.691,16.36746,-0.15089,1.21021,0.99927
212.791,16.4614,-0.15358,1.25516,0.99781
215.891,16.55542,-0.15489,1.31577,0.99635
218.991,16.64929,-0.15764,1.39278,0.99487
222.091,16.74305,-0.16043,1.49352,0.99337
225.191,16.83697,-0.16483,1.63085,0.99187
228.291,16.93091,-0.17152,1.80563,0.99035
231.391,17.02476,-0.1769,2.02129,0.98882
234.491,17.11872,-0.18784,2.24246,0.98727
237.591,17.21278,-0.19923,2.39601,0.98571
240.691,17.3067,-0.21439,2.46639,0.98414
243.791,17.40052,-0.22733,2.47688,0.98256
246.891,17.49428,-0.24413,2.44833,0.98096
249.991,17.58802,-0.26078,2.40465,0.97935
253.091,17.6816,-0.27742,2.36047,0.97773
256.191,17.77494,-0.29293,2.32674,0.97609
259.291,17.86804,-0.31033,2.31211,0.97445
262.391,17.96125,-0.32797,2.31033,0.97279
265.491,18.0547,-0.34468,2.33028,0.97112
268.591,18.148,-0.3637,2.35284,0.96943
271.691,18.2411,-0.38544,2.3805,0.96774
274.791,18.3344,-0.40719,2.40825,0.96603
277.891,18.42752,-0.43174,2.43044,0.96431
280.991,18.521,-0.45453,2.44524,0.96258
284.091,18.61422,-0.4821,2.454,0.96084
287.191,18.7075,-0.50834,2.46042,0.95908
290.291,18.80066,-0.53514,2.47067,0.95732
293.391,18.89418,-0.56384,2.4884,0.95554
296.491,18.98751,-0.59455,2.51024,0.95375
299.591,19.08095,-0.62497,2.53656,0.95195
302.691,19.17438,-0.65931,2.56394,0.95014
305.791,19.2678,-0.69532,2.58091,0.94832
308.891,19.36141,-0.7297,2.55513,0.94648
311.991,19.45495,-0.76895,2.41954,0.94464
315.091,19.54826,-0.80461,2.26578,0.94279
318.191,19.64166,-0.83854,2.22948,0.94092
321.291,19.73495,-0.87827,2.2539,0.93905
324.391,19.82884,-0.92214,2.33676,0.93716
327.491,19.92248,-0.9725,2.4401,0.93526
330.591,20.0162,-1.02916,2.51458,0.93336
333.691,20.1102,-1.08739,2.57616,0.93144
336.791,20.20426,-1.14979,2.61226,0.92951
339.891,20.2984,-1.21509,2.64696,0.92757
342.991,20.39266,-1.28194,2.6877,0.92563
346.091,20.48691,-1.35387,2.7093,0.92367
349.191,20.58135,-1.42866,2.72294,0.9217
352.291,20.67567,-1.5016,2.70061,0.91973
355.391,20.77015,-1.57881,2.64355,0.91774
358.491,20.8649,-1.65369,2.55618,0.91575
361.591,20.95952,-1.7252,2.45261,0.91374
364.691,21.05399,-1.79655,2.34112,0.91173
367.791,21.14858,-1.85974,2.21375,0.9097
370.891,21.2434,-1.92066,2.09654,0.90767
373.991,21.33817,-1.98183,1.98749,0.90563
377.091,21.43289,-2.03389,1.87921,0.90358
380.191,21.52778,-2.08483,1.76735,0.90152
383.291,21.62276,-2.1332,1.66419,0.89945
386.391,21.71756,-2.17482,1.5784,0.89737
389.491,21.8129,-2.21646,1.50216,0.89529
392.591,21.9085,-2.25491,1.42687,0.89319
395.691,22.00398,-2.2896,1.36389,0.89109
398.791,22.09958,-2.32517,1.29686,0.88898
401.891,22.1951,-2.35491,1.23686,0.88686
404.991,22.29075,-2.38355,1.18205,0.88473
408.091,22.3866,-2.4131,1.12866,0.88259
411.191,22.48261,-2.43853,1.08523,0.88045
414.291,22.57859,-2.46305,1.04643,0.8783
417.391,22.6748,-2.48527,1.01248,0.87614
420.491,22.77081,-2.50641,0.98234,0.87397
423.591,22.8674,-2.52694,0.95359,0.8718
426.691,22.96392,-2.5463,0.9308,0.86962
429.791,23.06046,-2.56363,0.91132,0.86743
432.891,23.15719,-2.5815,0.88901,0.86523
435.991,23.2539,-2.59731,0.87487,0.86302
439.091,23.3509,-2.61074,0.85954,0.86081
442.191,23.44801,-2.62784,0.84667,0.85859
445.291,23.54455,-2.63933,0.83455,0.85637
448.391,23.64185,-2.65095,0.81966,0.85413
451.491,23.73938,-2.66315,0.80476,0.85189
454.591,23.83685,-2.67559,0.78892,0.84965
457.691,23.93435,-2.68615,0.77617,0.84739
460.791,24.03201,-2.69638,0.76264,0.84513
463.891,24.1297,-2.70546,0.74884,0.84287
466.991,24.2278,-2.71571,0.73451,0.84059
470.091,24.32583,-2.72551,0.71867,0.83831
473.191,24.42384,-2.73484,0.69626,0.83603
476.291,24.52204,-2.74323,0.67762,0.83374
479.391,24.62025,-2.75141,0.66076,0.83144
482.491,24.71817,-2.75814,0.6472,0.82913
485.591,24.81645,-2.76585,0.63567,0.82682
488.691,24.9149,-2.77299,0.62819,0.82451
491.791,25.01359,-2.78006,0.61863,0.82219
494.891,25.11244,-2.78673,0.61224,0.81986
497.991,25.21144,-2.79496,0.60419,0.81753
501.091,25.3104,-2.80111,0.59925,0.81519
504.191,25.4091,-2.80612,0.59302,0.81284
507.291,25.50814,-2.81108,0.5862,0.81049
510.391,25.6071,-2.81834,0.58069,0.80814
513.491,25.70628,-2.82253,0.57561,0.80578
516.591,25.80544,-2.82827,0.57067,0.80342
519.691,25.9047,-2.83397,0.56497,0.80104
522.791,26.0043,-2.83836,0.56127,0.79867
525.891,26.1035,-2.84244,0.5577,0.79629
528.991,26.2031,-2.84609,0.55189,0.79391
532.091,26.30232,-2.84966,0.54709,0.79152
535.191,26.4021,-2.85393,0.54117,0.78912
538.291,26.5017,-2.85928,0.53983,0.78672
541.391,26.60142,-2.8624,0.53752,0.78432
544.491,26.7012,-2.86533,0.53442,0.78191
547.591,26.8011,-2.86885,0.53176,0.7795
550.691,26.9011,-2.87232,0.53054,0.77708
553.791,27.00088,-2.87673,0.52891,0.77466
556.891,27.10128,-2.87906,0.5303,0.77224
559.991,27.20151,-2.88092,0.52971,0.76981
563.091,27.3019,-2.88597,0.52892,0.76738
566.191,27.40226,-2.88725,0.5304,0.76494
569.291,27.5027,-2.88992,0.53167,0.7625
572.391,27.60313,-2.8925,0.53175,0.76006
575.491,27.704,-2.89535,0.53513,0.75761
578.591,27.8046,-2.89946,0.53759,0.75516
581.691,27.9053,-2.89951,0.54197,0.75271
584.791,28.00602,-2.90343,0.54475,0.75025
587.891,28.10691,-2.90728,0.54936,0.74779
590.991,28.2079,-2.90766,0.55367,0.74532
594.091,28.3088,-2.91057,0.55936,0.74285
597.191,28.40993,-2.91451,0.56611,0.74038
600.291,28.51098,-2.91494,0.57443,0.73791
603.391,28.612,-2.91715,0.57917,0.73543
606.491,28.71317,-2.92111,0.58006,0.73296
609.591,28.8147,-2.92232,0.57784,0.73047
612.691,28.91595,-2.92288,0.5783,0.72799
615.791,29.0172,-2.9264,0.57427,0.7255
618.891,29.1186,-2.93024,0.57617,0.72301
621.991,29.21988,-2.93022,0.57666,0.72052
625.091,29.32113,-2.93285,0.57468,0.71802
628.191,29.42253,-2.93546,0.57637,0.71553
631.291,29.52416,-2.93793,0.57624,0.71303
634.391,29.6255,-2.93952,0.57384,0.71052
637.491,29.7272,-2.94206,0.57318,0.70802
640.591,29.8289,-2.94472,0.57539,0.70552
643.691,29.93042,-2.94736,0.57232,0.70301
646.791,30.0322,-2.948,0.57262,0.7005
649.891,30.134,-2.94926,0.56656,0.69799
652.991,30.23582,-2.95122,0.56577,0.69547
656.091,30.33762,-2.95327,0.55803,0.69296
659.191,30.43958,-2.95459,0.55339,0.69044
662.291,30.5416,-2.95767,0.54946,0.68792
665.391,30.64343,-2.95988,0.54647,0.6854
668.491,30.7452,-2.96015,0.54103,0.68288
671.591,30.84736,-2.96184,0.53719,0.68036
674.691,30.9493,-2.96448,0.53256,0.67784
677.791,31.0517,-2.96576,0.52891,0.67531
680.891,31.1542,-2.96732,0.52318,0.67279
683.991,31.2563,-2.96971,0.51404,0.67026
687.091,31.35858,-2.97099,0.51109,0.66773
690.191,31.46094,-2.974,0.50471,0.6652
693.291,31.5632,-2.97601,0.50093,0.66267
696.391,31.66565,-2.97666,0.49684,0.66014
699.491,31.76813,-2.9781,0.49053,0.65761
702.591,31.8706,-2.97995,0.48315,0.65508
705.691,31.97317,-2.98227,0.4766,0.65255
708.791,32.07567,-2.9849,0.47019,0.65002
711.891,32.17822,-2.98489,0.46095,0.64748
714.991,32.2812,-2.98719,0.45598,0.64495
718.091,32.38394,-2.98851,0.44333,0.64242
721.191,32.4872,-2.98974,0.43964,0.63988
724.291,32.59024,-2.99247,0.4332,0.63735
727.391,32.6935,-2.98711,0.42674,0.63481
730.491,32.79684,-2.99036,0.421,0.63228
733.591,32.90013,-2.99301,0.41194,0.62975
736.691,33.00355,-2.99566,0.40404,0.62721
739.791,33.1071,-2.99841,0.39981,0.62468
742.891,33.21066,-2.99961,0.39027,0.62214
745.991,33.31381,-3.00282,0.38187,0.61961
749.091,33.4176,-3.00355,0.37446,0.61708
752.191,33.52112,-3.00356,0.36611,0.61455
755.291,33.62441,-3.00492,0.35124,0.61201
758.391,33.72783,-3.0062,0.34594,0.60948
761.491,33.83137,-3.00751,0.33504,0.60695
764.591,33.9347,-3.00883,0.3261,0.60442
767.691,34.0383,-3.00757,0.31398,0.60189
770.791,34.1417,-3.00752,0.30209,0.59937
773.891,34.24543,-3.00797,0.29361,0.59684
776.991,34.34924,-3.00926,0.286,0.59431
780.091,34.45286,-3.01475,0.28224,0.59179
783.191,34.55676,-3.01877,0.27659,0.58926
786.291,34.66065,-3.0266,0.27144,0.58674
789.391,34.7643,-3.02734,0.25755,0.58422
792.491,34.86813,-3.02413,0.25154,0.5817
795.591,34.97187,-3.02192,0.24456,0.57918
796.391,34.99837,-3.02075,0.24576,0.57853