Folder: fsri_materials_database/01_Data/PP/STA/N2/10K_min

Note: 01_Data/README.md
# Materials and Products Database
## 01_Data

Raw data generated from each apparatus are included here in plain-text format. The data is organized first by material, next by the short name of test apparatus used, and where applicable additional filtering by test settings.

### material.json

Each material directory contains a json file of the same name as the material. This file links the data stored in the repository as well as data and graphs produced by the accompanying scripts (__02_Scripts__) to the respective landing page for the material on the front-end website.

File: PP_STA_N2_10KData_210824_R1.csv
##Temp./Â°C,Time/min,Mass loss(subtr.2)/mg,DSC(subtr.2)/(mW/mg),Sensit./(uV/mW)
49.735,10.00917,0.00987,0.03283151,1.03585
52.335,12.39434,0.01307739,0.12738,1.03571
54.935,13.09579,0.016275,0.17226,1.03555
57.535,13.65359,0.01737215,0.20238,1.03535
60.135,14.13926,0.01491499,0.22564,1.03513
62.735,14.5832,0.0174097,0.24831,1.03488
65.335,14.99296,0.01632798,0.2693,1.0346
67.935,15.3775,0.01886092,0.28722,1.03429
70.535,15.7407,0.01802338,0.30169,1.03395
73.135,16.08962,0.01843784,0.31327,1.03359
75.735,16.42669,0.01958742,0.32356,1.03319
78.335,16.75064,0.02700628,0.33288,1.03277
80.935,17.06472,0.02098757,0.34557,1.03232
83.535,17.37194,0.0199289,0.35565,1.03184
86.135,17.67071,0.0214209,0.36521,1.03134
88.735,17.96329,0.02215226,0.37499,1.03081
91.335,18.24867,0.02175851,0.38331,1.03025
93.935,18.52929,0.02085055,0.39003,1.02966
96.535,18.80573,0.02465432,0.40162,1.02905
99.135,19.0777,0.02280673,0.4094,1.02841
101.735,19.34617,0.02842422,0.41684,1.02775
104.335,19.6121,0.0240767,0.42403,1.02706
106.935,19.87545,0.02274647,0.43334,1.02634
109.535,20.138,0.02382415,0.44358,1.0256
112.135,20.3984,0.02541781,0.45211,1.02483
114.735,20.65648,0.02487586,0.4599,1.02404
117.335,20.91284,0.02585838,0.47129,1.02322
119.935,21.1673,0.01660973,0.47941,1.02238
122.535,21.4207,0.02423511,0.49215,1.02151
125.135,21.67197,0.02544456,0.50336,1.02062
127.735,21.92144,0.0241562,0.52023,1.0197
130.335,22.16897,0.01811118,0.53849,1.01876
132.935,22.41525,0.02654546,0.55801,1.01779
135.535,22.6605,0.02588685,0.57837,1.0168
138.135,22.90396,0.02626867,0.60675,1.01579
140.735,23.14623,0.02714948,0.6425,1.01476
143.335,23.38734,0.03309798,0.68736,1.0137
145.935,23.6281,0.02598693,0.74439,1.01262
148.535,23.8684,0.02731,0.81909,1.01152
151.135,24.10715,0.02796589,0.91517,1.01039
153.735,24.34746,0.02978609,1.03367,1.00924
156.335,24.5858,0.02697956,1.16722,1.00807
158.935,24.82469,0.02750127,1.27649,1.00688
161.535,25.0623,0.02787798,1.2743,1.00567
164.135,25.29917,0.0283,1.04154,1.00443
166.735,25.53443,0.02961166,0.76919,1.00318
169.335,25.7687,0.02866982,0.62882,1.0019
171.935,26.0034,0.02829958,0.58404,1.0006
174.535,26.23763,0.02960999,0.56947,0.99928
177.135,26.47168,0.0309067,0.57034,0.99795
179.735,26.70593,0.02960639,0.57417,0.99659
182.335,26.93927,0.03092914,0.57622,0.99521
184.935,27.17255,0.02237899,0.57967,0.99381
187.535,27.40506,0.02977115,0.58032,0.9924
190.135,27.63748,0.03004971,0.5851,0.99096
192.735,27.87091,0.02974865,0.58736,0.98951
195.335,28.1033,0.03268813,0.59015,0.98803
197.935,28.33575,0.03149055,0.58982,0.98654
200.535,28.56782,0.03256418,0.59612,0.98503
203.135,28.8002,0.03092931,0.59631,0.98351
205.735,29.0322,0.03095566,0.59865,0.98196
208.335,29.26398,0.03094,0.60249,0.9804
210.935,29.49667,0.03224719,0.60566,0.97882
213.535,29.729,0.03224992,0.60542,0.97722
216.135,29.96139,0.03092611,0.60992,0.97561
218.735,30.1939,0.03221604,0.61291,0.97398
221.335,30.4268,0.03256765,0.61473,0.97233
223.935,30.65895,0.03225015,0.61729,0.97067
226.535,30.89172,0.03223135,0.61764,0.96899
229.135,31.1249,0.03355994,0.61957,0.96729
231.735,31.3571,0.03357,0.61984,0.96558
234.335,31.59003,0.03381674,0.62168,0.96386
236.935,31.82297,0.03356,0.62462,0.96212
239.535,32.0561,0.03238056,0.62728,0.96037
242.135,32.2894,0.03225002,0.62749,0.9586
244.735,32.52252,0.03356016,0.62808,0.95681
247.335,32.7562,0.03265685,0.62911,0.95502
249.935,32.98969,0.03484741,0.63135,0.95321
252.535,33.22375,0.03454879,0.63143,0.95138
255.135,33.45693,0.03421775,0.63456,0.94954
257.735,33.69086,0.03245857,0.63514,0.94769
260.335,33.9246,0.03458306,0.63602,0.94583
262.935,34.15875,0.03425542,0.6381,0.94395
265.535,34.39233,0.03488046,0.63838,0.94207
268.135,34.62656,0.0341471,0.64175,0.94017
270.735,34.86143,0.03357012,0.63983,0.93825
273.335,35.09581,0.03350147,0.64155,0.93633
275.935,35.32986,0.03618982,0.64183,0.93439
278.535,35.56487,0.03467561,0.63899,0.93245
281.135,35.79978,0.03477004,0.64178,0.93049
283.735,36.03529,0.03476991,0.64394,0.92852
286.335,36.2701,0.03477007,0.64325,0.92654
288.935,36.50627,0.03477001,0.64442,0.92456
291.535,36.742,0.03577664,0.64225,0.92256
294.135,36.97807,0.03509995,0.64435,0.92055
296.735,37.2147,0.03414887,0.64466,0.91853
299.335,37.45117,0.03574718,0.64561,0.9165
301.935,37.68797,0.03577578,0.64784,0.91446
304.535,37.92494,0.03477,0.64757,0.91242
307.135,38.16193,0.03444938,0.65125,0.91037
309.735,38.39953,0.03379039,0.65001,0.9083
312.335,38.63657,0.03513219,0.64983,0.90623
314.935,38.87445,0.03575499,0.64913,0.90415
317.535,39.1127,0.03454859,0.64663,0.90207
320.135,39.3506,0.03410969,0.65149,0.89997
322.735,39.58869,0.03410999,0.64929,0.89787
325.335,39.82732,0.03444484,0.65038,0.89576
327.935,40.0664,0.03514905,0.65201,0.89365
330.535,40.3054,0.03240798,0.65318,0.89152
333.135,40.54397,0.03311991,0.65471,0.8894
335.735,40.78369,0.03245964,0.6556,0.88726
338.335,41.02292,0.03227417,0.65682,0.88512
340.935,41.26273,0.03181,0.65714,0.88297
343.535,41.50245,0.03067775,0.65761,0.88082
346.135,41.7425,0.02951,0.65857,0.87866
348.735,41.98265,0.02851996,0.65964,0.8765
351.335,42.2232,0.02819952,0.65922,0.87433
353.935,42.46427,0.02532559,0.66161,0.87216
356.535,42.70495,0.02533815,0.65842,0.86998
359.135,42.9472,0.02279063,0.65818,0.8678
361.735,43.18857,0.02139,0.66153,0.86562
364.335,43.43043,0.01842897,0.66174,0.86343
366.935,43.67197,0.01706097,0.66004,0.86124
369.535,43.91466,0.01480673,0.6624,0.85904
372.135,44.15667,0.012523,0.66083,0.85684
374.735,44.3988,0.009210016,0.65842,0.85464
377.335,44.6421,0.006564758,0.66072,0.85243
379.935,44.8847,0.00124491,0.66371,0.85023
382.535,45.12836,-0.002747025,0.66541,0.84802
385.135,45.37154,-0.005468926,0.67127,0.8458
387.735,45.61603,-0.01151319,0.67465,0.84359
390.335,45.86077,-0.01689894,0.67182,0.84137
392.935,46.1047,-0.02482348,0.67866,0.83915
395.535,46.3498,-0.02963871,0.68721,0.83693
398.135,46.59472,-0.03838584,0.6937,0.83471
400.735,46.84015,-0.04694652,0.69786,0.83249
403.335,47.08648,-0.0570297,0.71179,0.83027
405.935,47.3328,-0.06791068,0.72236,0.82805
408.535,47.57958,-0.07956468,0.73463,0.82582
411.135,47.82597,-0.09380524,0.76376,0.8236
413.735,48.0718,-0.11108,0.78645,0.82137
416.335,48.31879,-0.13061,0.80982,0.81915
418.935,48.56555,-0.15303,0.86583,0.81692
421.535,48.81235,-0.181,0.88251,0.8147
424.135,49.05984,-0.21093,0.90572,0.81248
426.735,49.30684,-0.24372,0.966,0.81025
429.335,49.55532,-0.2861,1.03844,0.80803
431.935,49.80314,-0.33551,1.11972,0.80581
434.535,50.05164,-0.39531,1.22327,0.80359
437.135,50.29992,-0.46972,1.35121,0.80137
439.735,50.54874,-0.56031,1.49113,0.79916
442.335,50.797,-0.66347,1.6424,0.79694
444.935,51.04557,-0.78834,1.81923,0.79473
447.535,51.295,-0.946,1.98259,0.79252
450.135,51.54356,-1.11917,2.10172,0.79031
452.735,51.79353,-1.31382,2.26228,0.7881
455.335,52.04306,-1.55297,2.34384,0.7859
457.935,52.29184,-1.82096,2.37176,0.7837
460.535,52.54015,-2.12291,2.31436,0.7815
463.135,52.7887,-2.45322,2.15372,0.77931
465.735,53.03702,-2.78999,1.88165,0.77712
468.335,53.28521,-3.11885,1.50188,0.77493
470.935,53.5348,-3.4189,1.03867,0.77274
473.535,53.78439,-3.66779,0.56829,0.77056
476.135,54.03442,-3.8531,0.21411,0.76838
478.735,54.2854,-3.97351,0.02569554,0.76621
481.335,54.53689,-4.0411,-0.01766385,0.76404
483.935,54.78821,-4.06735,-0.004778681,0.76188
486.535,55.04,-4.09107,-0.02231256,0.75971
489.135,55.29136,-4.11378,-0.06968185,0.75756
491.735,55.54195,-4.1122,-0.10748,0.75541
494.335,55.7934,-4.11027,-0.13671,0.75326
496.935,56.045,-4.11125,-0.14191,0.75112
499.535,56.2967,-4.11028,-0.16635,0.74898
502.135,56.54883,-4.11158,-0.17706,0.74685
504.735,56.80154,-4.11026,-0.18417,0.74472
507.335,57.05367,-4.1087,-0.19013,0.7426
509.935,57.3075,-4.10797,-0.19218,0.74048
512.535,57.5606,-4.10764,-0.1935,0.73837
515.135,57.8142,-4.10928,-0.20168,0.73627
517.735,58.06725,-4.10928,-0.20573,0.73417
520.335,58.32,-4.10796,-0.20569,0.73207
522.935,58.57339,-4.10829,-0.2099,0.72999
525.535,58.8284,-4.10825,-0.2122,0.72791
528.135,59.0818,-4.10829,-0.2206,0.72583
530.735,59.337,-4.10829,-0.22259,0.72376
533.335,59.59117,-4.10566,-0.22799,0.7217
535.935,59.84599,-4.10566,-0.23228,0.71965
538.535,60.10111,-4.10566,-0.23624,0.7176
541.135,60.3562,-4.10566,-0.2422,0.71556
543.735,60.61139,-4.10434,-0.24754,0.71352
546.335,60.8677,-4.10434,-0.25346,0.7115
548.935,61.1235,-4.10566,-0.25638,0.70948
551.535,61.37882,-4.10499,-0.26199,0.70746
554.135,61.634,-4.10646,-0.26763,0.70546
556.735,61.88915,-4.105,-0.27241,0.70346
559.335,62.14606,-4.10588,-0.2776,0.70147
561.935,62.4026,-4.1049,-0.28013,0.69948
564.535,62.65885,-4.10568,-0.28169,0.69751
567.135,62.9162,-4.10501,-0.28716,0.69554
569.735,63.1729,-4.10379,-0.29444,0.69358
572.335,63.43049,-4.105,-0.29723,0.69162
574.935,63.68772,-4.10237,-0.2905,0.68968
577.535,63.94392,-4.10368,-0.29187,0.68774
580.135,64.20084,-4.10368,-0.30136,0.68581
582.735,64.45792,-4.10238,-0.30845,0.68389
585.335,64.71595,-4.10368,-0.30878,0.68198
587.935,64.97391,-4.10436,-0.31186,0.68008
590.535,65.23085,-4.10324,-0.31683,0.67818
593.135,65.48869,-4.10304,-0.31896,0.67629
595.735,65.74647,-4.10303,-0.32577,0.67441
598.335,66.0041,-4.10369,-0.32817,0.67254
600.935,66.26258,-4.10237,-0.3341,0.67068
603.535,66.52073,-4.10302,-0.33568,0.66883
606.135,66.77919,-4.10171,-0.33804,0.66698
608.735,67.039,-4.10204,-0.34002,0.66515
611.335,67.29774,-4.10204,-0.34409,0.66332
613.935,67.5565,-4.10324,-0.34722,0.6615
616.535,67.81478,-4.10204,-0.35077,0.65969
619.135,68.07369,-4.10104,-0.35276,0.65789
621.735,68.33312,-4.10236,-0.35684,0.6561
624.335,68.59315,-4.10073,-0.36473,0.65432
626.935,68.85271,-4.10209,-0.36432,0.65254
629.535,69.11275,-4.10073,-0.37256,0.65078
632.135,69.3727,-4.10069,-0.37947,0.64902
634.735,69.63309,-4.10072,-0.38295,0.64728
637.335,69.893,-4.10072,-0.38964,0.64554
638.335,69.9932,-4.09928,-0.39016,0.64487

File: PP_STA_N2_10KData_210825_R2.csv
##Temp./Â°C,Time/min,Mass loss(subtr.2)/mg,DSC(subtr.2)/(mW/mg),Sensit./(uV/mW)
49.226,10.01,-0.00593,0.03889283,1.03587
51.826,12.33804,-0.005174655,0.12106,1.03574
54.426,13.04318,-0.00590821,0.16257,1.03558
57.026,13.5995,-0.00593616,0.19463,1.03539
59.626,14.08826,-0.006330252,0.21738,1.03518
62.226,14.53169,-0.004769869,0.23782,1.03493
64.826,14.94111,-0.005907901,0.25189,1.03466
67.426,15.32576,-0.01316869,0.26576,1.03435
70.026,15.6912,-0.005434932,0.27802,1.03402
72.626,16.03963,-0.005385956,0.29048,1.03366
75.226,16.37688,-0.003023047,0.30237,1.03327
77.826,16.7022,-0.004649369,0.31208,1.03285
80.426,17.01676,-0.004138108,0.32319,1.03241
83.026,17.32301,-0.003848505,0.33482,1.03194
85.626,17.62196,-0.0029582,0.3441,1.03144
88.226,17.91292,-0.004500015,0.35206,1.03091
90.826,18.1993,-0.004127049,0.35861,1.03036
93.426,18.4799,-0.00307042,0.36911,1.02978
96.026,18.75621,-0.001934674,0.37801,1.02917
98.626,19.02889,-0.00330095,0.387,1.02854
101.226,19.29896,-0.00267776,0.39476,1.02788
103.826,19.56512,-0.003272021,0.40158,1.02719
106.426,19.82987,-0.00330001,0.40915,1.02648
109.026,20.09186,-0.001980096,0.41783,1.02575
111.626,20.35162,-0.001980117,0.4312,1.02498
114.226,20.60998,-0.00165197,0.43802,1.02419
116.826,20.86658,-0.000653913,0.44812,1.02338
119.426,21.12092,-0.001982969,0.45465,1.02254
122.026,21.37301,-0.001982014,0.46888,1.02168
124.626,21.62504,-0.001986652,0.48253,1.02079
127.226,21.8749,-0.001980458,0.49782,1.01988
129.826,22.1229,-0.002108177,0.51233,1.01894
132.426,22.36901,-0.001979831,0.53239,1.01798
135.026,22.61403,-0.0019819,0.55132,1.017
137.626,22.85745,-0.001954558,0.57889,1.01599
140.226,23.10035,-0.001981555,0.61209,1.01496
142.826,23.34156,-0.001329648,0.65449,1.01391
145.426,23.58186,5.08792e-06,0.70554,1.01283
148.026,23.822,-0.001320218,0.7745,1.01173
150.626,24.06081,-0.001316184,0.86409,1.01061
153.226,24.29961,3.682473e-05,0.97175,1.00947
155.826,24.53813,-8.491617e-05,1.10468,1.0083
158.426,24.7767,5.786329e-07,1.23593,1.00711
161.026,25.01401,0.001341057,1.29125,1.00591
163.626,25.251,-0.000325893,1.13851,1.00467
166.226,25.48709,-1.454822e-05,0.84951,1.00342
168.826,25.72144,-1.189471e-05,0.65819,1.00215
171.426,25.95579,-6.222757e-05,0.5818,1.00086
174.026,26.18971,-7.71819e-06,0.55866,0.99954
176.626,26.42375,0.002765434,0.55386,0.99821
179.226,26.65796,0.000980003,0.55759,0.99686
181.826,26.8912,0.0007512632,0.55688,0.99548
184.426,27.12459,-3.192587e-08,0.56241,0.99409
187.026,27.3574,0.0004353223,0.56702,0.99268
189.626,27.58995,0.0009800008,0.56881,0.99124
192.226,27.82175,0.0009806269,0.57424,0.98979
194.826,28.05408,0.002289581,0.57774,0.98832
197.426,28.2861,0.0029452,0.57998,0.98684
200.026,28.5183,0.002300196,0.58327,0.98533
202.626,28.75,0.000989997,0.58757,0.98381
205.226,28.98208,0.00230124,0.58828,0.98226
207.826,29.214,0.003584355,0.59233,0.9807
210.426,29.44609,0.002289997,0.59238,0.97913
213.026,29.67823,0.002299999,0.59613,0.97753
215.626,29.91,0.00295758,0.59709,0.97592
218.226,30.1426,0.001638033,0.60139,0.9743
220.826,30.3747,0.004244605,0.60172,0.97265
223.426,30.60705,0.002960083,0.60675,0.97099
226.026,30.83938,0.004626998,0.60877,0.96932
228.626,31.07167,0.003289979,0.61173,0.96763
231.226,31.3042,0.00374435,0.61096,0.96592
233.826,31.5365,0.00492934,0.61332,0.9642
236.426,31.76916,0.001999242,0.61923,0.96246
239.026,32.0021,0.00460022,0.62137,0.96071
241.626,32.23523,0.004787154,0.62279,0.95894
244.226,32.46852,0.01444265,0.62142,0.95716
246.826,32.70153,0.004070748,0.62552,0.95537
249.426,32.93469,0.00272905,0.63022,0.95356
252.026,33.16762,0.003729465,0.62987,0.95174
254.626,33.401,0.003829934,0.63258,0.94991
257.226,33.6349,0.00383025,0.63463,0.94806
259.826,33.86808,0.002540654,0.63567,0.9462
262.426,34.1018,0.004820095,0.6406,0.94432
265.026,34.33558,0.004821586,0.64217,0.94244
267.626,34.56994,0.00482,0.64231,0.94054
270.226,34.80415,0.004893934,0.64491,0.93863
272.826,35.03819,0.006155019,0.65022,0.93671
275.426,35.2727,0.004834159,0.65095,0.93477
278.026,35.50734,0.004388127,0.6523,0.93283
280.626,35.7425,0.004819957,0.65564,0.93088
283.226,35.97723,0.005110972,0.65675,0.92891
285.826,36.2126,0.004500024,0.6586,0.92693
288.426,36.4484,0.00584613,0.65911,0.92495
291.026,36.68442,0.00515504,0.66146,0.92295
293.626,36.9205,0.005156497,0.66267,0.92094
296.226,37.15656,0.00614,0.66502,0.91893
298.826,37.39318,0.007458891,0.6684,0.9169
301.426,37.62988,0.00614,0.66521,0.91486
304.026,37.86692,0.00613,0.66726,0.91282
306.626,38.10426,0.00613,0.67157,0.91077
309.226,38.3412,0.00613,0.67424,0.90871
311.826,38.5781,0.005149982,0.67188,0.90664
314.426,38.8147,0.00515,0.67576,0.90456
317.026,39.0526,0.005164892,0.68148,0.90247
319.626,39.29014,0.00580999,0.6805,0.90038
322.226,39.52825,0.004829642,0.68363,0.89828
324.826,39.76645,0.005154985,0.68425,0.89617
327.426,40.00435,0.00418562,0.68649,0.89406
330.026,40.24264,0.00537352,0.69044,0.89194
332.626,40.48134,0.005585928,0.68972,0.88981
335.226,40.71971,0.00294966,0.6922,0.88768
337.826,40.9585,0.00525866,0.692,0.88554
340.426,41.19762,0.004272222,0.69726,0.88339
343.026,41.43688,0.00347313,0.69906,0.88124
345.626,41.67657,0.001319445,0.70151,0.87909
348.226,41.9163,0.00128377,0.70499,0.87692
350.826,42.15614,0.0005747002,0.70697,0.87476
353.426,42.396,-0.000120135,0.70891,0.87259
356.026,42.63641,-0.00143001,0.71255,0.87041
358.626,42.87672,-0.002598375,0.71709,0.86823
361.226,43.1176,-0.004726812,0.71919,0.86605
363.826,43.3587,-0.00604,0.72366,0.86386
366.426,43.60037,-0.008350584,0.72865,0.86167
369.026,43.84198,-0.01064,0.73376,0.85947
371.626,44.08359,-0.01368475,0.73962,0.85727
374.226,44.32578,-0.0146931,0.74705,0.85507
376.826,44.5682,-0.01873817,0.75256,0.85287
379.426,44.81172,-0.02435055,0.7553,0.85066
382.026,45.0548,-0.02698998,0.76116,0.84845
384.626,45.29845,-0.03093222,0.76663,0.84624
387.226,45.54185,-0.03631967,0.77452,0.84402
389.826,45.78553,-0.04146509,0.79047,0.84181
392.426,46.02916,-0.04847338,0.80441,0.83959
395.026,46.27414,-0.05714267,0.80523,0.83737
397.626,46.51852,-0.06328657,0.80477,0.83515
400.226,46.76324,-0.07332015,0.81305,0.83293
402.826,47.00826,-0.08553637,0.82554,0.8307
405.426,47.25357,-0.09714633,0.83607,0.82848
408.026,47.4992,-0.1085,0.85157,0.82626
410.626,47.745,-0.1204,0.87527,0.82403
413.226,47.99106,-0.13294,0.9008,0.82181
415.826,48.23724,-0.15308,0.9307,0.81958
418.426,48.4848,-0.17378,0.96849,0.81736
421.026,48.73198,-0.19967,1.01249,0.81513
423.626,48.97936,-0.2148,1.06952,0.81291
426.226,49.22668,-0.25815,1.13211,0.81069
428.826,49.47361,-0.29479,1.20929,0.80847
431.426,49.72068,-0.33742,1.30223,0.80625
434.026,49.9684,-0.39028,1.4027,0.80403
436.626,50.21698,-0.45414,1.53729,0.80181
439.226,50.46523,-0.53243,1.69162,0.79959
441.826,50.71392,-0.62515,1.86497,0.79738
444.426,50.96294,-0.74229,2.04958,0.79516
447.026,51.21265,-0.87395,2.21658,0.79295
449.626,51.46165,-1.033,2.39398,0.79074
452.226,51.712,-1.21579,2.51072,0.78854
454.826,51.96095,-1.42206,2.54736,0.78633
457.426,52.20977,-1.66659,2.57073,0.78413
460.026,52.4589,-1.94778,2.5351,0.78193
462.626,52.7075,-2.25278,2.40533,0.77974
465.226,52.9563,-2.57156,2.144,0.77754
467.826,53.2053,-2.88865,1.76765,0.77536
470.426,53.45479,-3.1774,1.30635,0.77317
473.026,53.7042,-3.41992,0.83124,0.77099
475.626,53.9542,-3.5984,0.44029,0.76881
478.226,54.20469,-3.71826,0.19211,0.76664
480.826,54.4561,-3.78713,0.12585,0.76447
483.426,54.7072,-3.82683,0.14907,0.7623
486.026,54.95927,-3.84955,0.15818,0.76014
488.626,55.211,-3.86139,0.12054,0.75798
491.226,55.4622,-3.8682,0.08166151,0.75583
493.826,55.7139,-3.87299,0.04662166,0.75368
496.426,55.9654,-3.87308,0.0319168,0.75154
499.026,56.21689,-3.87311,0.02290924,0.7494
501.626,56.46889,-3.8718,0.001122628,0.74726
504.226,56.72055,-3.87214,0.00144785,0.74514
506.826,56.97319,-3.87084,0.001665263,0.74301
509.426,57.22577,-3.87182,-0.003465155,0.7409
512.026,57.47928,-3.86919,-0.006841511,0.73878
514.626,57.7321,-3.8705,-0.00682031,0.73668
517.226,57.98588,-3.87017,-0.004925001,0.73458
519.826,58.2389,-3.8705,-0.00760892,0.73248
522.426,58.4925,-3.86722,-0.006292159,0.7304
525.026,58.74666,-3.86951,-0.00546374,0.72831
527.626,59.00039,-3.86819,-0.004413108,0.72624
530.226,59.2551,-3.86851,-0.003109505,0.72417
532.826,59.5099,-3.87116,-0.002438277,0.72211
535.426,59.76481,-3.86868,-0.006901877,0.72005
538.026,60.0197,-3.86984,-0.003757199,0.718
540.626,60.27496,-3.86853,-0.007509583,0.71596
543.226,60.5303,-3.86853,-0.005204274,0.71392
545.826,60.78553,-3.86852,-0.004947858,0.71189
548.426,61.04084,-3.86819,-0.0002640893,0.70987
551.026,61.29693,-3.86753,-0.000588889,0.70786
553.626,61.55316,-3.86884,-0.003796323,0.70585
556.226,61.80973,-3.86855,-0.00170574,0.70385
558.826,62.0663,-3.86754,0.003823247,0.70186
561.426,62.3228,-3.86886,0.004831959,0.69987
564.026,62.5794,-3.86886,0.005661148,0.69789
566.626,62.83615,-3.86754,0.004543598,0.69592
569.226,63.09267,-3.86885,0.004915305,0.69396
571.826,63.34887,-3.86721,0.00889998,0.69201
574.426,63.6049,-3.86751,0.004941933,0.69006
577.026,63.8613,-3.86786,0.00584943,0.68812
579.626,64.11791,-3.86885,0.007660359,0.68619
582.226,64.37473,-3.86589,0.007861235,0.68427
584.826,64.63212,-3.86709,0.007252186,0.68235
587.426,64.88901,-3.86695,0.006927745,0.68045
590.026,65.14588,-3.86787,0.00674049,0.67855
592.626,65.40311,-3.86787,0.00993846,0.67666
595.226,65.6606,-3.86715,0.01299538,0.67478
597.826,65.91834,-3.86687,0.0117827,0.67291
600.426,66.17703,-3.86824,0.015544,0.67104
603.026,66.43466,-3.86538,0.01764154,0.66919
605.626,66.69264,-3.8682,0.01995934,0.66734
608.226,66.95148,-3.8672,0.01345033,0.66551
610.826,67.21044,-3.8672,0.01182546,0.66368
613.426,67.46913,-3.86688,0.01869548,0.66186
616.026,67.7286,-3.86688,0.01733859,0.66004
618.626,67.9872,-3.86619,0.01321288,0.65824
621.226,68.24675,-3.86634,0.01271437,0.65645
623.826,68.50545,-3.86555,0.01433772,0.65466
626.426,68.7646,-3.86539,0.01144124,0.65289
629.026,69.024,-3.8645,0.01056609,0.65112
631.626,69.2836,-3.86545,0.01366597,0.64937
634.226,69.54387,-3.86611,0.01484935,0.64762
636.826,69.80425,-3.86579,0.01861136,0.64588
638.726,69.99416,-3.8671,0.02191744,0.64461