Folder: fsri_materials_database/01_Data/PP/STA/N2/10K_min (part 2)

File: PP_STA_N2_10KData_210825_R3.csv
##Temp./Â°C,Time/min,Mass loss(subtr.2)/mg,DSC(subtr.2)/(mW/mg),Sensit./(uV/mW)
49.655,10.00917,-0.02961,0.0007185706,1.03585
52.255,12.36013,-0.0328893,0.08517515,1.03572
54.855,13.06023,-0.03608273,0.12901,1.03555
57.455,13.6139,-0.03641541,0.15663,1.03536
60.055,14.1006,-0.0357629,0.17947,1.03514
62.655,14.54385,-0.03751265,0.20022,1.03489
65.255,14.9537,-0.03822313,0.21446,1.03461
67.855,15.3377,-0.03747376,0.22644,1.0343
70.455,15.702,-0.03924623,0.23877,1.03396
73.055,16.05061,-0.04044893,0.2566,1.0336
75.655,16.38632,-0.04058021,0.26706,1.0332
78.255,16.71146,-0.04057065,0.27757,1.03278
80.855,17.02546,-0.04175485,0.28856,1.03233
83.455,17.3326,-0.0405851,0.29883,1.03186
86.055,17.63133,-0.04223737,0.30839,1.03136
88.655,17.92334,-0.04360285,0.31717,1.03082
91.255,18.2093,-0.04276558,0.32511,1.03027
93.855,18.48947,-0.04354311,0.33294,1.02968
96.455,18.7663,-0.04494523,0.34336,1.02907
99.055,19.0386,-0.04304662,0.35065,1.02843
101.655,19.3078,-0.04385612,0.35918,1.02777
104.255,19.57414,-0.04593437,0.36615,1.02708
106.855,19.8384,-0.04376912,0.37284,1.02636
109.455,20.10056,-0.04508237,0.38243,1.02562
112.055,20.36095,-0.04772292,0.39182,1.02485
114.655,20.61909,-0.04737316,0.40049,1.02406
117.255,20.8755,-0.04761515,0.40929,1.02324
119.855,21.13095,-0.04832378,0.41879,1.0224
122.455,21.38384,-0.0487067,0.43241,1.02153
125.055,21.63556,-0.04740663,0.44196,1.02064
127.655,21.88532,-0.04738717,0.45578,1.01973
130.255,22.1328,-0.04744898,0.47308,1.01879
132.855,22.3791,-0.04748455,0.49251,1.01782
135.455,22.6239,-0.05153177,0.51075,1.01684
138.055,22.86682,-0.04979783,0.5404,1.01582
140.655,23.10966,-0.05078069,0.57128,1.01479
143.255,23.35081,-0.05062174,0.61432,1.01373
145.855,23.59135,-0.0486978,0.66822,1.01265
148.455,23.83074,-0.05146627,0.73681,1.01155
151.055,24.0698,-0.05144033,0.82634,1.01042
153.655,24.3087,-0.05275189,0.93923,1.00928
156.255,24.54749,-0.05201542,1.0721,1.00811
158.855,24.78588,-0.05251461,1.19624,1.00692
161.455,25.02404,-0.05126265,1.23184,1.0057
164.055,25.261,-0.04983643,1.03863,1.00447
166.655,25.49584,-0.05165278,0.75691,1.00321
169.255,25.73043,-0.05323132,0.58631,1.00194
171.855,25.96434,-0.05254277,0.52341,1.00064
174.455,26.1985,-0.05452284,0.50569,0.99932
177.055,26.43262,-0.05187998,0.50173,0.99799
179.655,26.66692,-0.05318402,0.5025,0.99663
182.255,26.9001,-0.05451999,0.50647,0.99525
184.855,27.13291,-0.05451,0.50913,0.99386
187.455,27.36498,-0.05606429,0.51239,0.99244
190.055,27.59774,-0.05451555,0.51416,0.99101
192.655,27.82971,-0.05483944,0.51803,0.98955
195.255,28.06183,-0.05484,0.51843,0.98808
197.855,28.2943,-0.05496174,0.52174,0.98659
200.455,28.5259,-0.05528015,0.5253,0.98508
203.055,28.75775,-0.05488754,0.52882,0.98355
205.655,28.98963,-0.05626008,0.53117,0.98201
208.255,29.22137,-0.05626996,0.53533,0.98045
210.855,29.45311,-0.05496079,0.53499,0.97887
213.455,29.6853,-0.05724554,0.53826,0.97727
216.055,29.91698,-0.05890236,0.54318,0.97566
218.655,30.1485,-0.05759112,0.5471,0.97403
221.255,30.38133,-0.05889843,0.54645,0.97238
223.855,30.61317,-0.06022,0.55093,0.97072
226.455,30.8456,-0.05898446,0.55065,0.96904
229.055,31.0782,-0.05864333,0.55469,0.96735
231.655,31.3105,-0.05887309,0.55626,0.96564
234.255,31.54338,-0.06044349,0.556,0.96391
236.855,31.7755,-0.05988986,0.55907,0.96217
239.455,32.0087,-0.0595584,0.56054,0.96042
242.055,32.24159,-0.05985671,0.56415,0.95865
244.655,32.4748,-0.06000163,0.56577,0.95687
247.255,32.70742,-0.06360956,0.56833,0.95507
249.855,32.94089,-0.06098135,0.57095,0.95326
252.455,33.17362,-0.06294146,0.57084,0.95144
255.055,33.40665,-0.06263,0.57619,0.9496
257.655,33.64006,-0.06261994,0.57515,0.94775
260.255,33.87314,-0.06229317,0.57996,0.94589
262.855,34.1069,-0.06362649,0.5799,0.94401
265.455,34.34062,-0.06163638,0.58075,0.94212
268.055,34.57396,-0.06263158,0.58203,0.94023
270.655,34.8087,-0.06427524,0.58611,0.93831
273.255,35.04254,-0.06427,0.58545,0.93639
275.855,35.27698,-0.06392622,0.5881,0.93445
278.455,35.51101,-0.06296029,0.58924,0.93251
281.055,35.74606,-0.06315692,0.59357,0.93055
283.655,35.9811,-0.06425159,0.59351,0.92858
286.255,36.21627,-0.06558996,0.59741,0.92661
288.855,36.4516,-0.06550762,0.59613,0.92462
291.455,36.68724,-0.06625001,0.60258,0.92262
294.055,36.92328,-0.0671463,0.60286,0.92061
296.655,37.1595,-0.06724115,0.60244,0.91859
299.255,37.39588,-0.06591306,0.60356,0.91656
301.855,37.63286,-0.06749877,0.60368,0.91453
304.455,37.86907,-0.06888151,0.60689,0.91248
307.055,38.10624,-0.06755391,0.60907,0.91043
309.655,38.34295,-0.06987537,0.60837,0.90837
312.255,38.5807,-0.06887337,0.61172,0.9063
314.855,38.81759,-0.06856779,0.61074,0.90422
317.455,39.0557,-0.06921304,0.61098,0.90213
320.055,39.29352,-0.07201294,0.61467,0.90004
322.655,39.53147,-0.07069528,0.61554,0.89793
325.255,39.7692,-0.07063002,0.61548,0.89583
327.855,40.0077,-0.07096014,0.61958,0.89371
330.455,40.24608,-0.07227322,0.62021,0.89159
333.055,40.48469,-0.07359994,0.62424,0.88946
335.655,40.72316,-0.07294046,0.62741,0.88733
338.255,40.96252,-0.0729395,0.63044,0.88519
340.855,41.20155,-0.07688836,0.63187,0.88304
343.455,41.4405,-0.07595955,0.63247,0.88089
346.055,41.68065,-0.07721,0.63697,0.87873
348.655,41.92023,-0.07587999,0.63583,0.87657
351.255,42.16048,-0.07985175,0.64014,0.8744
353.855,42.40147,-0.08051325,0.64188,0.87223
356.455,42.6428,-0.08281763,0.64802,0.87005
359.055,42.88388,-0.08280956,0.6519,0.86787
361.655,43.1254,-0.0854402,0.65087,0.86569
364.255,43.36719,-0.08676961,0.65978,0.8635
366.855,43.60885,-0.0893901,0.66459,0.8613
369.455,43.851,-0.09269061,0.67403,0.85911
372.055,44.09333,-0.09530765,0.67911,0.85691
374.655,44.3353,-0.09839382,0.68314,0.85471
377.255,44.57844,-0.10096,0.69025,0.8525
379.855,44.8215,-0.10616,0.69644,0.85029
382.455,45.06435,-0.11166,0.69613,0.84808
385.055,45.30798,-0.11551,0.70268,0.84587
387.655,45.55194,-0.11825,0.71612,0.84366
390.255,45.79588,-0.12637,0.72682,0.84144
392.855,46.04029,-0.1318,0.72559,0.83922
395.455,46.28463,-0.14056,0.72881,0.837
398.055,46.53004,-0.14567,0.72985,0.83478
400.655,46.7752,-0.15833,0.75056,0.83256
403.255,47.02013,-0.17274,0.76691,0.83034
405.855,47.26637,-0.18181,0.78224,0.82811
408.455,47.51294,-0.18881,0.79303,0.82589
411.055,47.75942,-0.20733,0.80861,0.82367
413.655,48.0062,-0.23292,0.84517,0.82144
416.255,48.25297,-0.25114,0.87494,0.81922
418.855,48.49975,-0.26916,0.90498,0.81699
421.455,48.74629,-0.28843,0.94381,0.81477
424.055,48.99357,-0.32071,0.99589,0.81254
426.655,49.24075,-0.35191,1.05925,0.81032
429.255,49.48901,-0.39243,1.13402,0.8081
431.855,49.73658,-0.44197,1.22314,0.80588
434.455,49.98505,-0.4981,1.33205,0.80366
437.055,50.23283,-0.56657,1.45575,0.80144
439.655,50.48133,-0.6488,1.60194,0.79923
442.255,50.73087,-0.74538,1.75879,0.79701
444.855,50.97964,-0.87167,1.96853,0.7948
447.455,51.22907,-1.02024,2.13242,0.79259
450.055,51.4786,-1.19397,2.3049,0.79038
452.655,51.7279,-1.38948,2.3913,0.78817
455.255,51.9775,-1.61,2.44349,0.78597
457.855,52.22602,-1.86159,2.44,0.78377
460.455,52.47501,-2.16179,2.37464,0.78157
463.055,52.72325,-2.48546,2.19853,0.77937
465.655,52.97165,-2.82098,1.87589,0.77718
468.255,53.21945,-3.14896,1.42084,0.77499
470.855,53.4685,-3.44747,0.90922,0.77281
473.455,53.71793,-3.69938,0.44763,0.77063
476.055,53.96844,-3.88594,0.10599,0.76845
478.655,54.21971,-4.00794,-0.0551294,0.76628
481.255,54.47096,-4.07625,-0.04201735,0.76411
483.855,54.72254,-4.11465,0.03948106,0.76194
486.455,54.9746,-4.1358,0.0938171,0.75978
489.055,55.22662,-4.1489,0.08273459,0.75762
491.655,55.4788,-4.15566,0.05062972,0.75547
494.255,55.7309,-4.15609,0.01877595,0.75332
496.855,55.9823,-4.15732,-0.003487296,0.75118
499.455,56.234,-4.15732,-0.01470152,0.74904
502.055,56.48604,-4.15615,-0.02663078,0.74691
504.655,56.7386,-4.15865,-0.02540976,0.74479
507.255,56.9913,-4.15666,-0.02707492,0.74266
509.855,57.2444,-4.15601,-0.0303351,0.74055
512.455,57.4974,-4.15752,-0.02601133,0.73844
515.055,57.75075,-4.15706,-0.02749986,0.73633
517.655,58.0041,-4.15837,-0.02725253,0.73423
520.255,58.2574,-4.15633,-0.02597492,0.73214
522.855,58.5109,-4.15963,-0.03045289,0.73005
525.455,58.76439,-4.1583,-0.02913731,0.72797
528.055,59.0184,-4.15633,-0.03033947,0.7259
530.655,59.2728,-4.15732,-0.03079629,0.72383
533.255,59.52783,-4.1593,-0.02873316,0.72177
535.855,59.7822,-4.15798,-0.03027375,0.71971
538.455,60.0372,-4.15798,-0.02931626,0.71766
541.055,60.2927,-4.15798,-0.02764256,0.71562
543.655,60.54837,-4.15798,-0.02496146,0.71359
546.255,60.80359,-4.15929,-0.02502704,0.71156
548.855,61.05882,-4.15764,-0.0258927,0.70954
551.455,61.31454,-4.15732,-0.02562377,0.70752
554.055,61.5704,-4.15932,-0.02490372,0.70552
556.655,61.8265,-4.15798,-0.02667503,0.70352
559.255,62.08254,-4.15798,-0.02404057,0.70153
561.855,62.3381,-4.15699,-0.02130796,0.69954
564.455,62.59562,-4.15839,-0.01778703,0.69757
567.055,62.8515,-4.15699,-0.01704956,0.6956
569.655,63.1081,-4.15831,-0.01875427,0.69364
572.255,63.3652,-4.15892,-0.01804477,0.69168
574.855,63.6229,-4.15544,-0.01731773,0.68974
577.455,63.8804,-4.15985,-0.01988671,0.6878
580.055,64.13826,-4.15886,-0.02091128,0.68587
582.655,64.396,-4.15721,-0.02190058,0.68395
585.255,64.6535,-4.15853,-0.02155089,0.68204
587.855,64.91032,-4.15721,-0.02264445,0.68013
590.455,65.1678,-4.15754,-0.01944483,0.67824
593.055,65.426,-4.16002,-0.01902782,0.67635
595.655,65.68428,-4.16066,-0.01478187,0.67447
598.255,65.9431,-4.15898,-0.01579144,0.6726
600.855,66.20205,-4.15962,-0.01569514,0.67074
603.455,66.4602,-4.15754,-0.01435085,0.66888
606.055,66.71892,-4.15886,-0.01591894,0.66704
608.655,66.9781,-4.15853,-0.01642722,0.6652
611.255,67.2372,-4.15985,-0.01705518,0.66338
613.855,67.49577,-4.15721,-0.02088054,0.66156
616.455,67.7561,-4.15853,-0.0177954,0.65975
619.055,68.01563,-4.14743,-0.02108157,0.65795
621.655,68.27542,-4.15875,-0.01771543,0.65615
624.255,68.53498,-4.15874,-0.01584857,0.65437
626.855,68.7946,-4.15875,-0.01565185,0.6526
629.455,69.05527,-4.16007,-0.0183703,0.65083
632.055,69.3155,-4.15743,-0.02407173,0.64908
634.655,69.5753,-4.15908,-0.02590315,0.64733
637.255,69.83555,-4.15908,-0.02980029,0.64559
638.855,69.99566,-4.15908,-0.02592915,0.64453