Folder: fsri_materials_database/01_Data/PP/STA/N2/30K_min

Note: 01_Data/README.md
# Materials and Products Database
## 01_Data

Raw data generated from each apparatus are included here in plain-text format. The data is organized first by material, next by the short name of test apparatus used, and where applicable additional filtering by test settings.

### material.json

Each material directory contains a json file of the same name as the material. This file links the data stored in the repository as well as data and graphs produced by the accompanying scripts (__02_Scripts__) to the respective landing page for the material on the front-end website.

File: PP_STA_N2_30KData_210826_R1.csv
##Temp./Â°C,Time/min,Mass loss(subtr.2)/mg,DSC(subtr.2)/mW,Sensit./(uV/mW)
49.15,10.00917,-0.02237,0.03257322,1.054
51.65,11.53011,-0.02747095,0.51588,1.05405
54.15,11.88088,-0.02555416,0.84148,1.05406
56.65,12.1356,-0.02593447,1.11043,1.05405
59.15,12.34902,-0.02611397,1.34841,1.054
61.65,12.5382,-0.02623841,1.53553,1.05392
64.15,12.7128,-0.02918956,1.70016,1.05382
66.65,12.8763,-0.02819831,1.83248,1.05368
69.15,13.03224,-0.02645375,1.94249,1.05351
71.65,13.1817,-0.02677457,2.03816,1.05331
74.15,13.32593,-0.02786021,2.12088,1.05309
76.65,13.465,-0.0283851,2.20583,1.05283
79.15,13.60014,-0.02768029,2.28869,1.05255
81.65,13.731,-0.02856673,2.37952,1.05223
84.15,13.85803,-0.02789045,2.46047,1.05189
86.65,13.98158,-0.03017804,2.54445,1.05152
89.15,14.10089,-0.02936815,2.63792,1.05112
91.65,14.2176,-0.02977651,2.73007,1.05069
94.15,14.3313,-0.03048096,2.81111,1.05023
96.65,14.442,-0.02912758,2.92011,1.04975
99.15,14.55,-0.03115373,3.0104,1.04924
101.65,14.65575,-0.03158433,3.1125,1.04869
104.15,14.75966,-0.03009844,3.21189,1.04813
106.65,14.86183,-0.03057799,3.30272,1.04753
109.15,14.96204,-0.03054101,3.39317,1.04691
111.65,15.0605,-0.03185921,3.49365,1.04626
114.15,15.15753,-0.03266766,3.59706,1.04558
116.65,15.25345,-0.03292497,3.70926,1.04488
119.15,15.3476,-0.03180286,3.81555,1.04415
121.65,15.44096,-0.03140055,3.93416,1.04339
124.15,15.53271,-0.03107193,4.06335,1.04261
126.65,15.62355,-0.03112475,4.21393,1.04181
129.15,15.71305,-0.03119374,4.36869,1.04097
131.65,15.8016,-0.03221731,4.5444,1.04011
134.15,15.8892,-0.03181311,4.75365,1.03923
136.65,15.97586,-0.03157366,4.98057,1.03832
139.15,16.06161,-0.03160261,5.26826,1.03739
141.65,16.1464,-0.03041234,5.60814,1.03643
144.15,16.23056,-0.0303735,6.01392,1.03545
146.65,16.314,-0.03077161,6.52557,1.03444
149.15,16.3967,-0.03061511,7.11805,1.03341
151.65,16.4789,-0.03181017,7.8475,1.03236
154.15,16.5605,-0.03180916,8.62887,1.03128
156.65,16.64157,-0.03172578,9.39108,1.03018
159.15,16.72192,-0.03040997,10.07499,1.02906
161.65,16.80195,-0.03137702,10.3293,1.02791
164.15,16.88141,-0.03072088,9.90414,1.02674
166.65,16.9602,-0.03179602,8.96827,1.02555
169.15,17.03824,-0.03181081,7.89903,1.02433
171.65,17.11555,-0.03313694,6.98623,1.0231
174.15,17.19241,-0.03181814,6.35632,1.02184
176.65,17.26882,-0.0314822,5.95629,1.02056
179.15,17.3447,-0.03181177,5.71264,1.01926
181.65,17.4201,-0.03312576,5.56403,1.01794
184.15,17.49502,-0.0308647,5.49416,1.01659
186.65,17.56955,-0.03182007,5.46908,1.01523
189.15,17.64374,-0.03212315,5.46814,1.01384
191.65,17.7177,-0.03312938,5.4895,1.01244
194.15,17.79141,-0.03443244,5.51189,1.01102
196.65,17.8645,-0.03182978,5.55796,1.00957
199.15,17.93747,-0.03310092,5.59262,1.00811
201.65,18.0103,-0.03312894,5.6325,1.00663
204.15,18.08278,-0.03309226,5.66922,1.00513
206.65,18.15498,-0.03445022,5.71528,1.00361
209.15,18.22705,-0.03444848,5.76174,1.00207
211.65,18.29869,-0.03313016,5.80275,1.00051
214.15,18.3702,-0.03240728,5.85577,0.99894
216.65,18.4418,-0.03345044,5.89293,0.99734
219.15,18.51278,-0.03367384,5.93241,0.99573
221.65,18.58369,-0.03442129,5.98065,0.9941
224.15,18.65445,-0.03337461,6.01636,0.99246
226.65,18.72492,-0.03312995,6.06033,0.9908
229.15,18.7954,-0.03373005,6.08998,0.98912
231.65,18.86564,-0.03443999,6.13683,0.98743
234.15,18.9356,-0.03443999,6.17173,0.98571
236.65,19.00551,-0.03449189,6.20959,0.98399
239.15,19.07531,-0.0334667,6.25543,0.98225
241.65,19.1449,-0.03443994,6.27857,0.98049
244.15,19.21461,-0.03444,6.32422,0.97872
246.65,19.2839,-0.03444,6.35917,0.97693
249.15,19.35331,-0.03444149,6.39369,0.97513
251.65,19.42243,-0.03575816,6.4318,0.97331
254.15,19.49155,-0.03576,6.45839,0.97148
256.65,19.56038,-0.03578143,6.4945,0.96963
259.15,19.6293,-0.03444983,6.52522,0.96777
261.65,19.69812,-0.0357597,6.56108,0.9659
264.15,19.76687,-0.03475258,6.59416,0.96402
266.65,19.83534,-0.03478,6.62979,0.96212
269.15,19.90392,-0.03477997,6.6676,0.96021
271.65,19.97203,-0.03500917,6.69145,0.95828
274.15,20.04068,-0.03608999,6.72454,0.95635
276.65,20.10918,-0.03609,6.75085,0.9544
279.15,20.17754,-0.03609,6.79525,0.95244
281.65,20.2457,-0.03609,6.81728,0.95047
284.15,20.31394,-0.03609,6.85411,0.94849
286.65,20.38214,-0.03609,6.87984,0.9465
289.15,20.45036,-0.03609001,6.91296,0.94449
291.65,20.5186,-0.03612096,6.95207,0.94248
294.15,20.5869,-0.03475363,6.97958,0.94045
296.65,20.65488,-0.03606995,7.00027,0.93842
299.15,20.723,-0.03675013,7.01613,0.93638
301.65,20.79116,-0.03675,7.04694,0.93432
304.15,20.8592,-0.03675,7.079,0.93226
306.65,20.9274,-0.03669702,7.10956,0.93019
309.15,20.9954,-0.03801495,7.1341,0.92811
311.65,21.06346,-0.0388115,7.1547,0.92602
314.15,21.1315,-0.03740997,7.18475,0.92392
316.65,21.1996,-0.03741,7.20749,0.92181
319.15,21.26761,-0.03740477,7.23017,0.9197
321.65,21.33578,-0.03838862,7.2599,0.91758
324.15,21.40399,-0.03838983,7.28731,0.91545
326.65,21.47211,-0.03871085,7.31089,0.91331
329.15,21.54034,-0.03872013,7.34085,0.91117
331.65,21.6085,-0.03844267,7.36181,0.90902
334.15,21.67679,-0.03818767,7.4041,0.90686
336.65,21.7451,-0.04031846,7.43019,0.9047
339.15,21.8135,-0.04140473,7.45028,0.90253
341.65,21.88189,-0.0400246,7.47194,0.90035
344.15,21.95039,-0.03971539,7.50307,0.89817
346.65,22.01892,-0.04102895,7.5384,0.89599
349.15,22.08756,-0.04233191,7.56599,0.8938
351.65,22.1561,-0.04234,7.59456,0.8916
354.15,22.2249,-0.04234,7.61615,0.8894
356.65,22.29362,-0.04234,7.63347,0.8872
359.15,22.3625,-0.04233966,7.66998,0.88499
361.65,22.43139,-0.04365589,7.69946,0.88278
364.15,22.50029,-0.04365,7.73509,0.88056
366.65,22.56943,-0.04364978,7.78003,0.87834
369.15,22.63862,-0.04595709,7.80299,0.87612
371.65,22.7077,-0.0462875,7.83995,0.87389
374.15,22.77711,-0.04759955,7.8789,0.87166
376.65,22.84647,-0.04760657,7.92189,0.86943
379.15,22.9161,-0.04891867,7.97812,0.86719
381.65,22.98564,-0.05024449,8.01868,0.86496
384.15,23.05521,-0.05155854,8.06966,0.86272
386.65,23.12507,-0.05158426,8.12811,0.86048
389.15,23.1947,-0.0558324,8.1936,0.85823
391.65,23.26492,-0.05698759,8.25839,0.85599
394.15,23.33488,-0.05975725,8.3228,0.85374
396.65,23.40504,-0.06150809,8.37239,0.8515
399.15,23.4753,-0.06290039,8.4282,0.84925
401.65,23.54557,-0.06858379,8.45561,0.847
404.15,23.61593,-0.067206,8.50378,0.84476
406.65,23.68657,-0.07222576,8.55553,0.84251
409.15,23.7571,-0.07788536,8.64168,0.84026
411.65,23.82771,-0.08246636,8.71104,0.83801
414.15,23.89845,-0.08648802,8.78372,0.83576
416.65,23.9694,-0.09261293,8.90083,0.83352
419.15,24.0403,-0.0998357,9.02492,0.83127
421.65,24.11134,-0.10588,9.16089,0.82902
424.15,24.18255,-0.11325,9.3214,0.82678
426.65,24.25391,-0.12272,9.49272,0.82453
429.15,24.32508,-0.13155,9.66306,0.82229
431.65,24.3964,-0.14131,9.84576,0.82005
434.15,24.4684,-0.15406,10.07893,0.81781
436.65,24.54009,-0.17744,10.38465,0.81558
439.15,24.61185,-0.17367,10.69859,0.81334
441.65,24.68369,-0.19833,11.11173,0.81111
444.15,24.75564,-0.22034,11.62463,0.80888
446.65,24.82769,-0.24407,12.2463,0.80666
449.15,24.8999,-0.27224,12.92507,0.80443
451.65,24.9722,-0.30602,13.71427,0.80221
454.15,25.04447,-0.34688,14.5527,0.79999
456.65,25.1169,-0.39116,15.6334,0.79778
459.15,25.18945,-0.44606,16.91311,0.79557
461.65,25.26194,-0.51482,18.1381,0.79336
464.15,25.33454,-0.59404,19.32875,0.79116
466.65,25.4072,-0.68641,20.9933,0.78896
469.15,25.4797,-0.79905,22.27705,0.78676
471.65,25.55226,-0.92149,24.05806,0.78457
474.15,25.62477,-1.06843,25.41164,0.78239
476.65,25.6973,-1.23459,26.61293,0.78021
479.15,25.76981,-1.45223,27.56728,0.77803
481.65,25.84222,-1.65644,27.9038,0.77586
484.15,25.91485,-1.88869,27.5648,0.77369
486.65,25.98749,-2.14215,26.4368,0.77153
489.15,26.06032,-2.40365,24.34154,0.76937
491.65,26.13291,-2.67715,21.23832,0.76722
494.15,26.20497,-2.94195,17.43981,0.76508
496.65,26.2767,-3.16957,13.32034,0.76294
499.15,26.35088,-3.32228,9.06276,0.7608
501.65,26.4268,-3.46205,5.54732,0.75868
504.15,26.50334,-3.55788,3.39561,0.75655
506.65,26.5805,-3.61853,2.3772,0.75444
509.15,26.65761,-3.65755,1.83751,0.75233
511.65,26.73433,-3.68125,1.41274,0.75023
514.15,26.81069,-3.6931,1.02042,0.74813
516.65,26.8867,-3.70039,0.71387,0.74604
519.15,26.96241,-3.70475,0.43082,0.74396
521.65,27.03807,-3.70654,0.24481,0.74188
524.15,27.1138,-3.70589,0.10531,0.73982
526.65,27.1895,-3.70859,0.01749156,0.73775
529.15,27.26538,-3.70859,-0.03628804,0.7357
531.65,27.3412,-3.70859,-0.06995379,0.73365
534.15,27.417,-3.70925,-0.09782904,0.73161
536.65,27.49335,-3.71061,-0.1457,0.72958
539.15,27.5696,-3.71059,-0.21527,0.72756
541.65,27.6458,-3.71058,-0.23976,0.72554
544.15,27.72196,-3.70818,-0.26439,0.72353
546.65,27.7984,-3.70887,-0.27587,0.72153
549.15,27.8749,-3.71112,-0.29552,0.71954
551.65,27.95141,-3.71121,-0.32751,0.71756
554.15,28.02795,-3.71199,-0.34398,0.71558
556.65,28.1045,-3.70991,-0.32914,0.71362
559.15,28.18117,-3.70853,-0.34283,0.71166
561.65,28.2581,-3.70993,-0.33073,0.70971
564.15,28.335,-3.7099,-0.338,0.70776
566.65,28.41204,-3.71024,-0.32723,0.70583
569.15,28.4892,-3.71189,-0.31105,0.70391
571.65,28.56638,-3.71189,-0.32288,0.70199
574.15,28.64378,-3.71068,-0.33437,0.70008
576.65,28.721,-3.71057,-0.33247,0.69818
579.15,28.7986,-3.71057,-0.31389,0.69629
581.65,28.8761,-3.71156,-0.31505,0.69441
584.15,28.9535,-3.71153,-0.31895,0.69254
586.65,29.0313,-3.71189,-0.30831,0.69068
589.15,29.10936,-3.71056,-0.29124,0.68883
591.65,29.1871,-3.71057,-0.27741,0.68699
594.15,29.2649,-3.71295,-0.28095,0.68515
596.65,29.343,-3.71321,-0.27213,0.68333
599.15,29.42095,-3.71321,-0.25986,0.68151
601.65,29.49908,-3.71321,-0.23577,0.67971
604.15,29.5774,-3.71322,-0.23194,0.67791
606.65,29.65571,-3.71189,-0.22306,0.67612
609.15,29.73395,-3.71332,-0.21166,0.67435
611.65,29.8123,-3.71335,-0.20493,0.67258
614.15,29.891,-3.71466,-0.1973,0.67082
616.65,29.9694,-3.71431,-0.19595,0.66907
617.55,29.99755,-3.7143,-0.18062,0.66844

File: PP_STA_N2_30KData_210826_R2.csv
##Temp./Â°C,Time/min,Mass loss(subtr.2)/mg,DSC(subtr.2)/mW,Sensit./(uV/mW)
49.087,10.01,-0.04058,0.007962356,1.054
51.587,11.52863,-0.04344957,0.51065,1.05405
54.087,11.8804,-0.04563661,0.88014,1.05406
56.587,12.13505,-0.04799772,1.18221,1.05405
59.087,12.34959,-0.04674907,1.43156,1.054
61.587,12.53932,-0.04730806,1.64163,1.05392
64.087,12.71442,-0.04792825,1.82158,1.05382
66.587,12.87815,-0.04766848,1.97015,1.05368
69.087,13.03463,-0.04824922,2.08316,1.05352
71.587,13.18397,-0.0393724,2.19402,1.05332
74.087,13.3283,-0.04777219,2.26999,1.05309
76.587,13.4677,-0.045817,2.36784,1.05284
79.087,13.6031,-0.0490782,2.43818,1.05255
81.587,13.7339,-0.04846014,2.54419,1.05224
84.087,13.86108,-0.05005541,2.63355,1.0519
86.587,13.9843,-0.05206834,2.72838,1.05153
89.087,14.1042,-0.05375641,2.8195,1.05113
91.587,14.22065,-0.04535505,2.9365,1.0507
94.087,14.3341,-0.05779994,3.01415,1.05024
96.587,14.44495,-0.05188539,3.12533,1.04976
99.087,14.5531,-0.05381465,3.22462,1.04925
101.587,14.65894,-0.05343961,3.3318,1.04871
104.087,14.76283,-0.05370823,3.43025,1.04814
106.587,14.86469,-0.05346654,3.53956,1.04755
109.087,14.9651,-0.0543947,3.64541,1.04692
111.587,15.0638,-0.0546066,3.76908,1.04628
114.087,15.16115,-0.05294108,3.87991,1.0456
116.587,15.25699,-0.05312463,3.99369,1.0449
119.087,15.3516,-0.05407015,4.12486,1.04417
121.587,15.44466,-0.05555726,4.25004,1.04341
124.087,15.53685,-0.05427735,4.39633,1.04263
126.587,15.6271,-0.05586758,4.55259,1.04183
129.087,15.7173,-0.05638401,4.72309,1.04099
131.587,15.80597,-0.06709433,4.91541,1.04014
134.087,15.89359,-0.05287443,5.14306,1.03925
136.587,15.9801,-0.05724254,5.4024,1.03835
139.087,16.06605,-0.05679187,5.70368,1.03741
141.587,16.151,-0.05668531,6.06272,1.03646
144.087,16.23511,-0.05708821,6.50326,1.03547
146.587,16.31832,-0.05664202,7.04398,1.03447
149.087,16.40128,-0.05668475,7.69218,1.03344
151.587,16.48357,-0.05627988,8.45819,1.03238
154.087,16.56508,-0.05825,9.30392,1.03131
156.587,16.64605,-0.0583571,10.18367,1.03021
159.087,16.72685,-0.05803434,10.99877,1.02908
161.587,16.8068,-0.05703345,11.363,1.02794
164.087,16.88627,-0.05856711,10.95006,1.02677
166.587,16.96513,-0.05673432,9.94282,1.02558
169.087,17.0431,-0.05627539,8.75844,1.02436
171.587,17.12051,-0.05910795,7.76067,1.02313
174.087,17.1974,-0.05642829,7.06328,1.02187
176.587,17.27368,-0.05778983,6.60862,1.02059
179.087,17.34959,-0.05910996,6.34384,1.01929
181.587,17.42502,-0.05780165,6.19227,1.01797
184.087,17.49993,-0.05746647,6.10875,1.01663
186.587,17.5745,-0.05794286,6.07532,1.01526
189.087,17.64892,-0.05909734,6.09176,1.01388
191.587,17.7226,-0.0578005,6.10062,1.01248
194.087,17.79598,-0.05910909,6.13429,1.01105
196.587,17.8691,-0.06040998,6.18914,1.00961
199.087,17.94215,-0.05914181,6.22957,1.00815
201.587,18.01465,-0.06018599,6.27356,1.00667
204.087,18.08707,-0.05980564,6.32665,1.00516
206.587,18.1595,-0.06175475,6.36545,1.00364
209.087,18.23135,-0.06043104,6.41886,1.00211
211.587,18.3029,-0.06174546,6.47246,1.00055
214.087,18.37446,-0.06045361,6.52901,0.99898
216.587,18.4459,-0.06043724,6.57485,0.99738
219.087,18.51701,-0.06043,6.61898,0.99577
221.587,18.58791,-0.06043003,6.67079,0.99415
224.087,18.65866,-0.06303314,6.71355,0.9925
226.587,18.7291,-0.06175267,6.76544,0.99084
229.087,18.7995,-0.06306886,6.8151,0.98916
231.587,18.86956,-0.06306998,6.85702,0.98747
234.087,18.93998,-0.06502727,6.89985,0.98576
236.587,19.00989,-0.06536001,6.94526,0.98403
239.087,19.07958,-0.06439369,6.99167,0.98229
241.587,19.1493,-0.06537001,7.04357,0.98053
244.087,19.21882,-0.06537,7.07831,0.97876
246.587,19.28811,-0.06537,7.12136,0.97697
249.087,19.35732,-0.06537,7.16148,0.97517
251.587,19.42641,-0.06537101,7.1991,0.97335
254.087,19.4955,-0.06667782,7.23586,0.97152
256.587,19.56438,-0.06590189,7.27711,0.96968
259.087,19.63319,-0.06629187,7.31538,0.96782
261.587,19.70187,-0.06669011,7.35412,0.96595
264.087,19.7706,-0.0653542,7.39166,0.96406
266.587,19.8389,-0.06537097,7.42412,0.96217
269.087,19.90772,-0.06668912,7.47084,0.96026
271.587,19.9763,-0.06689914,7.49843,0.95833
274.087,20.04459,-0.06600403,7.52669,0.9564
276.587,20.11274,-0.0660995,7.57436,0.95445
279.087,20.18134,-0.06699813,7.6029,0.95249
281.587,20.2497,-0.0670072,7.63462,0.95052
284.087,20.31788,-0.06800014,7.66768,0.94854
286.587,20.386,-0.068,7.70319,0.94655
289.087,20.45423,-0.068,7.73973,0.94454
291.587,20.52242,-0.06799643,7.77124,0.94253
294.087,20.59049,-0.06931013,7.79597,0.94051
296.587,20.65857,-0.06930998,7.83166,0.93847
299.087,20.72665,-0.06996029,7.86163,0.93643
301.587,20.79468,-0.07062999,7.89278,0.93437
304.087,20.86299,-0.07063426,7.91835,0.93231
306.587,20.93103,-0.06930503,7.95674,0.93024
309.087,20.99904,-0.07195326,7.9834,0.92816
311.587,21.0672,-0.07062971,8.01585,0.92607
314.087,21.1353,-0.07151918,8.05119,0.92397
316.587,21.20327,-0.07195458,8.07227,0.92186
319.087,21.27149,-0.07062967,8.10662,0.91975
321.587,21.33955,-0.07063,8.136,0.91763
324.087,21.40767,-0.07064202,8.16825,0.9155
326.587,21.47576,-0.07194209,8.19709,0.91336
329.087,21.5439,-0.07326867,8.22485,0.91122
331.587,21.61208,-0.07326637,8.24231,0.90907
334.087,21.6804,-0.07325369,8.28392,0.90691
336.587,21.74836,-0.0748461,8.31359,0.90475
339.087,21.81682,-0.0741785,8.34367,0.90258
341.587,21.88513,-0.07382349,8.39116,0.90041
344.087,21.95362,-0.07643427,8.41143,0.89823
346.587,22.02209,-0.07676875,8.44724,0.89604
349.087,22.09069,-0.07545921,8.51333,0.89385
351.587,22.15921,-0.07677974,8.53746,0.89166
354.087,22.2279,-0.07677943,8.5587,0.88946
356.587,22.29662,-0.07656655,8.58082,0.88725
359.087,22.36531,-0.07908227,8.61596,0.88504
361.587,22.43412,-0.07919041,8.64619,0.88283
364.087,22.5031,-0.08044083,8.66228,0.88062
366.587,22.57216,-0.0803908,8.69322,0.8784
369.087,22.64116,-0.08170897,8.73569,0.87617
371.587,22.71033,-0.08171001,8.76387,0.87395
374.087,22.77964,-0.08234853,8.7891,0.87172
376.587,22.84889,-0.08390722,8.81773,0.86948
379.087,22.91825,-0.08565806,8.8569,0.86725
381.587,22.98783,-0.0863598,8.90513,0.86501
384.087,23.05738,-0.08719182,8.94985,0.86277
386.587,23.1269,-0.0898028,9.00055,0.86053
389.087,23.19673,-0.09125696,9.04956,0.85829
391.587,23.26654,-0.09168173,9.1157,0.85605
394.087,23.33641,-0.09530105,9.19522,0.8538
396.587,23.40641,-0.09780295,9.25926,0.85155
399.087,23.47651,-0.10078,9.3485,0.84931
401.587,23.54675,-0.104,9.41784,0.84706
404.087,23.61694,-0.10689,9.50205,0.84481
406.587,23.6874,-0.11333,9.59604,0.84256
409.087,23.75791,-0.11773,9.73114,0.84032
411.587,23.82865,-0.12152,9.88496,0.83807
414.087,23.89925,-0.12829,9.99694,0.83582
416.587,23.9699,-0.13392,10.0679,0.83357
419.087,24.0409,-0.13949,10.08893,0.83133
421.587,24.1121,-0.14966,10.12406,0.82908
424.087,24.18309,-0.15652,10.22363,0.82683
426.587,24.2542,-0.16835,10.34528,0.82459
429.087,24.3257,-0.1771,10.48891,0.82235
431.587,24.39716,-0.18946,10.69386,0.82011
434.087,24.46865,-0.19867,10.96139,0.81787
436.587,24.54056,-0.21347,11.27719,0.81563
439.087,24.6123,-0.23031,11.6622,0.8134
441.587,24.6841,-0.24981,12.16716,0.81117
444.087,24.75602,-0.2737,12.73258,0.80894
446.587,24.828,-0.3012,13.37266,0.80671
449.087,24.9003,-0.33081,14.03541,0.80449
451.587,24.97254,-0.36484,14.94268,0.80227
454.087,25.04474,-0.40799,15.94902,0.80005
456.587,25.11714,-0.45962,16.94772,0.79784
459.087,25.18966,-0.51978,18.2144,0.79562
461.587,25.26221,-0.58999,19.54897,0.79342
464.087,25.33473,-0.6726,20.8699,0.79121
466.587,25.40728,-0.76697,22.37071,0.78902
469.087,25.47975,-0.87862,24.26513,0.78682
471.587,25.55246,-1.01547,25.7577,0.78463
474.087,25.62481,-1.17381,27.4519,0.78244
476.587,25.6971,-1.36693,28.83776,0.78026
479.087,25.76954,-1.57173,29.9518,0.77808
481.587,25.84189,-1.79385,30.8981,0.77591
484.087,25.91408,-2.04285,31.0935,0.77375
486.587,25.98661,-2.31171,30.21422,0.77158
489.087,26.05932,-2.61083,28.1708,0.76943
491.587,26.13249,-2.89608,25.06152,0.76728
494.087,26.20549,-3.18427,21.04004,0.76513
496.587,26.27745,-3.43953,16.49184,0.76299
499.087,26.3513,-3.59307,11.5764,0.76086
501.587,26.42748,-3.75129,7.38376,0.75873
504.087,26.5042,-3.8612,4.61492,0.75661
506.587,26.5813,-3.93037,3.15044,0.75449
509.087,26.65815,-3.97064,2.35919,0.75238
511.587,26.7347,-3.99734,1.79624,0.75028
514.087,26.81077,-4.01195,1.36222,0.74818
516.587,26.88666,-4.01976,0.97849,0.74609
519.087,26.9621,-4.02518,0.68712,0.74401
521.587,27.0378,-4.029,0.47017,0.74194
524.087,27.1133,-4.02811,0.32876,0.73987
526.587,27.18877,-4.03069,0.23821,0.73781
529.087,27.26448,-4.03074,0.19205,0.73575
531.587,27.3403,-4.03074,0.15492,0.73371
534.087,27.416,-4.03074,0.10743,0.73167
536.587,27.49162,-4.02924,0.09467526,0.72963
539.087,27.56803,-4.02522,0.06809581,0.72761
541.587,27.6441,-4.02658,0.03323768,0.72559
544.087,27.7203,-4.02789,0.02313314,0.72359
546.587,27.7965,-4.02927,-0.006784573,0.72159
549.087,27.87285,-4.03024,-0.03618846,0.71959
551.587,27.9492,-4.03151,-0.05094779,0.71761
554.087,28.0257,-4.03057,-0.06159824,0.71563
556.587,28.10235,-4.03014,-0.07871055,0.71366
559.087,28.17912,-4.03151,-0.07676071,0.71171
561.587,28.25579,-4.03151,-0.08787922,0.70975
564.087,28.33255,-4.03184,-0.08300824,0.70781
566.587,28.4094,-4.03184,-0.08573897,0.70588
569.087,28.48658,-4.03183,-0.0744324,0.70395
571.587,28.56353,-4.03184,-0.0852268,0.70204
574.087,28.64072,-4.03315,-0.07743529,0.70013
576.587,28.7178,-4.03246,-0.068822,0.69823
579.087,28.7951,-4.03191,-0.06590253,0.69634
581.587,28.87257,-4.03337,-0.07229764,0.69446
584.087,28.95005,-4.03304,-0.08481844,0.69259
586.587,29.0277,-4.03205,-0.07813708,0.69073
589.087,29.10534,-4.03073,-0.06204891,0.68888
591.587,29.18318,-4.03166,-0.05747366,0.68703
594.087,29.26105,-4.03163,-0.04321024,0.6852
596.587,29.33892,-4.03075,-0.05320005,0.68337
599.087,29.417,-4.03337,-0.03450736,0.68156
601.587,29.49509,-4.03468,-0.03540439,0.67975
604.087,29.57317,-4.03337,-0.02349278,0.67795
606.587,29.65137,-4.03335,-0.00634897,0.67617
609.087,29.7297,-4.03468,-0.01167371,0.67439
611.587,29.808,-4.03608,-0.000935792,0.67262
614.087,29.88638,-4.03469,-0.01350441,0.67086
616.587,29.9649,-4.03469,-0.00959721,0.66912
617.687,29.9991,-4.03469,0.01011027,0.66835