Folder: fsri_materials_database/01_Data/PP/STA/N2/30K_min (part 2)

File: PP_STA_N2_30KData_210827_R3.csv
##Temp./Â°C,Time/min,Mass loss(subtr.2)/mg,DSC(subtr.2)/mW,Sensit./(uV/mW)
48.844,10.00917,-0.00559,0.13608,1.054
51.344,11.52994,-0.009498948,0.6916,1.05404
53.844,11.88143,-0.008499298,1.08016,1.05406
56.344,12.13682,-0.008968686,1.3873,1.05405
58.844,12.3512,-0.008451887,1.66283,1.05401
61.344,12.54153,-0.009874581,1.8793,1.05393
63.844,12.71603,-0.009920448,2.06295,1.05383
66.344,12.8798,-0.008763785,2.2151,1.0537
68.844,13.03606,-0.0082987,2.33922,1.05353
71.344,13.1856,-0.00691394,2.44193,1.05334
73.844,13.32955,-0.00748272,2.53082,1.05312
76.344,13.46919,-0.008107199,2.6326,1.05287
78.844,13.6047,-0.009416446,2.72124,1.05258
81.344,13.7354,-0.00719771,2.82408,1.05227
83.844,13.8627,-0.009363052,2.92736,1.05193
86.344,13.9862,-0.007438323,3.02934,1.05157
88.844,14.1061,-0.008847344,3.12916,1.05117
91.344,14.2225,-0.02078682,3.21771,1.05074
93.844,14.3361,-0.007574588,3.33956,1.05029
96.344,14.4467,-0.007812225,3.44839,1.04981
98.844,14.5549,-0.008053708,3.54752,1.0493
101.344,14.66076,-0.009360485,3.66054,1.04876
103.844,14.76441,-0.008608135,3.7711,1.0482
106.344,14.86617,-0.007187284,3.88334,1.04761
108.844,14.96689,-0.008411852,3.9963,1.04699
111.344,15.0655,-0.00710126,4.09911,1.04634
113.844,15.16275,-0.00695072,4.22038,1.04567
116.344,15.2584,-0.008219515,4.34751,1.04497
118.844,15.3529,-0.0082893,4.48402,1.04424
121.344,15.4461,-0.007983023,4.62535,1.04349
123.844,15.53815,-0.006932708,4.76371,1.04271
126.344,15.6287,-0.007037434,4.93011,1.04191
128.844,15.7185,-0.008224801,5.10326,1.04108
131.344,15.807,-0.006782542,5.29711,1.04022
133.844,15.89455,-0.007050016,5.53797,1.03934
136.344,15.98112,-0.007448364,5.80131,1.03844
138.844,16.06689,-0.008196793,6.11867,1.0375
141.344,16.15169,-0.00689208,6.48614,1.03655
143.844,16.23574,-0.007963092,6.92439,1.03557
146.344,16.31927,-0.008444508,7.48211,1.03457
148.844,16.40202,-0.00800655,8.15171,1.03354
151.344,16.48418,-0.008649435,8.90836,1.03249
153.844,16.5655,-0.008645577,9.77792,1.03141
156.344,16.64655,-0.00580103,10.70282,1.03032
158.844,16.7272,-0.00597807,11.5237,1.02919
161.344,16.8073,-0.007166269,11.85752,1.02805
163.844,16.88672,-0.01535378,11.44502,1.02688
166.344,16.96537,-0.001926435,10.34257,1.02569
168.844,17.04329,-0.007465429,9.10703,1.02448
171.344,17.12069,-0.00745971,8.09365,1.02325
173.844,17.19758,-0.006144399,7.3848,1.02199
176.344,17.2739,-0.0052673,6.96637,1.02072
178.844,17.34977,-0.00749094,6.70033,1.01942
181.344,17.42512,-0.006160508,6.5551,1.0181
183.844,17.50011,-0.00744672,6.49605,1.01676
186.344,17.57478,-0.00749574,6.46932,1.0154
188.844,17.649,-0.00744996,6.4691,1.01402
191.344,17.7227,-0.007439202,6.50482,1.01261
193.844,17.79638,-0.00746,6.54186,1.01119
196.344,17.86962,-0.007464762,6.592,1.00975
198.844,17.94249,-0.007389795,6.63217,1.00829
201.344,18.01524,-0.00744988,6.69153,1.00681
203.844,18.08746,-0.007345065,6.74343,1.00531
206.344,18.15941,-0.00745894,6.79518,1.00379
208.844,18.2316,-0.00745508,6.83935,1.00226
211.344,18.30331,-0.00745006,6.89916,1.0007
213.844,18.37487,-0.008466738,6.95236,0.99913
216.344,18.44615,-0.007450094,7.00931,0.99754
218.844,18.5171,-0.00745,7.07425,0.99593
221.344,18.5882,-0.00745,7.11817,0.9943
223.844,18.65895,-0.00744994,7.16522,0.99266
226.344,18.72951,-0.008747463,7.21331,0.991
228.844,18.79982,-0.007789987,7.26483,0.98933
231.344,18.87002,-0.00779,7.31596,0.98763
233.844,18.94022,-0.00778005,7.36221,0.98592
236.344,19.01015,-0.008774749,7.40756,0.9842
238.844,19.07997,-0.008770244,7.44948,0.98246
241.344,19.1495,-0.007102321,7.49578,0.9807
243.844,19.21911,-0.006799985,7.55198,0.97893
246.344,19.28849,-0.008110854,7.59206,0.97715
248.844,19.35772,-0.00811,7.61902,0.97535
251.344,19.4269,-0.008110009,7.67283,0.97353
253.844,19.496,-0.009161719,7.70393,0.9717
256.344,19.56502,-0.00909871,7.75379,0.96986
258.844,19.63379,-0.008114298,7.79811,0.968
261.344,19.70265,-0.008109999,7.82998,0.96613
263.844,19.77137,-0.00811,7.86984,0.96425
266.344,19.83983,-0.00811,7.90776,0.96235
268.844,19.90832,-0.00811,7.95207,0.96044
271.344,19.97701,-0.00811,7.99213,0.95852
273.844,20.0454,-0.00811,8.02666,0.95659
276.344,20.11373,-0.008106709,8.06055,0.95464
278.844,20.1821,-0.009433585,8.10188,0.95268
281.344,20.25019,-0.009429999,8.13255,0.95071
283.844,20.31854,-0.00943,8.17187,0.94873
286.344,20.3868,-0.009430238,8.19671,0.94674
288.844,20.455,-0.008067195,8.23425,0.94474
291.344,20.52306,-0.009328712,8.27143,0.94273
293.844,20.59137,-0.009430002,8.3035,0.9407
296.344,20.65948,-0.00943,8.33424,0.93867
298.844,20.72767,-0.00943,8.36529,0.93663
301.344,20.7958,-0.009429995,8.39817,0.93457
303.844,20.86385,-0.009476533,8.43016,0.93251
306.344,20.93192,-0.008693799,8.46296,0.93044
308.844,21,-0.00975999,8.47246,0.92836
311.344,21.0682,-0.00976,8.50796,0.92627
313.844,21.13625,-0.00976,8.54658,0.92417
316.344,21.20437,-0.00975999,8.57579,0.92207
318.844,21.27238,-0.009810582,8.60743,0.91996
321.344,21.34054,-0.01074995,8.65062,0.91784
323.844,21.4086,-0.01074998,8.67732,0.91571
326.344,21.4767,-0.01176083,8.70832,0.91357
328.844,21.54482,-0.01173,8.7379,0.91143
331.344,21.61293,-0.01173,8.76993,0.90928
333.844,21.6811,-0.01172963,8.80459,0.90712
336.344,21.7494,-0.01042156,8.82861,0.90496
338.844,21.81765,-0.01042001,8.85884,0.90279
341.344,21.886,-0.01035082,8.8827,0.90062
343.844,21.95448,-0.0130432,8.92282,0.89844
346.344,22.02284,-0.01436326,8.96021,0.89626
348.844,22.09153,-0.01304034,8.98184,0.89407
351.344,22.16019,-0.01304205,9.01857,0.89187
353.844,22.22885,-0.01436127,9.04386,0.88967
356.344,22.29757,-0.01300957,9.07862,0.88747
358.844,22.3664,-0.01568035,9.10161,0.88526
361.344,22.43543,-0.01508555,9.12337,0.88305
363.844,22.50423,-0.01539975,9.15029,0.88083
366.344,22.57325,-0.01646088,9.18484,0.87861
368.844,22.64234,-0.01775987,9.21382,0.87639
371.344,22.71145,-0.0177759,9.24024,0.87416
373.844,22.7807,-0.01908759,9.27368,0.87193
376.344,22.85006,-0.02038993,9.30587,0.8697
378.844,22.91945,-0.02172544,9.3388,0.86747
381.344,22.98891,-0.024353,9.38093,0.86523
383.844,23.05852,-0.02565698,9.43277,0.86299
386.344,23.12819,-0.02698922,9.48586,0.86075
388.844,23.19785,-0.02828367,9.55654,0.85851
391.344,23.26781,-0.03025499,9.62294,0.85626
393.844,23.33778,-0.03278439,9.69621,0.85402
396.344,23.40776,-0.03411142,9.78742,0.85177
398.844,23.4779,-0.03549932,9.86878,0.84953
401.344,23.54813,-0.03970468,9.94248,0.84728
403.844,23.6185,-0.04487883,10.01304,0.84503
406.344,23.68903,-0.04891728,10.05476,0.84278
408.844,23.75957,-0.05420961,10.10868,0.84053
411.344,23.83016,-0.05856019,10.16458,0.83829
413.844,23.9009,-0.06259963,10.20455,0.83604
416.344,23.9718,-0.06896502,10.2959,0.83379
418.844,24.04281,-0.07643299,10.38729,0.83154
421.344,24.11382,-0.0831512,10.50115,0.8293
423.844,24.18498,-0.08922935,10.64852,0.82705
426.344,24.25617,-0.09916385,10.83312,0.82481
428.844,24.32753,-0.10921,11.04272,0.82257
431.344,24.39857,-0.12032,11.27266,0.82033
433.844,24.47016,-0.13197,11.55335,0.81809
436.344,24.54212,-0.14791,11.89839,0.81585
438.844,24.61392,-0.16421,12.31212,0.81362
441.344,24.6857,-0.18314,12.79702,0.81138
443.844,24.7576,-0.20581,13.3509,0.80916
446.344,24.82929,-0.23367,13.993,0.80693
448.844,24.9013,-0.26541,14.7463,0.8047
451.344,24.9738,-0.30018,15.59428,0.80248
453.844,25.0461,-0.34271,16.5782,0.80026
456.344,25.1184,-0.39228,17.6431,0.79805
458.844,25.1909,-0.4517,18.98536,0.79584
461.344,25.26331,-0.52729,20.3794,0.79363
463.844,25.3357,-0.61531,21.67717,0.79143
466.344,25.40833,-0.71205,23.2547,0.78923
468.844,25.48067,-0.82856,24.96796,0.78703
471.344,25.55331,-0.96758,26.4715,0.78484
473.844,25.62586,-1.12847,28.1017,0.78266
476.344,25.6984,-1.31804,29.3601,0.78047
478.844,25.77085,-1.53287,30.3786,0.7783
481.344,25.8433,-1.76751,31.09253,0.77612
483.844,25.916,-2.04188,31.35071,0.77396
486.344,25.98828,-2.34732,30.7021,0.77179
488.844,26.05965,-2.63028,28.7454,0.76964
491.344,26.13295,-2.91601,25.83095,0.76748
493.844,26.20564,-3.2249,21.8778,0.76534
496.344,26.27781,-3.43527,16.98452,0.7632
498.844,26.3521,-3.63593,11.97654,0.76106
501.344,26.42725,-3.79924,7.69709,0.75894
503.844,26.50352,-3.90983,4.86856,0.75681
506.344,26.58062,-3.98272,3.42528,0.7547
508.844,26.65799,-4.02731,2.65537,0.75259
511.344,26.73485,-4.05456,2.14468,0.75048
513.844,26.8113,-4.06965,1.68442,0.74839
516.344,26.8873,-4.07836,1.29789,0.7463
518.844,26.9631,-4.08411,1.01234,0.74421
521.344,27.03864,-4.08536,0.76884,0.74214
523.844,27.11416,-4.08668,0.61876,0.74007
526.344,27.1898,-4.08739,0.52815,0.73801
528.844,27.2654,-4.08799,0.47953,0.73595
531.344,27.34125,-4.08766,0.44922,0.7339
533.844,27.41708,-4.08889,0.41126,0.73186
536.344,27.49308,-4.0889,0.38637,0.72983
538.844,27.5691,-4.08997,0.37002,0.72781
541.344,27.64518,-4.08661,0.34613,0.72579
543.844,27.7214,-4.08503,0.31666,0.72378
546.344,27.79775,-4.08411,0.29902,0.72178
548.844,27.87418,-4.08405,0.23854,0.71979
551.344,27.9505,-4.08405,0.20551,0.7178
553.844,28.02696,-4.08404,0.19021,0.71582
556.344,28.1036,-4.08437,0.15781,0.71386
558.844,28.1803,-4.08437,0.15453,0.7119
561.344,28.2571,-4.08569,0.15235,0.70994
563.844,28.334,-4.08569,0.15409,0.708
566.344,28.41082,-4.08437,0.15869,0.70607
568.844,28.48765,-4.08569,0.15933,0.70414
571.344,28.56467,-4.0856,0.1489,0.70222
573.844,28.64183,-4.08701,0.16595,0.70032
576.344,28.719,-4.08604,0.16303,0.69842
578.844,28.79628,-4.08569,0.17399,0.69653
581.344,28.8737,-4.08516,0.16568,0.69464
583.844,28.95105,-4.08606,0.16443,0.69277
586.344,29.0286,-4.08657,0.17468,0.69091
588.844,29.10618,-4.08519,0.2031,0.68906
591.344,29.18388,-4.08525,0.19148,0.68721
593.844,29.2617,-4.08657,0.19861,0.68538
596.344,29.33952,-4.08658,0.21334,0.68355
598.844,29.4174,-4.08525,0.21406,0.68173
601.344,29.4955,-4.08389,0.20484,0.67993
603.844,29.57355,-4.08361,0.23379,0.67813
606.344,29.6516,-4.08493,0.25117,0.67634
608.844,29.7301,-4.08394,0.24585,0.67456
611.344,29.80852,-4.08382,0.25239,0.67279
613.844,29.8869,-4.07873,0.23258,0.67103
616.344,29.9656,-4.07442,0.2454,0.66929
617.344,29.9969,-4.0731,0.23095,0.66859