Folder: fsri_materials_database/01_Data/PP/STA/N2/3K_min

Note: 01_Data/README.md
# Materials and Products Database
## 01_Data

Raw data generated from each apparatus are included here in plain-text format. The data is organized first by material, next by the short name of test apparatus used, and where applicable additional filtering by test settings.

### material.json

Each material directory contains a json file of the same name as the material. This file links the data stored in the repository as well as data and graphs produced by the accompanying scripts (__02_Scripts__) to the respective landing page for the material on the front-end website.

File: PP_STA_N2_3KData_210826_R1.csv
##Temp./Â°C,Time/min,Mass loss(subtr.2)/mg,DSC(subtr.2)/(mW/mg),Sensit./(uV/mW)
49.687,10.00917,-0.02896,-0.02861364,1.03585
52.387,13.9679,-0.03629232,0.00953503,1.03571
55.087,15.54817,-0.03762008,0.02701044,1.03554
57.787,16.8519,-0.04004995,0.03498877,1.03533
60.487,18.0211,-0.04267443,0.04057728,1.0351
63.187,19.11303,-0.04107278,0.04942545,1.03483
65.887,20.15168,-0.04265684,0.05393436,1.03453
68.587,21.1544,-0.04497003,0.05732249,1.03421
71.287,22.13091,-0.04500831,0.06031895,1.03385
73.987,23.0889,-0.04671889,0.06251821,1.03346
76.687,24.03256,-0.04748846,0.06337433,1.03304
79.387,24.96644,-0.04826172,0.06349089,1.03259
82.087,25.893,-0.05024004,0.06354299,1.03211
84.787,26.809,-0.04990005,0.06705625,1.0316
87.487,27.7213,-0.052224,0.06537492,1.03107
90.187,28.62521,-0.05307996,0.0675252,1.0305
92.887,29.52269,-0.05327659,0.0680646,1.0299
95.587,30.4123,-0.05308692,0.06898827,1.02928
98.287,31.30061,-0.05715189,0.07181922,1.02862
100.987,32.18376,-0.05607005,0.07165594,1.02794
103.687,33.06641,-0.05714048,0.07436091,1.02723
106.387,33.94433,-0.05589154,0.07698287,1.02649
109.087,34.81835,-0.05657807,0.07762149,1.02573
111.787,35.6939,-0.0561604,0.07923617,1.02493
114.487,36.56993,-0.05759478,0.08055295,1.02411
117.187,37.4467,-0.05747907,0.08072061,1.02327
119.887,38.32249,-0.05857991,0.08237808,1.02239
122.587,39.19806,-0.0623968,0.08801036,1.02149
125.287,40.07055,-0.05957616,0.0852449,1.02056
127.987,40.94213,-0.06219016,0.0881418,1.01961
130.687,41.80982,-0.06042604,0.0939101,1.01863
133.387,42.6771,-0.06163992,0.09690858,1.01762
136.087,43.54356,-0.06467026,0.10232,1.01659
138.787,44.40769,-0.06397237,0.10529,1.01554
141.487,45.27065,-0.0623,0.11284,1.01445
144.187,46.13225,-0.06099676,0.12655,1.01335
146.887,46.99432,-0.06216434,0.14313,1.01222
149.587,47.85613,-0.06347876,0.16831,1.01106
152.287,48.71692,-0.06585261,0.20072,1.00988
154.987,49.577,-0.06283571,0.25091,1.00868
157.687,50.43776,-0.06625208,0.30762,1.00745
160.387,51.2976,-0.06460067,0.35241,1.0062
163.087,52.15613,-0.06427914,0.30726,1.00493
165.787,53.0075,-0.06548,0.15905,1.00364
168.487,53.85745,-0.06339761,0.10026,1.00232
171.187,54.7097,-0.06614,0.08499728,1.00098
173.887,55.5632,-0.06843992,0.08798471,0.99961
176.587,56.41888,-0.06624998,0.08562487,0.99823
179.287,57.27242,-0.06724292,0.08575248,0.99682
181.987,58.12536,-0.0679,0.08764822,0.9954
184.687,58.978,-0.06558094,0.08534394,0.99395
187.387,59.8298,-0.06614,0.08700855,0.99248
190.087,60.6827,-0.06669,0.08600653,0.99099
192.787,61.53305,-0.06558634,0.08695344,0.98948
195.487,62.3839,-0.06778001,0.08846837,0.98795
198.187,63.2378,-0.0679,0.08746673,0.9864
200.887,64.08971,-0.06856,0.08829889,0.98483
203.587,64.9432,-0.07055066,0.08708055,0.98324
206.287,65.7962,-0.06955361,0.08504565,0.98163
208.987,66.6495,-0.06899059,0.0858956,0.98
211.687,67.50411,-0.07031,0.08346631,0.97836
214.387,68.35713,-0.07030089,0.08282471,0.97669
217.087,69.21051,-0.07054682,0.08474657,0.97501
219.787,70.06364,-0.0703909,0.08418618,0.97331
222.487,70.91824,-0.07184173,0.08339046,0.97159
225.187,71.77119,-0.0731691,0.08347136,0.96986
227.887,72.62544,-0.07161755,0.08077308,0.96811
230.587,73.47845,-0.07185,0.08025165,0.96634
233.287,74.33241,-0.07151036,0.08301862,0.96456
235.987,75.18791,-0.07184,0.07840518,0.96276
238.687,76.04405,-0.07120313,0.08031916,0.96094
241.387,76.90131,-0.07234825,0.07932061,0.95911
244.087,77.7615,-0.07315974,0.07879441,0.95726
246.787,78.6203,-0.07144104,0.0832258,0.9554
249.487,79.47928,-0.07337624,0.08192023,0.95352
252.187,80.3362,-0.07436512,0.08363177,0.95163
254.887,81.1932,-0.07502095,0.08274508,0.94972
257.587,82.04893,-0.07392321,0.08125471,0.9478
260.287,82.90825,-0.07918963,0.08069489,0.94587
262.987,83.76488,-0.07755,0.08253656,0.94392
265.687,84.62011,-0.07787862,0.08269745,0.94196
268.387,85.4794,-0.07919827,0.08121779,0.93998
271.087,86.33735,-0.07750969,0.0808783,0.93799
273.787,87.19706,-0.08041,0.0838262,0.93599
276.487,88.05611,-0.08063857,0.08398025,0.93398
279.187,88.91293,-0.08161,0.08508258,0.93196
281.887,89.77274,-0.08062002,0.08540914,0.92992
284.587,90.63237,-0.08194681,0.08697765,0.92788
287.287,91.49333,-0.08325,0.08628239,0.92582
289.987,92.354,-0.08391641,0.08533797,0.92375
292.687,93.21522,-0.0832515,0.08688684,0.92167
295.387,94.0775,-0.0857896,0.0909282,0.91958
298.087,94.94395,-0.07840879,0.08022184,0.91748
300.787,95.8052,-0.08614101,0.0883788,0.91537
303.487,96.6687,-0.08808804,0.08586103,0.91324
306.187,97.53591,-0.0894,0.08607568,0.91112
308.887,98.4038,-0.08907183,0.08774458,0.90898
311.587,99.26902,-0.09006005,0.08857032,0.90683
314.287,100.137,-0.09202921,0.08873557,0.90467
316.987,101.004,-0.09137012,0.0898734,0.90251
319.687,101.871,-0.09261183,0.08884759,0.90033
322.387,102.738,-0.09531277,0.08923516,0.89815
325.087,103.606,-0.09565,0.09064455,0.89596
327.787,104.474,-0.09762009,0.09249711,0.89377
330.487,105.344,-0.09976451,0.09416712,0.89156
333.187,106.214,-0.10124,0.09318933,0.88935
335.887,107.082,-0.10453,0.09565981,0.88714
338.587,107.952,-0.10716,0.0961724,0.88491
341.287,108.824,-0.11103,0.0946711,0.88268
343.987,109.694,-0.11374,0.09715577,0.88045
346.687,110.564,-0.11902,0.09657801,0.87821
349.387,111.437,-0.12263,0.0954547,0.87596
352.087,112.31,-0.1279,0.09905568,0.87371
354.787,113.182,-0.13382,0.10026,0.87145
357.487,114.058,-0.14237,0.10024,0.86919
360.187,114.934,-0.14863,0.09648511,0.86692
362.887,115.807,-0.1552,0.09832077,0.86465
365.587,116.682,-0.16409,0.09593236,0.86237
368.287,117.559,-0.17363,0.09015874,0.8601
370.987,118.438,-0.18254,0.09198547,0.85781
373.687,119.32,-0.19765,0.0922872,0.85553
376.387,120.201,-0.20962,0.09067485,0.85324
379.087,121.082,-0.22496,0.08850179,0.85095
381.787,121.962,-0.23835,0.08612878,0.84865
384.487,122.842,-0.25447,0.08353804,0.84636
387.187,123.72,-0.27027,0.08633627,0.84406
389.887,124.602,-0.28755,0.07982459,0.84175
392.587,125.484,-0.3077,0.08031525,0.83945
395.287,126.366,-0.32996,0.08802456,0.83715
397.987,127.249,-0.35813,0.08459375,0.83484
400.687,128.134,-0.38893,0.09231507,0.83253
403.387,129.017,-0.42583,0.09963504,0.83022
406.087,129.8985,-0.46977,0.11025,0.82792
408.787,130.783,-0.52058,0.1238,0.82561
411.487,131.666,-0.58172,0.14535,0.8233
414.187,132.551,-0.65339,0.16743,0.82099
416.887,133.44,-0.73961,0.18906,0.81868
419.587,134.326,-0.84565,0.20338,0.81637
422.287,135.211,-0.9724,0.21879,0.81406
424.987,136.1,-1.12396,0.2433,0.81175
427.687,136.985,-1.31092,0.2547,0.80944
430.387,137.871,-1.53221,0.26341,0.80713
433.087,138.762,-1.79148,0.27499,0.80483
435.787,139.654,-2.09048,0.2431,0.80252
438.487,140.546,-2.42318,0.19607,0.80022
441.187,141.435,-2.77012,0.11067,0.79792
443.887,142.322,-3.11558,-0.0181443,0.79562
446.587,143.209,-3.42942,-0.17549,0.79332
449.287,144.099,-3.68698,-0.32327,0.79103
451.987,144.989,-3.87183,-0.40932,0.78874
454.687,145.8813,-3.98954,-0.40471,0.78645
457.387,146.777,-4.05755,-0.30216,0.78416
460.087,147.67,-4.09708,-0.15779,0.78188
462.787,148.566,-4.12528,-0.02406119,0.7796
465.487,149.462,-4.14241,0.01270836,0.77732
468.187,150.359,-4.15128,0.01043715,0.77505
470.887,151.255,-4.15557,0.003593796,0.77278
473.587,152.148,-4.1542,-0.01647695,0.77052
476.287,153.043,-4.15656,-0.0140405,0.76826
478.987,153.94,-4.15459,-0.01313395,0.766
481.687,154.84,-4.15392,-0.01170504,0.76375
484.387,155.738,-4.1536,-0.01727361,0.7615
487.087,156.632,-4.15426,-0.01460291,0.75926
489.787,157.529,-4.15392,-0.01353704,0.75702
492.487,158.426,-4.15308,-0.01134268,0.75478
495.187,159.3263,-4.15326,-0.008957052,0.75256
497.887,160.225,-4.15289,-0.01222087,0.75033
500.587,161.128,-4.15138,-0.005561775,0.74812
503.287,162.027,-4.15259,-0.009813013,0.7459
505.987,162.929,-4.15162,-0.007881261,0.7437
508.687,163.833,-4.15064,-0.005499342,0.7415
511.387,164.73,-4.1503,-0.01231579,0.7393
514.087,165.632,-4.15073,-0.00747347,0.73711
516.787,166.531,-4.1503,-0.006088122,0.73493
519.487,167.435,-4.14965,-0.00656026,0.73276
522.187,168.339,-4.14998,-0.009704541,0.73059
524.887,169.241,-4.14998,-0.01247651,0.72843
527.587,170.147,-4.1492,-0.008234788,0.72627
530.287,171.053,-4.14866,-0.01040515,0.72412
532.987,171.954,-4.14908,-0.0105186,0.72198
535.687,172.86,-4.14965,-0.00602374,0.71984
538.387,173.772,-4.14833,-0.0008290663,0.71772
541.087,174.675,-4.14738,-0.001910215,0.7156
543.787,175.579,-4.14603,-0.0007834063,0.71348
546.487,176.486,-4.1457,0.002153847,0.71138
549.187,177.393,-4.14714,0.0008513929,0.70928
551.887,178.3,-4.1457,0.00160491,0.70719
554.587,179.205,-4.14438,0.002748355,0.70511
557.287,180.109,-4.14602,0.002075102,0.70303
559.987,181.023,-4.14405,0.003749928,0.70097
562.687,181.931,-4.14568,0.004131613,0.69891
565.387,182.841,-4.14372,0.002053351,0.69686
568.087,183.7503,-4.14288,0.00106502,0.69482
570.787,184.664,-4.14372,0.005614595,0.69279
573.487,185.573,-4.14438,0.004465608,0.69076
576.187,186.4854,-4.14273,0.006791249,0.68875
578.887,187.396,-4.14273,0.00930004,0.68674
581.587,188.306,-4.14206,0.008320983,0.68474
584.287,189.218,-4.14109,0.00888482,0.68275
586.987,190.13,-4.13911,0.00569121,0.68077
589.687,191.043,-4.13978,0.01107814,0.6788
592.387,191.954,-4.14045,0.01264213,0.67683
595.087,192.869,-4.14109,0.01272746,0.67488
597.787,193.784,-4.14077,0.01066409,0.67294
600.487,194.696,-4.13846,0.01154646,0.671
603.187,195.611,-4.13879,0.008809354,0.66907
605.887,196.527,-4.13846,0.006597986,0.66716
608.587,197.4394,-4.13813,0.008819438,0.66525
611.287,198.356,-4.13754,0.008548283,0.66335
613.987,199.272,-4.13615,0.01344052,0.66146
616.687,200.188,-4.13713,0.01016345,0.65959
619.387,201.109,-4.13714,0.0161168,0.65772
622.087,202.026,-4.13509,0.01214624,0.65586
624.787,202.946,-4.13482,0.01523756,0.65401
627.487,203.865,-4.13451,0.009791171,0.65217
630.187,204.785,-4.13418,0.01433346,0.65034
632.887,205.7,-4.13386,0.01267283,0.64852
635.587,206.618,-4.13484,0.01392773,0.64671
638.287,207.531,-4.13434,0.01840963,0.64491
640.987,208.451,-4.13286,0.01842084,0.64311
643.687,209.373,-4.1322,0.009417621,0.64133
645.487,209.989,-4.13154,0.01118125,0.64015