Folder: fsri_materials_database/01_Data/OSB/FTIR/ATR

Note: 01_Data/README.md
# Materials and Products Database
## 01_Data

Raw data generated from each apparatus are included here in plain-text format. The data is organized first by material, next by the short name of test apparatus used, and where applicable additional filtering by test settings.

### material.json

Each material directory contains a json file of the same name as the material. This file links the data stored in the repository as well as data and graphs produced by the accompanying scripts (__02_Scripts__) to the respective landing page for the material on the front-end website.

File: OSB_ATR_210608_R1.tst
4497.79,-0.00810
4484.29,-0.00780
4470.79,-0.00793
4457.29,-0.00783
4443.79,-0.00764
4430.28,-0.00782
4416.78,-0.00778
4403.28,-0.00764
4389.78,-0.00728
4376.28,-0.00719
4362.78,-0.00730
4349.28,-0.00709
4335.78,-0.00749
4322.28,-0.00706
4308.77,-0.00715
4295.27,-0.00711
4281.77,-0.00719
4268.27,-0.00713
4254.77,-0.00693
4241.27,-0.00700
4227.77,-0.00712
4214.27,-0.00694
4200.77,-0.00671
4187.26,-0.00689
4173.76,-0.00675
4160.26,-0.00681
4146.76,-0.00663
4133.26,-0.00651
4119.76,-0.00668
4106.26,-0.00624
4092.76,-0.00661
4079.26,-0.00610
4065.75,-0.00653
4052.25,-0.00645
4038.75,-0.00635
4025.25,-0.00600
4011.75,-0.00598
3998.25,-0.00614
3984.75,-0.00584
3971.25,-0.00501
3957.75,-0.00476
3944.25,-0.00386
3930.74,-0.00290
3917.24,-0.00315
3903.74,0.00082
3890.24,-0.00285
3876.74,-0.00365
3863.24,-0.00061
3849.74,-0.00225
3836.24,-0.00008
3822.74,-0.00028
3809.23,-0.00375
3795.73,-0.00365
3782.23,-0.00364
3768.73,-0.00212
3755.23,-0.00028
3741.73,0.00093
3728.23,-0.00128
3714.73,-0.00151
3701.23,-0.00321
3687.72,-0.00136
3674.22,0.00062
3660.72,-0.00395
3647.22,0.00109
3633.72,-0.00246
3620.22,0.00003
3606.72,-0.00210
3593.22,-0.00256
3579.72,-0.00367
3566.21,0.00094
3552.71,-0.00330
3539.21,-0.00476
3525.71,-0.00172
3512.21,-0.00447
3498.71,-0.00464
3485.21,-0.00478
3471.71,-0.00552
3458.21,-0.00547
3444.7,-0.00475
3431.2,-0.00578
3417.7,-0.00575
3404.2,-0.00592
3390.7,-0.00568
3377.2,-0.00595
3363.7,-0.00540
3350.2,-0.00596
3336.7,-0.00531
3323.2,-0.00568
3309.69,-0.00519
3296.19,-0.00547
3282.69,-0.00529
3269.19,-0.00531
3255.69,-0.00503
3242.19,-0.00498
3228.69,-0.00489
3215.19,-0.00495
3201.69,-0.00461
3188.18,-0.00477
3174.68,-0.00463
3161.18,-0.00473
3147.68,-0.00441
3134.18,-0.00431
3120.68,-0.00396
3107.18,-0.00427
3093.68,-0.00418
3080.18,-0.00379
3066.67,-0.00375
3053.17,-0.00387
3039.67,-0.00392
3026.17,-0.00392
3012.67,-0.00364
2999.17,-0.00381
2985.67,-0.00382
2972.17,-0.00367
2958.67,-0.00348
2945.16,-0.00351
2931.66,-0.00310
2918.16,-0.00303
2904.66,-0.00334
2891.16,-0.00338
2877.66,-0.00335
2864.16,-0.00325
2850.66,-0.00296
2837.16,-0.00328
2823.66,-0.00327
2810.15,-0.00322
2796.65,-0.00318
2783.15,-0.00313
2769.65,-0.00311
2756.15,-0.00300
2742.65,-0.00295
2729.15,-0.00298
2715.65,-0.00295
2702.15,-0.00285
2688.64,-0.00282
2675.14,-0.00282
2661.64,-0.00286
2648.14,-0.00294
2634.64,-0.00291
2621.14,-0.00289
2607.64,-0.00283
2594.14,-0.00266
2580.64,-0.00254
2567.13,-0.00263
2553.63,-0.00248
2540.13,-0.00250
2526.63,-0.00253
2513.13,-0.00252
2499.63,-0.00235
2486.13,-0.00238
2472.63,-0.00223
2459.13,-0.00236
2445.62,-0.00241
2432.12,-0.00212
2418.62,-0.00200
2405.12,-0.00205
2391.62,-0.00199
2378.12,-0.00178
2364.62,-0.00813
2351.12,-0.00406
2337.62,-0.00679
2324.12,-0.00367
2310.61,-0.00132
2297.11,-0.00175
2283.61,-0.00205
2270.11,-0.00221
2256.61,-0.00208
2243.11,-0.00187
2229.61,-0.00179
2216.11,-0.00243
2202.61,-0.00204
2189.1,-0.00275
2175.6,-0.00279
2162.1,-0.00329
2148.6,-0.00162
2135.1,-0.00140
2121.6,-0.00206
2108.1,-0.00230
2094.6,-0.00201
2081.1,-0.00174
2067.59,-0.00125
2054.09,-0.00157
2040.59,-0.00103
2027.09,-0.00116
2013.59,-0.00112
2000.09,-0.00129
1986.59,-0.00044
1973.09,-0.00082
1959.59,-0.00109
1946.08,0.00021
1932.58,-0.00042
1919.08,0.00060
1905.58,-0.00034
1892.08,0.00025
1878.58,-0.00065
1865.08,0.00062
1851.58,-0.00014
1838.08,0.00056
1824.57,0.00130
1811.07,0.00134
1797.57,0.00234
1784.07,0.00116
1770.57,0.00336
1757.07,0.00200
1743.57,0.00401
1730.07,0.00262
1716.57,0.00743
1703.07,0.00533
1689.56,0.00293
1676.06,0.00216
1662.56,0.00108
1649.06,0.00412
1635.56,0.00246
1622.06,0.00135
1608.56,0.00006
1595.06,-0.00056
1581.56,-0.00096
1568.05,0.00133
1554.55,0.00476
1541.05,0.01126
1527.55,0.00556
1514.05,0.00590
1500.55,0.00373
1487.05,0.00353
1473.55,0.00552
1460.05,0.00268
1446.54,0.00107
1433.04,0.00202
1419.54,0.00333
1406.04,0.00066
1392.54,0.00108
1379.04,0.00055
1365.54,0.00046
1352.04,-0.00049
1338.54,0.00298
1325.03,-0.00055
1311.53,0.00038
1298.03,-0.00055
1284.53,-0.00037
1271.03,0.00028
1257.53,0.00033
1244.03,-0.00063
1230.53,-0.00062
1217.03,-0.00053
1203.53,-0.00061
1190.02,-0.00059
1176.52,-0.00049
1163.02,-0.00045
1149.52,-0.00065
1136.02,-0.00047
1122.52,-0.00046
1109.02,0.00008
1095.52,0.00065
1082.02,0.00039
1068.51,0.00039
1055.01,0.00053
1041.51,0.00053
1028.01,0.00100
1014.51,0.00100
1001.01,0.00033
987.508,0.00014
974.007,-0.00030
960.506,-0.00010
947.005,-0.00036
933.503,-0.00011
920.002,-0.00057
906.501,-0.00050
893,-0.00006
879.499,-0.00001
865.998,-0.00044
852.497,0.00005
838.996,0.00028
825.495,0.00020
811.994,0.00074
798.493,0.00110
784.992,0.00025
771.49,0.00045
757.989,-0.00034
744.488,-0.00000
730.987,-0.00004
717.486,0.00046
703.985,0.00048
690.484,0.00028
676.983,-0.00046
663.482,0.00026
649.981,-0.00005
636.48,0.00111
622.979,-0.00024
609.477,-0.00127
599.834,-0.00056

File: OSB_ATR_210608_R2.tst
4497.79,-0.00825
4484.29,-0.00799
4470.79,-0.00813
4457.29,-0.00810
4443.79,-0.00791
4430.28,-0.00803
4416.78,-0.00780
4403.28,-0.00778
4389.78,-0.00747
4376.28,-0.00755
4362.78,-0.00752
4349.28,-0.00761
4335.78,-0.00751
4322.28,-0.00740
4308.77,-0.00739
4295.27,-0.00743
4281.77,-0.00740
4268.27,-0.00735
4254.77,-0.00713
4241.27,-0.00717
4227.77,-0.00726
4214.27,-0.00727
4200.77,-0.00697
4187.26,-0.00714
4173.76,-0.00686
4160.26,-0.00696
4146.76,-0.00699
4133.26,-0.00680
4119.76,-0.00687
4106.26,-0.00633
4092.76,-0.00683
4079.26,-0.00653
4065.75,-0.00657
4052.25,-0.00677
4038.75,-0.00660
4025.25,-0.00602
4011.75,-0.00623
3998.25,-0.00637
3984.75,-0.00600
3971.25,-0.00534
3957.75,-0.00504
3944.25,-0.00406
3930.74,-0.00320
3917.24,-0.00348
3903.74,0.00041
3890.24,-0.00302
3876.74,-0.00391
3863.24,-0.00043
3849.74,-0.00245
3836.24,-0.00057
3822.74,-0.00092
3809.23,-0.00395
3795.73,-0.00369
3782.23,-0.00393
3768.73,-0.00237
3755.23,-0.00035
3741.73,0.00046
3728.23,-0.00133
3714.73,-0.00222
3701.23,-0.00350
3687.72,-0.00153
3674.22,0.00005
3660.72,-0.00419
3647.22,0.00041
3633.72,-0.00274
3620.22,-0.00064
3606.72,-0.00283
3593.22,-0.00303
3579.72,-0.00394
3566.21,0.00068
3552.71,-0.00365
3539.21,-0.00522
3525.71,-0.00213
3512.21,-0.00491
3498.71,-0.00500
3485.21,-0.00513
3471.71,-0.00601
3458.21,-0.00585
3444.7,-0.00515
3431.2,-0.00607
3417.7,-0.00604
3404.2,-0.00632
3390.7,-0.00607
3377.2,-0.00632
3363.7,-0.00593
3350.2,-0.00646
3336.7,-0.00578
3323.2,-0.00623
3309.69,-0.00577
3296.19,-0.00592
3282.69,-0.00572
3269.19,-0.00580
3255.69,-0.00544
3242.19,-0.00552
3228.69,-0.00525
3215.19,-0.00520
3201.69,-0.00513
3188.18,-0.00514
3174.68,-0.00502
3161.18,-0.00509
3147.68,-0.00486
3134.18,-0.00478
3120.68,-0.00430
3107.18,-0.00451
3093.68,-0.00441
3080.18,-0.00411
3066.67,-0.00410
3053.17,-0.00418
3039.67,-0.00430
3026.17,-0.00408
3012.67,-0.00394
2999.17,-0.00416
2985.67,-0.00411
2972.17,-0.00389
2958.67,-0.00382
2945.16,-0.00376
2931.66,-0.00343
2918.16,-0.00334
2904.66,-0.00368
2891.16,-0.00368
2877.66,-0.00381
2864.16,-0.00359
2850.66,-0.00327
2837.16,-0.00348
2823.66,-0.00356
2810.15,-0.00348
2796.65,-0.00340
2783.15,-0.00336
2769.65,-0.00331
2756.15,-0.00324
2742.65,-0.00320
2729.15,-0.00321
2715.65,-0.00311
2702.15,-0.00309
2688.64,-0.00299
2675.14,-0.00304
2661.64,-0.00299
2648.14,-0.00310
2634.64,-0.00315
2621.14,-0.00312
2607.64,-0.00311
2594.14,-0.00287
2580.64,-0.00282
2567.13,-0.00290
2553.63,-0.00289
2540.13,-0.00269
2526.63,-0.00275
2513.13,-0.00271
2499.63,-0.00268
2486.13,-0.00254
2472.63,-0.00250
2459.13,-0.00264
2445.62,-0.00267
2432.12,-0.00233
2418.62,-0.00236
2405.12,-0.00224
2391.62,-0.00227
2378.12,-0.00196
2364.62,-0.00921
2351.12,-0.00443
2337.62,-0.00765
2324.12,-0.00472
2310.61,-0.00153
2297.11,-0.00204
2283.61,-0.00250
2270.11,-0.00277
2256.61,-0.00253
2243.11,-0.00209
2229.61,-0.00229
2216.11,-0.00263
2202.61,-0.00255
2189.1,-0.00327
2175.6,-0.00329
2162.1,-0.00418
2148.6,-0.00198
2135.1,-0.00192
2121.6,-0.00258
2108.1,-0.00293
2094.6,-0.00237
2081.1,-0.00213
2067.59,-0.00184
2054.09,-0.00210
2040.59,-0.00177
2027.09,-0.00151
2013.59,-0.00152
2000.09,-0.00151
1986.59,-0.00125
1973.09,-0.00173
1959.59,-0.00117
1946.08,0.00012
1932.58,-0.00099
1919.08,0.00012
1905.58,-0.00054
1892.08,-0.00010
1878.58,-0.00098
1865.08,0.00040
1851.58,-0.00050
1838.08,0.00031
1824.57,0.00106
1811.07,0.00124
1797.57,0.00223
1784.07,0.00099
1770.57,0.00328
1757.07,0.00184
1743.57,0.00377
1730.07,0.00241
1716.57,0.00706
1703.07,0.00504
1689.56,0.00271
1676.06,0.00204
1662.56,0.00075
1649.06,0.00370
1635.56,0.00209
1622.06,0.00097
1608.56,-0.00029
1595.06,-0.00091
1581.56,-0.00118
1568.05,0.00104
1554.55,0.00453
1541.05,0.01080
1527.55,0.00532
1514.05,0.00544
1500.55,0.00349
1487.05,0.00320
1473.55,0.00509
1460.05,0.00215
1446.54,0.00071
1433.04,0.00162
1419.54,0.00286
1406.04,0.00023
1392.54,0.00074
1379.04,0.00011
1365.54,0.00015
1352.04,-0.00089
1338.54,0.00269
1325.03,-0.00100
1311.53,0.00002
1298.03,-0.00094
1284.53,-0.00083
1271.03,-0.00025
1257.53,-0.00021
1244.03,-0.00115
1230.53,-0.00109
1217.03,-0.00110
1203.53,-0.00112
1190.02,-0.00095
1176.52,-0.00084
1163.02,-0.00090
1149.52,-0.00121
1136.02,-0.00106
1122.52,-0.00106
1109.02,-0.00059
1095.52,-0.00024
1082.02,-0.00045
1068.51,-0.00049
1055.01,-0.00059
1041.51,-0.00061
1028.01,-0.00028
1014.51,-0.00008
1001.01,-0.00069
987.508,-0.00101
974.007,-0.00115
960.506,-0.00097
947.005,-0.00120
933.503,-0.00084
920.002,-0.00113
906.501,-0.00125
893,-0.00099
879.499,-0.00087
865.998,-0.00093
852.497,-0.00068
838.996,-0.00053
825.495,-0.00037
811.994,0.00020
798.493,0.00052
784.992,-0.00083
771.49,0.00029
757.989,-0.00080
744.488,-0.00108
730.987,-0.00137
717.486,-0.00078
703.985,-0.00047
690.484,-0.00062
676.983,-0.00152
663.482,-0.00090
649.981,-0.00084
636.48,0.00004
622.979,-0.00475
609.477,-0.00502
599.834,0.00012

File: OSB_ATR_210608_R3.tst
4497.79,-0.00766
4484.29,-0.00787
4470.79,-0.00796
4457.29,-0.00788
4443.79,-0.00777
4430.28,-0.00788
4416.78,-0.00747
4403.28,-0.00725
4389.78,-0.00741
4376.28,-0.00737
4362.78,-0.00730
4349.28,-0.00725
4335.78,-0.00706
4322.28,-0.00718
4308.77,-0.00720
4295.27,-0.00725
4281.77,-0.00711
4268.27,-0.00700
4254.77,-0.00711
4241.27,-0.00683
4227.77,-0.00702
4214.27,-0.00702
4200.77,-0.00673
4187.26,-0.00679
4173.76,-0.00659
4160.26,-0.00675
4146.76,-0.00663
4133.26,-0.00643
4119.76,-0.00662
4106.26,-0.00635
4092.76,-0.00660
4079.26,-0.00615
4065.75,-0.00648
4052.25,-0.00640
4038.75,-0.00637
4025.25,-0.00582
4011.75,-0.00580
3998.25,-0.00583
3984.75,-0.00574
3971.25,-0.00499
3957.75,-0.00475
3944.25,-0.00370
3930.74,-0.00282
3917.24,-0.00281
3903.74,0.00100
3890.24,-0.00276
3876.74,-0.00357
3863.24,-0.00056
3849.74,-0.00177
3836.24,0.00055
3822.74,-0.00016
3809.23,-0.00361
3795.73,-0.00314
3782.23,-0.00353
3768.73,-0.00165
3755.23,-0.00015
3741.73,0.00100
3728.23,-0.00089
3714.73,-0.00173
3701.23,-0.00301
3687.72,-0.00081
3674.22,0.00097
3660.72,-0.00377
3647.22,0.00098
3633.72,-0.00226
3620.22,0.00001
3606.72,-0.00185
3593.22,-0.00252
3579.72,-0.00354
3566.21,0.00134
3552.71,-0.00282
3539.21,-0.00467
3525.71,-0.00144
3512.21,-0.00451
3498.71,-0.00459
3485.21,-0.00477
3471.71,-0.00562
3458.21,-0.00544
3444.7,-0.00472
3431.2,-0.00583
3417.7,-0.00563
3404.2,-0.00603
3390.7,-0.00581
3377.2,-0.00598
3363.7,-0.00547
3350.2,-0.00612
3336.7,-0.00536
3323.2,-0.00578
3309.69,-0.00528
3296.19,-0.00559
3282.69,-0.00543
3269.19,-0.00521
3255.69,-0.00511
3242.19,-0.00507
3228.69,-0.00498
3215.19,-0.00493
3201.69,-0.00463
3188.18,-0.00482
3174.68,-0.00456
3161.18,-0.00480
3147.68,-0.00451
3134.18,-0.00422
3120.68,-0.00393
3107.18,-0.00425
3093.68,-0.00413
3080.18,-0.00390
3066.67,-0.00372
3053.17,-0.00388
3039.67,-0.00392
3026.17,-0.00372
3012.67,-0.00349
2999.17,-0.00377
2985.67,-0.00379
2972.17,-0.00351
2958.67,-0.00335
2945.16,-0.00343
2931.66,-0.00307
2918.16,-0.00308
2904.66,-0.00322
2891.16,-0.00337
2877.66,-0.00344
2864.16,-0.00317
2850.66,-0.00287
2837.16,-0.00308
2823.66,-0.00320
2810.15,-0.00305
2796.65,-0.00300
2783.15,-0.00299
2769.65,-0.00290
2756.15,-0.00293
2742.65,-0.00288
2729.15,-0.00286
2715.65,-0.00285
2702.15,-0.00274
2688.64,-0.00267
2675.14,-0.00267
2661.64,-0.00262
2648.14,-0.00270
2634.64,-0.00279
2621.14,-0.00264
2607.64,-0.00273
2594.14,-0.00250
2580.64,-0.00239
2567.13,-0.00244
2553.63,-0.00241
2540.13,-0.00228
2526.63,-0.00231
2513.13,-0.00225
2499.63,-0.00216
2486.13,-0.00214
2472.63,-0.00201
2459.13,-0.00221
2445.62,-0.00213
2432.12,-0.00180
2418.62,-0.00193
2405.12,-0.00183
2391.62,-0.00176
2378.12,-0.00152
2364.62,-0.00736
2351.12,-0.00359
2337.62,-0.00689
2324.12,-0.00353
2310.61,-0.00095
2297.11,-0.00140
2283.61,-0.00166
2270.11,-0.00191
2256.61,-0.00170
2243.11,-0.00144
2229.61,-0.00153
2216.11,-0.00156
2202.61,-0.00157
2189.1,-0.00221
2175.6,-0.00245
2162.1,-0.00284
2148.6,-0.00146
2135.1,-0.00105
2121.6,-0.00181
2108.1,-0.00203
2094.6,-0.00150
2081.1,-0.00168
2067.59,-0.00091
2054.09,-0.00119
2040.59,-0.00052
2027.09,-0.00062
2013.59,-0.00050
2000.09,-0.00086
1986.59,-0.00014
1973.09,-0.00067
1959.59,-0.00039
1946.08,0.00057
1932.58,-0.00018
1919.08,0.00084
1905.58,0.00001
1892.08,0.00071
1878.58,-0.00019
1865.08,0.00101
1851.58,0.00006
1838.08,0.00072
1824.57,0.00163
1811.07,0.00166
1797.57,0.00277
1784.07,0.00150
1770.57,0.00384
1757.07,0.00251
1743.57,0.00438
1730.07,0.00294
1716.57,0.00769
1703.07,0.00561
1689.56,0.00317
1676.06,0.00244
1662.56,0.00115
1649.06,0.00425
1635.56,0.00259
1622.06,0.00149
1608.56,0.00021
1595.06,-0.00050
1581.56,-0.00081
1568.05,0.00162
1554.55,0.00513
1541.05,0.01133
1527.55,0.00573
1514.05,0.00590
1500.55,0.00400
1487.05,0.00372
1473.55,0.00561
1460.05,0.00261
1446.54,0.00117
1433.04,0.00205
1419.54,0.00333
1406.04,0.00068
1392.54,0.00124
1379.04,0.00064
1365.54,0.00057
1352.04,-0.00036
1338.54,0.00313
1325.03,-0.00049
1311.53,0.00047
1298.03,-0.00049
1284.53,-0.00034
1271.03,0.00022
1257.53,0.00029
1244.03,-0.00068
1230.53,-0.00066
1217.03,-0.00063
1203.53,-0.00056
1190.02,-0.00042
1176.52,-0.00029
1163.02,-0.00052
1149.52,-0.00065
1136.02,-0.00047
1122.52,-0.00062
1109.02,-0.00005
1095.52,0.00034
1082.02,0.00019
1068.51,-0.00001
1055.01,0.00001
1041.51,-0.00003
1028.01,0.00025
1014.51,0.00048
1001.01,-0.00021
987.508,-0.00055
974.007,-0.00046
960.506,-0.00029
947.005,-0.00076
933.503,-0.00041
920.002,-0.00058
906.501,-0.00058
893,-0.00014
879.499,-0.00027
865.998,-0.00025
852.497,0.00045
838.996,0.00046
825.495,0.00048
811.994,0.00079
798.493,0.00105
784.992,-0.00008
771.49,0.00067
757.989,-0.00010
744.488,0.00011
730.987,-0.00089
717.486,0.00005
703.985,0.00019
690.484,-0.00003
676.983,-0.00067
663.482,-0.00014
649.981,-0.00070
636.48,0.00053
622.979,-0.00083
609.477,-0.00501
599.834,0.00025

File: OSB_ATR_210608_R4.tst
4497.79,-0.00801
4484.29,-0.00785
4470.79,-0.00787
4457.29,-0.00816
4443.79,-0.00775
4430.28,-0.00787
4416.78,-0.00749
4403.28,-0.00767
4389.78,-0.00737
4376.28,-0.00738
4362.78,-0.00732
4349.28,-0.00747
4335.78,-0.00735
4322.28,-0.00721
4308.77,-0.00724
4295.27,-0.00728
4281.77,-0.00720
4268.27,-0.00728
4254.77,-0.00698
4241.27,-0.00712
4227.77,-0.00710
4214.27,-0.00717
4200.77,-0.00683
4187.26,-0.00696
4173.76,-0.00685
4160.26,-0.00668
4146.76,-0.00676
4133.26,-0.00637
4119.76,-0.00672
4106.26,-0.00631
4092.76,-0.00650
4079.26,-0.00625
4065.75,-0.00642
4052.25,-0.00637
4038.75,-0.00642
4025.25,-0.00591
4011.75,-0.00586
3998.25,-0.00604
3984.75,-0.00572
3971.25,-0.00503
3957.75,-0.00472
3944.25,-0.00374
3930.74,-0.00286
3917.24,-0.00301
3903.74,0.00106
3890.24,-0.00275
3876.74,-0.00347
3863.24,-0.00037
3849.74,-0.00203
3836.24,0.00026
3822.74,-0.00019
3809.23,-0.00372
3795.73,-0.00304
3782.23,-0.00344
3768.73,-0.00194
3755.23,0.00023
3741.73,0.00147
3728.23,-0.00070
3714.73,-0.00162
3701.23,-0.00295
3687.72,-0.00056
3674.22,0.00130
3660.72,-0.00381
3647.22,0.00164
3633.72,-0.00223
3620.22,0.00008
3606.72,-0.00187
3593.22,-0.00249
3579.72,-0.00332
3566.21,0.00169
3552.71,-0.00321
3539.21,-0.00485
3525.71,-0.00160
3512.21,-0.00451
3498.71,-0.00476
3485.21,-0.00470
3471.71,-0.00567
3458.21,-0.00541
3444.7,-0.00472
3431.2,-0.00582
3417.7,-0.00566
3404.2,-0.00605
3390.7,-0.00582
3377.2,-0.00601
3363.7,-0.00558
3350.2,-0.00609
3336.7,-0.00546
3323.2,-0.00580
3309.69,-0.00528
3296.19,-0.00566
3282.69,-0.00538
3269.19,-0.00548
3255.69,-0.00511
3242.19,-0.00516
3228.69,-0.00503
3215.19,-0.00498
3201.69,-0.00474
3188.18,-0.00476
3174.68,-0.00468
3161.18,-0.00486
3147.68,-0.00455
3134.18,-0.00430
3120.68,-0.00388
3107.18,-0.00426
3093.68,-0.00417
3080.18,-0.00386
3066.67,-0.00375
3053.17,-0.00384
3039.67,-0.00392
3026.17,-0.00391
3012.67,-0.00361
2999.17,-0.00382
2985.67,-0.00372
2972.17,-0.00359
2958.67,-0.00347
2945.16,-0.00350
2931.66,-0.00316
2918.16,-0.00309
2904.66,-0.00331
2891.16,-0.00339
2877.66,-0.00341
2864.16,-0.00324
2850.66,-0.00298
2837.16,-0.00318
2823.66,-0.00314
2810.15,-0.00311
2796.65,-0.00303
2783.15,-0.00299
2769.65,-0.00293
2756.15,-0.00288
2742.65,-0.00286
2729.15,-0.00287
2715.65,-0.00278
2702.15,-0.00274
2688.64,-0.00261
2675.14,-0.00269
2661.64,-0.00260
2648.14,-0.00268
2634.64,-0.00270
2621.14,-0.00264
2607.64,-0.00264
2594.14,-0.00242
2580.64,-0.00231
2567.13,-0.00228
2553.63,-0.00232
2540.13,-0.00218
2526.63,-0.00214
2513.13,-0.00227
2499.63,-0.00211
2486.13,-0.00209
2472.63,-0.00198
2459.13,-0.00194
2445.62,-0.00200
2432.12,-0.00171
2418.62,-0.00176
2405.12,-0.00176
2391.62,-0.00174
2378.12,-0.00123
2364.62,-0.00708
2351.12,-0.00330
2337.62,-0.00624
2324.12,-0.00305
2310.61,-0.00064
2297.11,-0.00120
2283.61,-0.00158
2270.11,-0.00175
2256.61,-0.00140
2243.11,-0.00118
2229.61,-0.00134
2216.11,-0.00142
2202.61,-0.00155
2189.1,-0.00145
2175.6,-0.00175
2162.1,-0.00190
2148.6,-0.00050
2135.1,-0.00084
2121.6,-0.00177
2108.1,-0.00182
2094.6,-0.00133
2081.1,-0.00122
2067.59,-0.00060
2054.09,-0.00097
2040.59,-0.00024
2027.09,-0.00049
2013.59,0.00000
2000.09,-0.00019
1986.59,0.00013
1973.09,0.00016
1959.59,0.00001
1946.08,0.00092
1932.58,0.00005
1919.08,0.00134
1905.58,0.00028
1892.08,0.00080
1878.58,-0.00013
1865.08,0.00121
1851.58,0.00009
1838.08,0.00089
1824.57,0.00181
1811.07,0.00176
1797.57,0.00297
1784.07,0.00170
1770.57,0.00410
1757.07,0.00248
1743.57,0.00458
1730.07,0.00297
1716.57,0.00804
1703.07,0.00572
1689.56,0.00337
1676.06,0.00255
1662.56,0.00122
1649.06,0.00425
1635.56,0.00263
1622.06,0.00152
1608.56,0.00020
1595.06,-0.00046
1581.56,-0.00077
1568.05,0.00166
1554.55,0.00533
1541.05,0.01170
1527.55,0.00597
1514.05,0.00604
1500.55,0.00405
1487.05,0.00389
1473.55,0.00575
1460.05,0.00280
1446.54,0.00126
1433.04,0.00227
1419.54,0.00351
1406.04,0.00065
1392.54,0.00127
1379.04,0.00058
1365.54,0.00061
1352.04,-0.00032
1338.54,0.00331
1325.03,-0.00041
1311.53,0.00060
1298.03,-0.00038
1284.53,-0.00019
1271.03,0.00040
1257.53,0.00034
1244.03,-0.00055
1230.53,-0.00056
1217.03,-0.00054
1203.53,-0.00038
1190.02,-0.00035
1176.52,-0.00020
1163.02,-0.00037
1149.52,-0.00049
1136.02,-0.00038
1122.52,-0.00048
1109.02,0.00001
1095.52,0.00048
1082.02,0.00013
1068.51,0.00006
1055.01,-0.00004
1041.51,0.00012
1028.01,0.00033
1014.51,0.00050
1001.01,-0.00028
987.508,-0.00035
974.007,-0.00057
960.506,-0.00013
947.005,-0.00049
933.503,-0.00020
920.002,-0.00031
906.501,0.00009
893,-0.00016
879.499,0.00017
865.998,0.00005
852.497,0.00033
838.996,0.00038
825.495,0.00035
811.994,0.00121
798.493,0.00147
784.992,0.00063
771.49,0.00066
757.989,-0.00042
744.488,0.00022
730.987,0.00032
717.486,0.00060
703.985,0.00043
690.484,0.00033
676.983,-0.00050
663.482,-0.00040
649.981,-0.00034
636.48,0.00058
622.979,0.00236
609.477,0.00270
599.834,0.00099

File: OSB_ATR_210608_R5.tst
4497.79,-0.00850
4484.29,-0.00835
4470.79,-0.00820
4457.29,-0.00820
4443.79,-0.00813
4430.28,-0.00813
4416.78,-0.00802
4403.28,-0.00788
4389.78,-0.00774
4376.28,-0.00793
4362.78,-0.00763
4349.28,-0.00770
4335.78,-0.00769
4322.28,-0.00761
4308.77,-0.00770
4295.27,-0.00758
4281.77,-0.00755
4268.27,-0.00740
4254.77,-0.00744
4241.27,-0.00746
4227.77,-0.00719
4214.27,-0.00716
4200.77,-0.00722
4187.26,-0.00728
4173.76,-0.00708
4160.26,-0.00710
4146.76,-0.00695
4133.26,-0.00695
4119.76,-0.00698
4106.26,-0.00670
4092.76,-0.00681
4079.26,-0.00660
4065.75,-0.00665
4052.25,-0.00681
4038.75,-0.00666
4025.25,-0.00624
4011.75,-0.00636
3998.25,-0.00619
3984.75,-0.00601
3971.25,-0.00536
3957.75,-0.00523
3944.25,-0.00418
3930.74,-0.00308
3917.24,-0.00325
3903.74,0.00032
3890.24,-0.00297
3876.74,-0.00391
3863.24,-0.00029
3849.74,-0.00217
3836.24,-0.00039
3822.74,-0.00107
3809.23,-0.00402
3795.73,-0.00362
3782.23,-0.00378
3768.73,-0.00210
3755.23,-0.00028
3741.73,0.00087
3728.23,-0.00149
3714.73,-0.00197
3701.23,-0.00341
3687.72,-0.00132
3674.22,0.00021
3660.72,-0.00423
3647.22,0.00115
3633.72,-0.00277
3620.22,-0.00034
3606.72,-0.00238
3593.22,-0.00275
3579.72,-0.00378
3566.21,0.00101
3552.71,-0.00342
3539.21,-0.00495
3525.71,-0.00196
3512.21,-0.00497
3498.71,-0.00488
3485.21,-0.00504
3471.71,-0.00609
3458.21,-0.00574
3444.7,-0.00509
3431.2,-0.00618
3417.7,-0.00618
3404.2,-0.00623
3390.7,-0.00612
3377.2,-0.00620
3363.7,-0.00589
3350.2,-0.00652
3336.7,-0.00564
3323.2,-0.00612
3309.69,-0.00560
3296.19,-0.00593
3282.69,-0.00571
3269.19,-0.00571
3255.69,-0.00545
3242.19,-0.00533
3228.69,-0.00531
3215.19,-0.00527
3201.69,-0.00508
3188.18,-0.00504
3174.68,-0.00496
3161.18,-0.00508
3147.68,-0.00489
3134.18,-0.00461
3120.68,-0.00418
3107.18,-0.00445
3093.68,-0.00430
3080.18,-0.00407
3066.67,-0.00396
3053.17,-0.00399
3039.67,-0.00410
3026.17,-0.00393
3012.67,-0.00373
2999.17,-0.00390
2985.67,-0.00394
2972.17,-0.00379
2958.67,-0.00360
2945.16,-0.00370
2931.66,-0.00336
2918.16,-0.00318
2904.66,-0.00336
2891.16,-0.00353
2877.66,-0.00353
2864.16,-0.00334
2850.66,-0.00304
2837.16,-0.00324
2823.66,-0.00330
2810.15,-0.00315
2796.65,-0.00317
2783.15,-0.00308
2769.65,-0.00297
2756.15,-0.00297
2742.65,-0.00300
2729.15,-0.00292
2715.65,-0.00287
2702.15,-0.00274
2688.64,-0.00267
2675.14,-0.00262
2661.64,-0.00268
2648.14,-0.00278
2634.64,-0.00279
2621.14,-0.00283
2607.64,-0.00284
2594.14,-0.00257
2580.64,-0.00251
2567.13,-0.00252
2553.63,-0.00258
2540.13,-0.00242
2526.63,-0.00235
2513.13,-0.00228
2499.63,-0.00229
2486.13,-0.00220
2472.63,-0.00212
2459.13,-0.00222
2445.62,-0.00234
2432.12,-0.00196
2418.62,-0.00196
2405.12,-0.00195
2391.62,-0.00195
2378.12,-0.00165
2364.62,-0.00798
2351.12,-0.00402
2337.62,-0.00670
2324.12,-0.00378
2310.61,-0.00112
2297.11,-0.00157
2283.61,-0.00198
2270.11,-0.00214
2256.61,-0.00193
2243.11,-0.00169
2229.61,-0.00200
2216.11,-0.00187
2202.61,-0.00229
2189.1,-0.00267
2175.6,-0.00272
2162.1,-0.00331
2148.6,-0.00181
2135.1,-0.00145
2121.6,-0.00215
2108.1,-0.00237
2094.6,-0.00179
2081.1,-0.00160
2067.59,-0.00112
2054.09,-0.00153
2040.59,-0.00125
2027.09,-0.00105
2013.59,-0.00059
2000.09,-0.00091
1986.59,-0.00068
1973.09,-0.00107
1959.59,-0.00046
1946.08,0.00028
1932.58,-0.00044
1919.08,0.00082
1905.58,-0.00007
1892.08,0.00033
1878.58,-0.00039
1865.08,0.00092
1851.58,0.00003
1838.08,0.00073
1824.57,0.00162
1811.07,0.00166
1797.57,0.00277
1784.07,0.00146
1770.57,0.00390
1757.07,0.00234
1743.57,0.00443
1730.07,0.00309
1716.57,0.00793
1703.07,0.00564
1689.56,0.00327
1676.06,0.00248
1662.56,0.00123
1649.06,0.00441
1635.56,0.00267
1622.06,0.00162
1608.56,0.00032
1595.06,-0.00034
1581.56,-0.00070
1568.05,0.00172
1554.55,0.00531
1541.05,0.01153
1527.55,0.00599
1514.05,0.00623
1500.55,0.00412
1487.05,0.00397
1473.55,0.00588
1460.05,0.00279
1446.54,0.00138
1433.04,0.00236
1419.54,0.00350
1406.04,0.00079
1392.54,0.00139
1379.04,0.00077
1365.54,0.00070
1352.04,-0.00024
1338.54,0.00335
1325.03,-0.00025
1311.53,0.00067
1298.03,-0.00024
1284.53,-0.00008
1271.03,0.00049
1257.53,0.00049
1244.03,-0.00039
1230.53,-0.00035
1217.03,-0.00033
1203.53,-0.00029
1190.02,-0.00021
1176.52,-0.00007
1163.02,-0.00018
1149.52,-0.00049
1136.02,-0.00028
1122.52,-0.00033
1109.02,0.00009
1095.52,0.00051
1082.02,0.00030
1068.51,0.00025
1055.01,0.00024
1041.51,0.00029
1028.01,0.00046
1014.51,0.00069
1001.01,0.00006
987.508,-0.00015
974.007,-0.00038
960.506,-0.00030
947.005,-0.00046
933.503,-0.00027
920.002,-0.00050
906.501,-0.00014
893,-0.00015
879.499,-0.00029
865.998,-0.00025
852.497,0.00029
838.996,0.00036
825.495,0.00074
811.994,0.00070
798.493,0.00126
784.992,-0.00008
771.49,0.00062
757.989,-0.00042
744.488,0.00019
730.987,-0.00039
717.486,0.00016
703.985,0.00043
690.484,0.00024
676.983,-0.00059
663.482,-0.00014
649.981,-0.00037
636.48,0.00077
622.979,-0.00035
609.477,-0.00404
599.834,0.00133