Folder: fsri_materials_database/01_Data/OSB/FTIR/IS (part 2)

File: OSB_IS_REFLECT_MEAS_210623_R6.dpt
5996.41,0.52916
5977.12,0.52168
5957.84,0.52920
5938.55,0.53664
5919.26,0.53182
5899.97,0.52294
5880.69,0.52486
5861.4,0.52518
5842.11,0.52493
5822.82,0.52268
5803.54,0.52411
5784.25,0.52164
5764.96,0.52175
5745.68,0.52792
5726.39,0.52386
5707.1,0.52112
5687.81,0.52222
5668.53,0.52833
5649.24,0.51905
5629.95,0.52269
5610.66,0.52061
5591.38,0.52620
5572.09,0.53163
5552.8,0.53042
5533.52,0.53585
5514.23,0.52896
5494.94,0.52941
5475.65,0.53420
5456.37,0.53921
5437.08,0.54395
5417.79,0.54738
5398.5,0.54767
5379.22,0.54404
5359.93,0.54887
5340.64,0.53306
5321.36,0.52557
5302.07,0.51223
5282.78,0.47278
5263.49,0.42983
5244.21,0.39576
5224.92,0.36920
5205.63,0.36097
5186.34,0.35385
5167.06,0.36180
5147.77,0.37088
5128.48,0.38600
5109.2,0.39245
5089.91,0.39997
5070.62,0.41219
5051.33,0.42433
5032.05,0.43429
5012.76,0.44072
4993.47,0.44546
4974.18,0.44488
4954.9,0.44480
4935.61,0.43274
4916.32,0.42399
4897.04,0.41036
4877.75,0.39965
4858.46,0.38756
4839.17,0.37852
4819.89,0.36940
4800.6,0.36501
4781.31,0.36053
4762.02,0.35820
4742.74,0.35693
4723.45,0.35836
4704.16,0.36102
4684.88,0.36207
4665.59,0.36713
4646.3,0.37277
4627.01,0.38217
4607.73,0.39058
4588.44,0.40024
4569.15,0.40603
4549.87,0.40955
4530.58,0.41577
4511.29,0.41307
4492,0.40713
4472.72,0.39272
4453.43,0.37490
4434.14,0.35427
4414.85,0.33143
4395.57,0.32296
4376.28,0.32681
4356.99,0.33246
4337.71,0.32722
4318.42,0.32138
4299.13,0.31558
4279.84,0.31289
4260.56,0.31438
4241.27,0.31722
4221.98,0.31665
4202.69,0.31584
4183.41,0.31847
4164.12,0.32134
4144.83,0.31788
4125.55,0.30889
4106.26,0.29510
4086.97,0.27973
4067.68,0.26807
4048.4,0.25330
4029.11,0.24252
4009.82,0.23867
3990.53,0.24238
3971.25,0.24635
3951.96,0.25056
3932.67,0.25859
3913.39,0.26615
3894.1,0.27020
3874.81,0.27645
3855.52,0.27796
3836.24,0.28550
3816.95,0.28423
3797.66,0.28352
3778.37,0.28174
3759.09,0.27319
3739.8,0.26005
3720.51,0.24537
3701.23,0.22055
3681.94,0.17831
3662.65,0.12458
3643.36,0.08549
3624.08,0.06529
3604.79,0.05322
3585.5,0.04560
3566.21,0.04056
3546.93,0.03583
3527.64,0.03234
3508.35,0.02974
3489.07,0.02827
3469.78,0.02717
3450.49,0.02596
3431.2,0.02626
3411.92,0.02505
3392.63,0.02687
3373.34,0.02601
3354.05,0.02767
3334.77,0.02802
3315.48,0.03062
3296.19,0.03226
3276.91,0.03341
3257.62,0.03495
3238.33,0.03722
3219.04,0.04061
3199.76,0.04343
3180.47,0.04706
3161.18,0.05042
3141.89,0.05385
3122.61,0.05804
3103.32,0.06211
3084.03,0.06609
3064.75,0.06941
3045.46,0.07414
3026.17,0.07675
3006.88,0.07458
2987.6,0.07002
2968.31,0.05788
2949.02,0.05033
2929.74,0.04681
2910.45,0.04919
2891.16,0.05083
2871.87,0.05384
2852.59,0.05765
2833.3,0.07195
2814.01,0.08622
2794.72,0.09514
2775.44,0.09921
2756.15,0.10318
2736.86,0.10482
2717.58,0.10847
2698.29,0.11436
2679,0.11995
2659.71,0.12497
2640.43,0.12940
2621.14,0.13467
2601.85,0.13870
2582.56,0.14294
2563.28,0.14550
2543.99,0.14676
2524.7,0.15089
2505.42,0.15602
2486.13,0.16399
2466.84,0.16944
2447.55,0.17595
2428.27,0.18200
2408.98,0.18956
2389.69,0.19472
2370.4,0.19052
2351.12,0.18795
2331.83,0.19133
2312.54,0.20280
2293.26,0.20418
2273.97,0.20104
2254.68,0.19750
2235.39,0.19526
2216.11,0.19338
2196.82,0.18858
2177.53,0.18130
2158.24,0.17458
2138.96,0.17128
2119.67,0.17099
2100.38,0.17382
2081.1,0.17445
2061.81,0.17169
2042.52,0.17497
2023.23,0.18205
2003.95,0.18873
1984.66,0.19438
1965.37,0.19961
1946.08,0.20602
1926.8,0.21037
1907.51,0.21231
1888.22,0.21120
1868.94,0.21219
1849.65,0.20571
1830.36,0.19980
1811.07,0.18431
1791.79,0.16289
1772.5,0.12779
1753.21,0.07245
1733.92,0.05613
1714.64,0.06432
1695.35,0.06838
1676.06,0.05629
1656.78,0.04736
1637.49,0.04964
1618.2,0.04873
1598.91,0.04889
1579.63,0.05884
1560.34,0.07975
1541.05,0.07947
1521.76,0.05064
1502.48,0.04350
1483.19,0.04762
1463.9,0.03707
1444.62,0.03854
1425.33,0.03656
1406.04,0.04155
1386.75,0.03748
1367.47,0.03554
1348.18,0.03824
1328.89,0.03707
1309.61,0.03874
1290.32,0.03631
1271.03,0.03284
1251.74,0.03556
1232.46,0.03662
1213.17,0.03724
1193.88,0.03800
1174.59,0.03042
1155.31,0.03190
1136.02,0.02955
1116.73,0.02874
1097.45,0.03159
1078.16,0.03274
1058.87,0.04526
1039.58,0.04698
1020.3,0.05657
1001.01,0.06229
981.722,0.07432
962.434,0.07937
943.147,0.08472
923.86,0.08815
904.573,0.07816
885.285,0.08028
865.998,0.07975
846.711,0.08220
827.424,0.07716
808.136,0.07103
788.849,0.07079
769.562,0.06811
750.274,0.06403
730.987,0.05978
711.7,0.05614
692.413,0.05644
673.125,0.05119
653.838,0.05417
634.551,0.05156
615.264,0.05372
595.976,0.05649
576.689,0.05886
557.402,0.06518
538.115,0.06543
518.827,0.06702
499.54,0.06876
480.253,0.07183
460.966,0.07384
441.678,0.08015
422.391,0.07678
403.104,0.08186
399.246,0.08642

File: OSB_IS_REFLECT_MEAS_210623_R7.dpt
5996.41,0.47993
5977.12,0.47510
5957.84,0.47021
5938.55,0.47024
5919.26,0.47789
5899.97,0.47069
5880.69,0.46477
5861.4,0.47118
5842.11,0.46506
5822.82,0.47470
5803.54,0.46468
5784.25,0.46769
5764.96,0.47200
5745.68,0.46993
5726.39,0.47119
5707.1,0.46560
5687.81,0.46751
5668.53,0.46994
5649.24,0.46601
5629.95,0.47081
5610.66,0.46518
5591.38,0.47312
5572.09,0.47683
5552.8,0.47207
5533.52,0.47714
5514.23,0.47255
5494.94,0.47458
5475.65,0.47689
5456.37,0.48410
5437.08,0.48897
5417.79,0.49021
5398.5,0.49046
5379.22,0.48883
5359.93,0.49228
5340.64,0.47434
5321.36,0.46943
5302.07,0.45253
5282.78,0.41255
5263.49,0.36505
5244.21,0.33205
5224.92,0.30955
5205.63,0.30314
5186.34,0.29823
5167.06,0.30465
5147.77,0.31130
5128.48,0.32666
5109.2,0.32800
5089.91,0.34076
5070.62,0.35092
5051.33,0.36135
5032.05,0.37182
5012.76,0.37720
4993.47,0.38168
4974.18,0.38422
4954.9,0.38373
4935.61,0.37274
4916.32,0.36383
4897.04,0.35195
4877.75,0.34194
4858.46,0.33053
4839.17,0.32109
4819.89,0.31164
4800.6,0.30985
4781.31,0.30656
4762.02,0.30309
4742.74,0.30352
4723.45,0.30456
4704.16,0.30642
4684.88,0.30660
4665.59,0.31082
4646.3,0.31869
4627.01,0.32450
4607.73,0.33428
4588.44,0.34145
4569.15,0.34516
4549.87,0.35155
4530.58,0.35718
4511.29,0.35398
4492,0.34867
4472.72,0.33822
4453.43,0.31771
4434.14,0.29881
4414.85,0.27861
4395.57,0.26973
4376.28,0.27289
4356.99,0.27502
4337.71,0.27394
4318.42,0.26843
4299.13,0.26392
4279.84,0.25934
4260.56,0.26015
4241.27,0.26321
4221.98,0.26309
4202.69,0.26409
4183.41,0.26423
4164.12,0.26858
4144.83,0.26266
4125.55,0.25477
4106.26,0.24390
4086.97,0.22941
4067.68,0.21755
4048.4,0.20364
4029.11,0.19637
4009.82,0.19260
3990.53,0.19594
3971.25,0.19872
3951.96,0.20322
3932.67,0.20965
3913.39,0.21574
3894.1,0.21940
3874.81,0.22384
3855.52,0.22648
3836.24,0.23038
3816.95,0.23098
3797.66,0.22997
3778.37,0.22802
3759.09,0.22089
3739.8,0.21020
3720.51,0.19610
3701.23,0.17357
3681.94,0.13707
3662.65,0.09365
3643.36,0.06500
3624.08,0.05086
3604.79,0.04232
3585.5,0.03727
3566.21,0.03491
3546.93,0.03070
3527.64,0.02837
3508.35,0.02722
3489.07,0.02587
3469.78,0.02535
3450.49,0.02442
3431.2,0.02427
3411.92,0.02428
3392.63,0.02433
3373.34,0.02516
3354.05,0.02567
3334.77,0.02802
3315.48,0.02834
3296.19,0.02874
3276.91,0.03033
3257.62,0.03172
3238.33,0.03362
3219.04,0.03551
3199.76,0.03748
3180.47,0.03982
3161.18,0.04250
3141.89,0.04378
3122.61,0.04665
3103.32,0.04941
3084.03,0.05302
3064.75,0.05485
3045.46,0.05715
3026.17,0.05884
3006.88,0.05758
2987.6,0.05533
2968.31,0.04781
2949.02,0.04382
2929.74,0.04154
2910.45,0.04186
2891.16,0.04293
2871.87,0.04599
2852.59,0.04882
2833.3,0.05736
2814.01,0.06594
2794.72,0.07177
2775.44,0.07530
2756.15,0.07709
2736.86,0.07818
2717.58,0.08129
2698.29,0.08538
2679,0.08908
2659.71,0.09289
2640.43,0.09552
2621.14,0.09949
2601.85,0.10225
2582.56,0.10576
2563.28,0.10706
2543.99,0.10874
2524.7,0.11148
2505.42,0.11614
2486.13,0.12137
2466.84,0.12525
2447.55,0.13039
2428.27,0.13460
2408.98,0.14052
2389.69,0.14442
2370.4,0.14158
2351.12,0.14186
2331.83,0.14402
2312.54,0.15242
2293.26,0.15275
2273.97,0.15106
2254.68,0.14888
2235.39,0.14725
2216.11,0.14608
2196.82,0.14323
2177.53,0.13799
2158.24,0.13337
2138.96,0.13027
2119.67,0.13070
2100.38,0.13208
2081.1,0.13303
2061.81,0.13146
2042.52,0.13302
2023.23,0.13806
2003.95,0.14354
1984.66,0.14760
1965.37,0.15151
1946.08,0.15576
1926.8,0.15888
1907.51,0.16042
1888.22,0.15887
1868.94,0.15871
1849.65,0.15356
1830.36,0.14719
1811.07,0.13614
1791.79,0.11905
1772.5,0.09472
1753.21,0.05691
1733.92,0.04527
1714.64,0.04974
1695.35,0.05091
1676.06,0.04429
1656.78,0.03779
1637.49,0.03934
1618.2,0.03827
1598.91,0.03846
1579.63,0.04542
1560.34,0.06097
1541.05,0.06280
1521.76,0.03948
1502.48,0.03551
1483.19,0.03712
1463.9,0.03134
1444.62,0.03244
1425.33,0.03113
1406.04,0.03430
1386.75,0.03151
1367.47,0.03121
1348.18,0.03260
1328.89,0.03192
1309.61,0.03251
1290.32,0.03202
1271.03,0.02930
1251.74,0.03237
1232.46,0.03226
1213.17,0.03445
1193.88,0.03510
1174.59,0.02812
1155.31,0.03021
1136.02,0.02782
1116.73,0.02801
1097.45,0.02954
1078.16,0.03021
1058.87,0.03911
1039.58,0.04161
1020.3,0.04812
1001.01,0.05131
981.722,0.05919
962.434,0.06416
943.147,0.06636
923.86,0.06935
904.573,0.06220
885.285,0.06414
865.998,0.06399
846.711,0.06439
827.424,0.05878
808.136,0.05422
788.849,0.05468
769.562,0.05274
750.274,0.05086
730.987,0.04932
711.7,0.04603
692.413,0.04478
673.125,0.04356
653.838,0.04733
634.551,0.04370
615.264,0.04362
595.976,0.04899
576.689,0.05364
557.402,0.05154
538.115,0.05547
518.827,0.05517
499.54,0.05965
480.253,0.05780
460.966,0.06236
441.678,0.06394
422.391,0.06406
403.104,0.05955
399.246,0.06500