Folder: fsri_materials_database/01_Data/OSB/FTIR/IS

Note: 01_Data/README.md
# Materials and Products Database
## 01_Data

Raw data generated from each apparatus are included here in plain-text format. The data is organized first by material, next by the short name of test apparatus used, and where applicable additional filtering by test settings.

### material.json

Each material directory contains a json file of the same name as the material. This file links the data stored in the repository as well as data and graphs produced by the accompanying scripts (__02_Scripts__) to the respective landing page for the material on the front-end website.

File: OSB_IS_REFLECT_MEAS_210623_R1.dpt
5996.41,0.47369
5977.12,0.46747
5957.84,0.47681
5938.55,0.48475
5919.26,0.47651
5899.97,0.46185
5880.69,0.47332
5861.4,0.47117
5842.11,0.46639
5822.82,0.46702
5803.54,0.46412
5784.25,0.46336
5764.96,0.46532
5745.68,0.46395
5726.39,0.46439
5707.1,0.46128
5687.81,0.46087
5668.53,0.45933
5649.24,0.45959
5629.95,0.45791
5610.66,0.45725
5591.38,0.46307
5572.09,0.46923
5552.8,0.46755
5533.52,0.47197
5514.23,0.47305
5494.94,0.47013
5475.65,0.47450
5456.37,0.47845
5437.08,0.47961
5417.79,0.48284
5398.5,0.48346
5379.22,0.48056
5359.93,0.48758
5340.64,0.46682
5321.36,0.46299
5302.07,0.44405
5282.78,0.40695
5263.49,0.36083
5244.21,0.32922
5224.92,0.30713
5205.63,0.29824
5186.34,0.29429
5167.06,0.29846
5147.77,0.30657
5128.48,0.32114
5109.2,0.32870
5089.91,0.33542
5070.62,0.34413
5051.33,0.35588
5032.05,0.35956
5012.76,0.37195
4993.47,0.37527
4974.18,0.37922
4954.9,0.37516
4935.61,0.36530
4916.32,0.35709
4897.04,0.34792
4877.75,0.33491
4858.46,0.32445
4839.17,0.31279
4819.89,0.30582
4800.6,0.30046
4781.31,0.29832
4762.02,0.29329
4742.74,0.29565
4723.45,0.29921
4704.16,0.30145
4684.88,0.30225
4665.59,0.30690
4646.3,0.30904
4627.01,0.31901
4607.73,0.32505
4588.44,0.33485
4569.15,0.34033
4549.87,0.34749
4530.58,0.35091
4511.29,0.34935
4492,0.34564
4472.72,0.33338
4453.43,0.31432
4434.14,0.29476
4414.85,0.27541
4395.57,0.26730
4376.28,0.27127
4356.99,0.27456
4337.71,0.27072
4318.42,0.26403
4299.13,0.25919
4279.84,0.25650
4260.56,0.25733
4241.27,0.26064
4221.98,0.26163
4202.69,0.26086
4183.41,0.26182
4164.12,0.26414
4144.83,0.26021
4125.55,0.25310
4106.26,0.23975
4086.97,0.22765
4067.68,0.21355
4048.4,0.19815
4029.11,0.19192
4009.82,0.18901
3990.53,0.19256
3971.25,0.19490
3951.96,0.19980
3932.67,0.20687
3913.39,0.21262
3894.1,0.21617
3874.81,0.22080
3855.52,0.22201
3836.24,0.23007
3816.95,0.22726
3797.66,0.22824
3778.37,0.22608
3759.09,0.21849
3739.8,0.20612
3720.51,0.19554
3701.23,0.17270
3681.94,0.13654
3662.65,0.09343
3643.36,0.06556
3624.08,0.04972
3604.79,0.04212
3585.5,0.03606
3566.21,0.03380
3546.93,0.02991
3527.64,0.02972
3508.35,0.02705
3489.07,0.02580
3469.78,0.02474
3450.49,0.02352
3431.2,0.02395
3411.92,0.02481
3392.63,0.02563
3373.34,0.02483
3354.05,0.02598
3334.77,0.02661
3315.48,0.02802
3296.19,0.02811
3276.91,0.02998
3257.62,0.03200
3238.33,0.03327
3219.04,0.03412
3199.76,0.03650
3180.47,0.03860
3161.18,0.04071
3141.89,0.04251
3122.61,0.04483
3103.32,0.04855
3084.03,0.04993
3064.75,0.05334
3045.46,0.05576
3026.17,0.05687
3006.88,0.05647
2987.6,0.05358
2968.31,0.04520
2949.02,0.04024
2929.74,0.03896
2910.45,0.03983
2891.16,0.03979
2871.87,0.04325
2852.59,0.04588
2833.3,0.05467
2814.01,0.06371
2794.72,0.06992
2775.44,0.07304
2756.15,0.07472
2736.86,0.07648
2717.58,0.07833
2698.29,0.08307
2679,0.08759
2659.71,0.09125
2640.43,0.09436
2621.14,0.09889
2601.85,0.10231
2582.56,0.10445
2563.28,0.10618
2543.99,0.10781
2524.7,0.11036
2505.42,0.11430
2486.13,0.12018
2466.84,0.12545
2447.55,0.12997
2428.27,0.13572
2408.98,0.14078
2389.69,0.14447
2370.4,0.14226
2351.12,0.14243
2331.83,0.14364
2312.54,0.15134
2293.26,0.15311
2273.97,0.15191
2254.68,0.14825
2235.39,0.14711
2216.11,0.14562
2196.82,0.14266
2177.53,0.13690
2158.24,0.13179
2138.96,0.12930
2119.67,0.12962
2100.38,0.13105
2081.1,0.13294
2061.81,0.13108
2042.52,0.13305
2023.23,0.13902
2003.95,0.14486
1984.66,0.14903
1965.37,0.15318
1946.08,0.15834
1926.8,0.16237
1907.51,0.16367
1888.22,0.16291
1868.94,0.16268
1849.65,0.15707
1830.36,0.15175
1811.07,0.13833
1791.79,0.12172
1772.5,0.09618
1753.21,0.05786
1733.92,0.04703
1714.64,0.04917
1695.35,0.05186
1676.06,0.04346
1656.78,0.03814
1637.49,0.04064
1618.2,0.03931
1598.91,0.03774
1579.63,0.04573
1560.34,0.05930
1541.05,0.06222
1521.76,0.04004
1502.48,0.03514
1483.19,0.03619
1463.9,0.03090
1444.62,0.03136
1425.33,0.02998
1406.04,0.03313
1386.75,0.03099
1367.47,0.02989
1348.18,0.03146
1328.89,0.02972
1309.61,0.03073
1290.32,0.03003
1271.03,0.02737
1251.74,0.03048
1232.46,0.03009
1213.17,0.03144
1193.88,0.03195
1174.59,0.02624
1155.31,0.02748
1136.02,0.02566
1116.73,0.02430
1097.45,0.02576
1078.16,0.02821
1058.87,0.03962
1039.58,0.03913
1020.3,0.04692
1001.01,0.04681
981.722,0.05467
962.434,0.05815
943.147,0.06243
923.86,0.06433
904.573,0.05712
885.285,0.05872
865.998,0.05582
846.711,0.05756
827.424,0.05445
808.136,0.04891
788.849,0.04868
769.562,0.04675
750.274,0.04349
730.987,0.04457
711.7,0.03898
692.413,0.03766
673.125,0.03649
653.838,0.03972
634.551,0.03775
615.264,0.03913
595.976,0.04439
576.689,0.04126
557.402,0.04805
538.115,0.04739
518.827,0.05214
499.54,0.05017
480.253,0.05538
460.966,0.05190
441.678,0.05549
422.391,0.04400
403.104,0.04993
399.246,0.04862

File: OSB_IS_REFLECT_MEAS_210623_R2.dpt
5996.41,0.45695
5977.12,0.45054
5957.84,0.45070
5938.55,0.45230
5919.26,0.45874
5899.97,0.44972
5880.69,0.44798
5861.4,0.44868
5842.11,0.44703
5822.82,0.44415
5803.54,0.43922
5784.25,0.44251
5764.96,0.44057
5745.68,0.45115
5726.39,0.45639
5707.1,0.44112
5687.81,0.44603
5668.53,0.43893
5649.24,0.44045
5629.95,0.44485
5610.66,0.44279
5591.38,0.44527
5572.09,0.44526
5552.8,0.45206
5533.52,0.45002
5514.23,0.44930
5494.94,0.44448
5475.65,0.45236
5456.37,0.46200
5437.08,0.46072
5417.79,0.46902
5398.5,0.46352
5379.22,0.46506
5359.93,0.46649
5340.64,0.44957
5321.36,0.44272
5302.07,0.42450
5282.78,0.39381
5263.49,0.34594
5244.21,0.31294
5224.92,0.29218
5205.63,0.28189
5186.34,0.27972
5167.06,0.28318
5147.77,0.29311
5128.48,0.30075
5109.2,0.31127
5089.91,0.32115
5070.62,0.32864
5051.33,0.34073
5032.05,0.34684
5012.76,0.35375
4993.47,0.36044
4974.18,0.35872
4954.9,0.35530
4935.61,0.34728
4916.32,0.33799
4897.04,0.32590
4877.75,0.31291
4858.46,0.30218
4839.17,0.29460
4819.89,0.28386
4800.6,0.28062
4781.31,0.27582
4762.02,0.27284
4742.74,0.27447
4723.45,0.27474
4704.16,0.27608
4684.88,0.27978
4665.59,0.28453
4646.3,0.28801
4627.01,0.29743
4607.73,0.30690
4588.44,0.31304
4569.15,0.31981
4549.87,0.32374
4530.58,0.32835
4511.29,0.32771
4492,0.32320
4472.72,0.31111
4453.43,0.29562
4434.14,0.27538
4414.85,0.25531
4395.57,0.24817
4376.28,0.25108
4356.99,0.25627
4337.71,0.25189
4318.42,0.24735
4299.13,0.24375
4279.84,0.23837
4260.56,0.24121
4241.27,0.24244
4221.98,0.24298
4202.69,0.24304
4183.41,0.24354
4164.12,0.24614
4144.83,0.24221
4125.55,0.23408
4106.26,0.22392
4086.97,0.21022
4067.68,0.19818
4048.4,0.18496
4029.11,0.17687
4009.82,0.17523
3990.53,0.17880
3971.25,0.18151
3951.96,0.18424
3932.67,0.19176
3913.39,0.19757
3894.1,0.20254
3874.81,0.20619
3855.52,0.20479
3836.24,0.21510
3816.95,0.21289
3797.66,0.21209
3778.37,0.21051
3759.09,0.20407
3739.8,0.19417
3720.51,0.18309
3701.23,0.16320
3681.94,0.13062
3662.65,0.09173
3643.36,0.06396
3624.08,0.04990
3604.79,0.04360
3585.5,0.03769
3566.21,0.03269
3546.93,0.02990
3527.64,0.02811
3508.35,0.02666
3489.07,0.02527
3469.78,0.02453
3450.49,0.02356
3431.2,0.02439
3411.92,0.02418
3392.63,0.02581
3373.34,0.02539
3354.05,0.02691
3334.77,0.02832
3315.48,0.02779
3296.19,0.02977
3276.91,0.03157
3257.62,0.03291
3238.33,0.03370
3219.04,0.03531
3199.76,0.03717
3180.47,0.03973
3161.18,0.04165
3141.89,0.04423
3122.61,0.04717
3103.32,0.04856
3084.03,0.05129
3064.75,0.05383
3045.46,0.05577
3026.17,0.05851
3006.88,0.05697
2987.6,0.05359
2968.31,0.04537
2949.02,0.04170
2929.74,0.03921
2910.45,0.03976
2891.16,0.04148
2871.87,0.04292
2852.59,0.04708
2833.3,0.05429
2814.01,0.06301
2794.72,0.06834
2775.44,0.07104
2756.15,0.07314
2736.86,0.07419
2717.58,0.07678
2698.29,0.08071
2679,0.08438
2659.71,0.08772
2640.43,0.09062
2621.14,0.09435
2601.85,0.09729
2582.56,0.09934
2563.28,0.10107
2543.99,0.10217
2524.7,0.10480
2505.42,0.10819
2486.13,0.11380
2466.84,0.11783
2447.55,0.12216
2428.27,0.12757
2408.98,0.13234
2389.69,0.13637
2370.4,0.13243
2351.12,0.13244
2331.83,0.13584
2312.54,0.14315
2293.26,0.14419
2273.97,0.14265
2254.68,0.14027
2235.39,0.13838
2216.11,0.13763
2196.82,0.13461
2177.53,0.12973
2158.24,0.12445
2138.96,0.12167
2119.67,0.12240
2100.38,0.12368
2081.1,0.12510
2061.81,0.12397
2042.52,0.12562
2023.23,0.13074
2003.95,0.13595
1984.66,0.14011
1965.37,0.14399
1946.08,0.14908
1926.8,0.15243
1907.51,0.15361
1888.22,0.15314
1868.94,0.15278
1849.65,0.14808
1830.36,0.14313
1811.07,0.13265
1791.79,0.11702
1772.5,0.09351
1753.21,0.05776
1733.92,0.04733
1714.64,0.05003
1695.35,0.05333
1676.06,0.04632
1656.78,0.04093
1637.49,0.04203
1618.2,0.04128
1598.91,0.04002
1579.63,0.04760
1560.34,0.06100
1541.05,0.06232
1521.76,0.03966
1502.48,0.03593
1483.19,0.03865
1463.9,0.03191
1444.62,0.03364
1425.33,0.03141
1406.04,0.03542
1386.75,0.03184
1367.47,0.03141
1348.18,0.03290
1328.89,0.03129
1309.61,0.03275
1290.32,0.03081
1271.03,0.03030
1251.74,0.03218
1232.46,0.03230
1213.17,0.03390
1193.88,0.03372
1174.59,0.02720
1155.31,0.02879
1136.02,0.02717
1116.73,0.02574
1097.45,0.02896
1078.16,0.02935
1058.87,0.04290
1039.58,0.04479
1020.3,0.05181
1001.01,0.05316
981.722,0.05879
962.434,0.06341
943.147,0.06647
923.86,0.06792
904.573,0.06105
885.285,0.06205
865.998,0.06250
846.711,0.06342
827.424,0.05799
808.136,0.05245
788.849,0.05374
769.562,0.05059
750.274,0.04674
730.987,0.04448
711.7,0.04223
692.413,0.03922
673.125,0.04120
653.838,0.04260
634.551,0.04116
615.264,0.04186
595.976,0.04163
576.689,0.04727
557.402,0.04672
538.115,0.04178
518.827,0.05408
499.54,0.05284
480.253,0.05709
460.966,0.04808
441.678,0.05005
422.391,0.05680
403.104,0.04952
399.246,0.04281

File: OSB_IS_REFLECT_MEAS_210623_R3.dpt
5996.41,0.47884
5977.12,0.47601
5957.84,0.47207
5938.55,0.47709
5919.26,0.47728
5899.97,0.46819
5880.69,0.47263
5861.4,0.47296
5842.11,0.46970
5822.82,0.47030
5803.54,0.46636
5784.25,0.47078
5764.96,0.47133
5745.68,0.47546
5726.39,0.47086
5707.1,0.46931
5687.81,0.46565
5668.53,0.46360
5649.24,0.46448
5629.95,0.46977
5610.66,0.46335
5591.38,0.47007
5572.09,0.47577
5552.8,0.47441
5533.52,0.47502
5514.23,0.47647
5494.94,0.47552
5475.65,0.48283
5456.37,0.48167
5437.08,0.48524
5417.79,0.49246
5398.5,0.48779
5379.22,0.48879
5359.93,0.49447
5340.64,0.47400
5321.36,0.46863
5302.07,0.44521
5282.78,0.40792
5263.49,0.36726
5244.21,0.33431
5224.92,0.31136
5205.63,0.29748
5186.34,0.29449
5167.06,0.30036
5147.77,0.31423
5128.48,0.32070
5109.2,0.32550
5089.91,0.33697
5070.62,0.34947
5051.33,0.36054
5032.05,0.36611
5012.76,0.37620
4993.47,0.37929
4974.18,0.37887
4954.9,0.38084
4935.61,0.36994
4916.32,0.35949
4897.04,0.35077
4877.75,0.33884
4858.46,0.32753
4839.17,0.31740
4819.89,0.30891
4800.6,0.30471
4781.31,0.30259
4762.02,0.29735
4742.74,0.29643
4723.45,0.29899
4704.16,0.30240
4684.88,0.30385
4665.59,0.30793
4646.3,0.31577
4627.01,0.32260
4607.73,0.33066
4588.44,0.33881
4569.15,0.34477
4549.87,0.35054
4530.58,0.35350
4511.29,0.35275
4492,0.34832
4472.72,0.33794
4453.43,0.31851
4434.14,0.29912
4414.85,0.27977
4395.57,0.27127
4376.28,0.27388
4356.99,0.27924
4337.71,0.27579
4318.42,0.26764
4299.13,0.26520
4279.84,0.25941
4260.56,0.26002
4241.27,0.26274
4221.98,0.26387
4202.69,0.26469
4183.41,0.26386
4164.12,0.26764
4144.83,0.26273
4125.55,0.25371
4106.26,0.24216
4086.97,0.22790
4067.68,0.21743
4048.4,0.20200
4029.11,0.19442
4009.82,0.19197
3990.53,0.19441
3971.25,0.19757
3951.96,0.20179
3932.67,0.20979
3913.39,0.21591
3894.1,0.22002
3874.81,0.22534
3855.52,0.22696
3836.24,0.23424
3816.95,0.23348
3797.66,0.22974
3778.37,0.22831
3759.09,0.22197
3739.8,0.21070
3720.51,0.19842
3701.23,0.17406
3681.94,0.13894
3662.65,0.09617
3643.36,0.06604
3624.08,0.05179
3604.79,0.04377
3585.5,0.03671
3566.21,0.03292
3546.93,0.03052
3527.64,0.02865
3508.35,0.02765
3489.07,0.02594
3469.78,0.02512
3450.49,0.02466
3431.2,0.02386
3411.92,0.02420
3392.63,0.02482
3373.34,0.02638
3354.05,0.02626
3334.77,0.02772
3315.48,0.02931
3296.19,0.03000
3276.91,0.03064
3257.62,0.03235
3238.33,0.03326
3219.04,0.03437
3199.76,0.03697
3180.47,0.03937
3161.18,0.04080
3141.89,0.04416
3122.61,0.04620
3103.32,0.04862
3084.03,0.05180
3064.75,0.05449
3045.46,0.05711
3026.17,0.05852
3006.88,0.05770
2987.6,0.05496
2968.31,0.04647
2949.02,0.04195
2929.74,0.03995
2910.45,0.04042
2891.16,0.04194
2871.87,0.04312
2852.59,0.04650
2833.3,0.05582
2814.01,0.06605
2794.72,0.07207
2775.44,0.07546
2756.15,0.07669
2736.86,0.07781
2717.58,0.08096
2698.29,0.08566
2679,0.09033
2659.71,0.09407
2640.43,0.09748
2621.14,0.10203
2601.85,0.10460
2582.56,0.10818
2563.28,0.11005
2543.99,0.11067
2524.7,0.11419
2505.42,0.11846
2486.13,0.12425
2466.84,0.12954
2447.55,0.13414
2428.27,0.13889
2408.98,0.14612
2389.69,0.14961
2370.4,0.14717
2351.12,0.14747
2331.83,0.14951
2312.54,0.15654
2293.26,0.15837
2273.97,0.15669
2254.68,0.15333
2235.39,0.15133
2216.11,0.15002
2196.82,0.14674
2177.53,0.14040
2158.24,0.13592
2138.96,0.13304
2119.67,0.13245
2100.38,0.13506
2081.1,0.13620
2061.81,0.13491
2042.52,0.13682
2023.23,0.14294
2003.95,0.14930
1984.66,0.15318
1965.37,0.15790
1946.08,0.16302
1926.8,0.16681
1907.51,0.16751
1888.22,0.16684
1868.94,0.16722
1849.65,0.16158
1830.36,0.15569
1811.07,0.14207
1791.79,0.12412
1772.5,0.09732
1753.21,0.05783
1733.92,0.04695
1714.64,0.05041
1695.35,0.05279
1676.06,0.04439
1656.78,0.03880
1637.49,0.04038
1618.2,0.04045
1598.91,0.03916
1579.63,0.04671
1560.34,0.05996
1541.05,0.05997
1521.76,0.04258
1502.48,0.03704
1483.19,0.03761
1463.9,0.03111
1444.62,0.03267
1425.33,0.03071
1406.04,0.03390
1386.75,0.03077
1367.47,0.03037
1348.18,0.03200
1328.89,0.03137
1309.61,0.03221
1290.32,0.03056
1271.03,0.02895
1251.74,0.03002
1232.46,0.03058
1213.17,0.03172
1193.88,0.03199
1174.59,0.02634
1155.31,0.02764
1136.02,0.02521
1116.73,0.02362
1097.45,0.02684
1078.16,0.02785
1058.87,0.04132
1039.58,0.04251
1020.3,0.04791
1001.01,0.05029
981.722,0.05656
962.434,0.06219
943.147,0.06484
923.86,0.06746
904.573,0.05971
885.285,0.06075
865.998,0.06082
846.711,0.05992
827.424,0.05481
808.136,0.04978
788.849,0.04975
769.562,0.04766
750.274,0.04624
730.987,0.04333
711.7,0.04037
692.413,0.03994
673.125,0.03772
653.838,0.04022
634.551,0.04005
615.264,0.04118
595.976,0.04260
576.689,0.04458
557.402,0.04508
538.115,0.04705
518.827,0.05638
499.54,0.05270
480.253,0.06063
460.966,0.05479
441.678,0.04763
422.391,0.07009
403.104,0.08090
399.246,0.08943

File: OSB_IS_REFLECT_MEAS_210623_R4.dpt
5996.41,0.44809
5977.12,0.44854
5957.84,0.44238
5938.55,0.45447
5919.26,0.44498
5899.97,0.43918
5880.69,0.44073
5861.4,0.44023
5842.11,0.44942
5822.82,0.44252
5803.54,0.43879
5784.25,0.44558
5764.96,0.44064
5745.68,0.45066
5726.39,0.44510
5707.1,0.44090
5687.81,0.44226
5668.53,0.43613
5649.24,0.43679
5629.95,0.44501
5610.66,0.43777
5591.38,0.44179
5572.09,0.44835
5552.8,0.44883
5533.52,0.45055
5514.23,0.44737
5494.94,0.44373
5475.65,0.44739
5456.37,0.45498
5437.08,0.46314
5417.79,0.46285
5398.5,0.46399
5379.22,0.46260
5359.93,0.46958
5340.64,0.44994
5321.36,0.44196
5302.07,0.42724
5282.78,0.39146
5263.49,0.34685
5244.21,0.31688
5224.92,0.29336
5205.63,0.28630
5186.34,0.28324
5167.06,0.29100
5147.77,0.29796
5128.48,0.30766
5109.2,0.31488
5089.91,0.32211
5070.62,0.33710
5051.33,0.34319
5032.05,0.35039
5012.76,0.35776
4993.47,0.36360
4974.18,0.36321
4954.9,0.36103
4935.61,0.35435
4916.32,0.34148
4897.04,0.33449
4877.75,0.31856
4858.46,0.31247
4839.17,0.30020
4819.89,0.29326
4800.6,0.28803
4781.31,0.28493
4762.02,0.28346
4742.74,0.28235
4723.45,0.28162
4704.16,0.28494
4684.88,0.28745
4665.59,0.29079
4646.3,0.29711
4627.01,0.30588
4607.73,0.31272
4588.44,0.31864
4569.15,0.32681
4549.87,0.33199
4530.58,0.33535
4511.29,0.33409
4492,0.32803
4472.72,0.31981
4453.43,0.30051
4434.14,0.28201
4414.85,0.26279
4395.57,0.25329
4376.28,0.25675
4356.99,0.26139
4337.71,0.25814
4318.42,0.25188
4299.13,0.24770
4279.84,0.24581
4260.56,0.24650
4241.27,0.24879
4221.98,0.24836
4202.69,0.24979
4183.41,0.24894
4164.12,0.25272
4144.83,0.24650
4125.55,0.24066
4106.26,0.22895
4086.97,0.21565
4067.68,0.20481
4048.4,0.19187
4029.11,0.18328
4009.82,0.18187
3990.53,0.18463
3971.25,0.18766
3951.96,0.19161
3932.67,0.19891
3913.39,0.20359
3894.1,0.20976
3874.81,0.21331
3855.52,0.21620
3836.24,0.22097
3816.95,0.22120
3797.66,0.22052
3778.37,0.21732
3759.09,0.21194
3739.8,0.20245
3720.51,0.18960
3701.23,0.16836
3681.94,0.13372
3662.65,0.09305
3643.36,0.06338
3624.08,0.04727
3604.79,0.03872
3585.5,0.03279
3566.21,0.02960
3546.93,0.02675
3527.64,0.02538
3508.35,0.02334
3489.07,0.02184
3469.78,0.02142
3450.49,0.02024
3431.2,0.02072
3411.92,0.02054
3392.63,0.02001
3373.34,0.02136
3354.05,0.02181
3334.77,0.02317
3315.48,0.02524
3296.19,0.02479
3276.91,0.02543
3257.62,0.02799
3238.33,0.02887
3219.04,0.03037
3199.76,0.03206
3180.47,0.03362
3161.18,0.03662
3141.89,0.03950
3122.61,0.04196
3103.32,0.04450
3084.03,0.04651
3064.75,0.04937
3045.46,0.05220
3026.17,0.05380
3006.88,0.05238
2987.6,0.04920
2968.31,0.04047
2949.02,0.03690
2929.74,0.03440
2910.45,0.03505
2891.16,0.03606
2871.87,0.03813
2852.59,0.04046
2833.3,0.04997
2814.01,0.06023
2794.72,0.06590
2775.44,0.06963
2756.15,0.07187
2736.86,0.07245
2717.58,0.07479
2698.29,0.07936
2679,0.08362
2659.71,0.08660
2640.43,0.08973
2621.14,0.09316
2601.85,0.09638
2582.56,0.09914
2563.28,0.10094
2543.99,0.10214
2524.7,0.10564
2505.42,0.10905
2486.13,0.11484
2466.84,0.11938
2447.55,0.12392
2428.27,0.12920
2408.98,0.13456
2389.69,0.13915
2370.4,0.13535
2351.12,0.13769
2331.83,0.13921
2312.54,0.14720
2293.26,0.14729
2273.97,0.14642
2254.68,0.14389
2235.39,0.14177
2216.11,0.14099
2196.82,0.13783
2177.53,0.13204
2158.24,0.12754
2138.96,0.12457
2119.67,0.12505
2100.38,0.12720
2081.1,0.12802
2061.81,0.12628
2042.52,0.12832
2023.23,0.13346
2003.95,0.13906
1984.66,0.14324
1965.37,0.14698
1946.08,0.15191
1926.8,0.15504
1907.51,0.15607
1888.22,0.15600
1868.94,0.15578
1849.65,0.15050
1830.36,0.14539
1811.07,0.13310
1791.79,0.11607
1772.5,0.09119
1753.21,0.05394
1733.92,0.04234
1714.64,0.04670
1695.35,0.04783
1676.06,0.04071
1656.78,0.03491
1637.49,0.03557
1618.2,0.03588
1598.91,0.03553
1579.63,0.04296
1560.34,0.05775
1541.05,0.05663
1521.76,0.03625
1502.48,0.03165
1483.19,0.03476
1463.9,0.02793
1444.62,0.02843
1425.33,0.02714
1406.04,0.03040
1386.75,0.02780
1367.47,0.02618
1348.18,0.02876
1328.89,0.02674
1309.61,0.02774
1290.32,0.02649
1271.03,0.02517
1251.74,0.02655
1232.46,0.02760
1213.17,0.02766
1193.88,0.02904
1174.59,0.02339
1155.31,0.02440
1136.02,0.02197
1116.73,0.02226
1097.45,0.02297
1078.16,0.02461
1058.87,0.03341
1039.58,0.03523
1020.3,0.04195
1001.01,0.04304
981.722,0.05046
962.434,0.05334
943.147,0.05918
923.86,0.06062
904.573,0.05253
885.285,0.05387
865.998,0.05413
846.711,0.05634
827.424,0.05050
808.136,0.04593
788.849,0.04703
769.562,0.04310
750.274,0.04179
730.987,0.03946
711.7,0.03673
692.413,0.03589
673.125,0.03461
653.838,0.03583
634.551,0.03617
615.264,0.03495
595.976,0.03726
576.689,0.04080
557.402,0.03989
538.115,0.04210
518.827,0.04564
499.54,0.05116
480.253,0.05264
460.966,0.04164
441.678,0.04775
422.391,0.06360
403.104,0.06618
399.246,0.05998

File: OSB_IS_REFLECT_MEAS_210623_R5.dpt
5996.41,0.53286
5977.12,0.52023
5957.84,0.52459
5938.55,0.52808
5919.26,0.52974
5899.97,0.52030
5880.69,0.52158
5861.4,0.52877
5842.11,0.52205
5822.82,0.51727
5803.54,0.51635
5784.25,0.51590
5764.96,0.51915
5745.68,0.52182
5726.39,0.52374
5707.1,0.52147
5687.81,0.51964
5668.53,0.51893
5649.24,0.51923
5629.95,0.51616
5610.66,0.51715
5591.38,0.51928
5572.09,0.53038
5552.8,0.52434
5533.52,0.52909
5514.23,0.52666
5494.94,0.52615
5475.65,0.53115
5456.37,0.54106
5437.08,0.53905
5417.79,0.54520
5398.5,0.54239
5379.22,0.54431
5359.93,0.54761
5340.64,0.53157
5321.36,0.52645
5302.07,0.51196
5282.78,0.47559
5263.49,0.42520
5244.21,0.39305
5224.92,0.36868
5205.63,0.35653
5186.34,0.35339
5167.06,0.35910
5147.77,0.36823
5128.48,0.38236
5109.2,0.38831
5089.91,0.39820
5070.62,0.40804
5051.33,0.42009
5032.05,0.42884
5012.76,0.43749
4993.47,0.44413
4974.18,0.44283
4954.9,0.44015
4935.61,0.43130
4916.32,0.42001
4897.04,0.40535
4877.75,0.39586
4858.46,0.38760
4839.17,0.37159
4819.89,0.36716
4800.6,0.36262
4781.31,0.36027
4762.02,0.35561
4742.74,0.35488
4723.45,0.35475
4704.16,0.35758
4684.88,0.35889
4665.59,0.36249
4646.3,0.36981
4627.01,0.37888
4607.73,0.38760
4588.44,0.39481
4569.15,0.40228
4549.87,0.40598
4530.58,0.41202
4511.29,0.41120
4492,0.40530
4472.72,0.39230
4453.43,0.37069
4434.14,0.35083
4414.85,0.33182
4395.57,0.32072
4376.28,0.32341
4356.99,0.32924
4337.71,0.32435
4318.42,0.31838
4299.13,0.31463
4279.84,0.30911
4260.56,0.31105
4241.27,0.31254
4221.98,0.31430
4202.69,0.31459
4183.41,0.31433
4164.12,0.31833
4144.83,0.31339
4125.55,0.30508
4106.26,0.29245
4086.97,0.27735
4067.68,0.26388
4048.4,0.24953
4029.11,0.23858
4009.82,0.23475
3990.53,0.23949
3971.25,0.24244
3951.96,0.24772
3932.67,0.25586
3913.39,0.26259
3894.1,0.26964
3874.81,0.27238
3855.52,0.27383
3836.24,0.28186
3816.95,0.28269
3797.66,0.28251
3778.37,0.27919
3759.09,0.27170
3739.8,0.25979
3720.51,0.24411
3701.23,0.21736
3681.94,0.17506
3662.65,0.12123
3643.36,0.08397
3624.08,0.06368
3604.79,0.05274
3585.5,0.04458
3566.21,0.03921
3546.93,0.03490
3527.64,0.03243
3508.35,0.03047
3489.07,0.02818
3469.78,0.02688
3450.49,0.02642
3431.2,0.02561
3411.92,0.02638
3392.63,0.02695
3373.34,0.02742
3354.05,0.02715
3334.77,0.02938
3315.48,0.03158
3296.19,0.03273
3276.91,0.03364
3257.62,0.03598
3238.33,0.03786
3219.04,0.04036
3199.76,0.04375
3180.47,0.04550
3161.18,0.04869
3141.89,0.05200
3122.61,0.05586
3103.32,0.05962
3084.03,0.06225
3064.75,0.06644
3045.46,0.06964
3026.17,0.07201
3006.88,0.07004
2987.6,0.06674
2968.31,0.05503
2949.02,0.04868
2929.74,0.04647
2910.45,0.04792
2891.16,0.04989
2871.87,0.05297
2852.59,0.05619
2833.3,0.06862
2814.01,0.08235
2794.72,0.09014
2775.44,0.09501
2756.15,0.09754
2736.86,0.09941
2717.58,0.10310
2698.29,0.10840
2679,0.11444
2659.71,0.11913
2640.43,0.12316
2621.14,0.12818
2601.85,0.13265
2582.56,0.13685
2563.28,0.13903
2543.99,0.14082
2524.7,0.14544
2505.42,0.15051
2486.13,0.15745
2466.84,0.16412
2447.55,0.16968
2428.27,0.17635
2408.98,0.18367
2389.69,0.18898
2370.4,0.18665
2351.12,0.18413
2331.83,0.18665
2312.54,0.19808
2293.26,0.19943
2273.97,0.19785
2254.68,0.19408
2235.39,0.19133
2216.11,0.18979
2196.82,0.18619
2177.53,0.17828
2158.24,0.17238
2138.96,0.16863
2119.67,0.16931
2100.38,0.17163
2081.1,0.17216
2061.81,0.16988
2042.52,0.17297
2023.23,0.18010
2003.95,0.18685
1984.66,0.19208
1965.37,0.19755
1946.08,0.20369
1926.8,0.20873
1907.51,0.21028
1888.22,0.20879
1868.94,0.20962
1849.65,0.20320
1830.36,0.19646
1811.07,0.18040
1791.79,0.15773
1772.5,0.12380
1753.21,0.07193
1733.92,0.05561
1714.64,0.06187
1695.35,0.06470
1676.06,0.05437
1656.78,0.04674
1637.49,0.04794
1618.2,0.04791
1598.91,0.04716
1579.63,0.05753
1560.34,0.07697
1541.05,0.07894
1521.76,0.05069
1502.48,0.04312
1483.19,0.04653
1463.9,0.03640
1444.62,0.03864
1425.33,0.03647
1406.04,0.04135
1386.75,0.03780
1367.47,0.03530
1348.18,0.03812
1328.89,0.03670
1309.61,0.03800
1290.32,0.03643
1271.03,0.03338
1251.74,0.03576
1232.46,0.03643
1213.17,0.03686
1193.88,0.03772
1174.59,0.03005
1155.31,0.03395
1136.02,0.03017
1116.73,0.02897
1097.45,0.03040
1078.16,0.03226
1058.87,0.04657
1039.58,0.04839
1020.3,0.05627
1001.01,0.06066
981.722,0.07038
962.434,0.08003
943.147,0.08487
923.86,0.08711
904.573,0.07557
885.285,0.07762
865.998,0.07709
846.711,0.08016
827.424,0.07424
808.136,0.06779
788.849,0.06787
769.562,0.06297
750.274,0.06002
730.987,0.05795
711.7,0.05557
692.413,0.05448
673.125,0.05125
653.838,0.05423
634.551,0.05136
615.264,0.05776
595.976,0.05919
576.689,0.06237
557.402,0.06278
538.115,0.06592
518.827,0.06757
499.54,0.07275
480.253,0.07609
460.966,0.06609
441.678,0.07229
422.391,0.07434
403.104,0.08753
399.246,0.08164