Folder: fsri_materials_database/01_Data/Pressure_Treated_Deck/MCC (part 2)

File: Pressure_Treated_Deck_30K_min_210608_R3.txt
Sample ID:	C:\MCC\MCC Cal\Test\Pressure_Treated_Deck\Pressure_Treated_Deck_30_3.txt
Sample Weight (mg):	4.05
Heating Rate (C/s):	0.5
Combustor Temp (C):	900
N2 Flow Rate (cc/min):	80
O2 Flow Rate (cc/min):	20
Calibration File:	C:\MCC\MCC Cal\Coeff1 JN10440_30_210304.txt.txt
T Correction Coefficients:	0	1.024463	0
Time Shift (s):	14
*
Time (s)	Temperature (C)	N2 flow rate (cc/min)	O2 flow rate (cc/min)	Flow Rate (cc/min)	Oxygen (%)	HRR (W/g)	Heating rate (C/s)
0.000	112.267	79.985	19.991	99.941	19.936	0.257	-0.044
8.000	112.216	79.986	19.993	99.942	19.939	0.010	-0.007
16.001	112.143	79.986	19.992	99.940	19.933	0.430	-0.040
24.000	112.082	79.987	19.992	99.964	19.932	0.515	-0.001
32.001	112.094	79.987	19.992	99.982	19.926	1.016	0.000
40.000	112.277	79.987	19.992	100.056	19.915	1.827	0.032
48.001	112.805	79.988	19.991	100.103	19.910	2.247	0.095
56.000	113.771	79.987	19.992	100.138	19.900	2.996	0.151
64.000	115.183	79.986	19.991	100.141	19.895	3.438	0.199
72.000	117.001	79.986	19.993	100.176	19.886	4.129	0.245
80.000	119.149	79.987	19.992	100.195	19.885	4.175	0.287
88.000	121.690	79.986	19.993	100.208	19.882	4.395	0.314
96.000	124.609	79.986	19.994	100.216	19.881	4.520	0.359
104.000	127.749	79.987	19.993	100.207	19.882	4.367	0.405
112.001	131.028	79.987	19.991	100.216	19.881	4.458	0.471
120.000	134.506	79.988	19.992	100.206	19.878	4.714	0.431
128.000	138.192	79.989	19.992	100.198	19.879	4.612	0.481
136.000	141.958	79.990	19.991	100.205	19.883	4.295	0.505
144.000	145.885	79.987	19.992	100.205	19.880	4.534	0.497
152.000	149.869	79.986	19.993	100.189	19.880	4.522	0.517
160.000	153.748	79.987	19.992	100.197	19.877	4.783	0.467
168.000	157.754	79.986	19.992	100.179	19.877	4.754	0.477
176.000	161.792	79.987	19.992	100.182	19.878	4.710	0.493
184.000	165.834	79.987	19.993	100.179	19.876	4.833	0.496
192.000	169.859	79.986	19.993	100.173	19.876	4.876	0.484
200.000	173.918	79.986	19.992	100.173	19.876	4.865	0.463
208.000	177.915	79.988	19.992	100.154	19.879	4.618	0.497
216.000	181.878	79.989	19.991	100.146	19.878	4.733	0.462
224.001	185.938	79.987	19.992	100.151	19.875	4.965	0.496
232.000	189.862	79.985	19.990	100.160	19.875	4.975	0.513
240.000	193.801	79.986	19.992	100.169	19.872	5.171	0.481
248.000	197.698	79.988	19.993	100.158	19.873	5.079	0.507
256.000	201.603	79.985	19.993	100.152	19.874	5.037	0.518
264.000	205.499	79.987	19.993	100.144	19.870	5.359	0.490
272.000	209.482	79.988	19.992	100.140	19.868	5.518	0.497
280.000	213.382	79.988	19.993	100.148	19.865	5.750	0.464
288.000	217.321	79.989	19.992	100.166	19.861	6.035	0.507
296.000	221.281	79.989	19.992	100.145	19.855	6.487	0.500
304.000	225.244	79.987	19.993	100.150	19.854	6.585	0.481
312.000	229.209	79.988	19.992	100.152	19.842	7.466	0.485
320.000	233.233	79.989	19.991	100.159	19.831	8.336	0.501
328.000	237.214	79.988	19.992	100.153	19.823	8.950	0.497
336.000	241.203	79.986	19.992	100.140	19.822	9.065	0.504
344.000	245.184	79.987	19.992	100.157	19.810	9.970	0.511
352.000	249.210	79.989	19.992	100.157	19.803	10.473	0.505
360.000	253.212	79.989	19.992	100.145	19.793	11.260	0.501
368.000	257.200	79.989	19.993	100.158	19.777	12.489	0.472
376.000	261.196	79.990	19.992	100.168	19.764	13.475	0.484
384.000	265.228	79.986	19.991	100.175	19.746	14.866	0.506
392.000	269.274	79.986	19.992	100.178	19.722	16.765	0.482
400.000	273.431	79.987	19.992	100.178	19.702	18.302	0.528
408.000	277.510	79.989	19.992	100.185	19.679	20.054	0.542
416.000	281.533	79.988	19.992	100.213	19.655	21.922	0.519
424.000	285.543	79.986	19.992	100.216	19.626	24.166	0.500
432.000	289.661	79.987	19.993	100.217	19.601	26.067	0.555
440.000	293.501	79.987	19.992	100.221	19.572	28.341	0.512
448.000	297.501	79.988	19.993	100.219	19.545	30.451	0.488
456.000	301.492	79.989	19.993	100.239	19.517	32.566	0.474
464.000	305.457	79.987	19.993	100.237	19.490	34.673	0.512
472.001	309.526	79.987	19.992	100.253	19.456	37.305	0.524
480.000	313.590	79.988	19.993	100.258	19.425	39.738	0.516
488.000	317.638	79.986	19.992	100.264	19.396	41.981	0.509
496.000	321.682	79.985	19.992	100.268	19.360	44.741	0.524
504.000	325.713	79.988	19.992	100.294	19.327	47.321	0.492
512.000	329.739	79.992	19.992	100.293	19.295	49.734	0.509
520.000	333.768	79.986	19.992	100.294	19.259	52.540	0.504
528.000	337.813	79.988	19.992	100.312	19.225	55.213	0.508
536.000	341.833	79.990	19.992	100.323	19.186	58.203	0.500
544.000	345.814	79.986	19.993	100.332	19.147	61.246	0.519
552.000	349.869	79.984	19.993	100.339	19.114	63.749	0.536
560.000	353.928	79.985	19.992	100.337	19.080	66.410	0.510
568.000	357.955	79.988	19.993	100.347	19.066	67.488	0.504
576.000	362.012	79.986	19.992	100.316	19.073	66.854	0.480
584.000	366.056	79.987	19.992	100.277	19.126	62.750	0.488
592.000	370.102	79.990	19.991	100.222	19.214	55.926	0.521
600.000	374.171	79.986	19.991	100.169	19.344	45.889	0.489
608.000	378.193	79.987	19.992	100.107	19.483	35.180	0.521
616.000	382.284	79.990	19.992	100.097	19.608	25.504	0.488
624.000	386.338	79.987	19.993	100.095	19.690	19.191	0.518
632.000	390.357	79.985	19.992	100.097	19.735	15.747	0.492
640.000	394.469	79.987	19.992	100.079	19.762	13.670	0.505
648.000	398.534	79.988	19.991	100.072	19.768	13.155	0.528
656.000	402.597	79.986	19.994	100.088	19.782	12.105	0.498
664.000	406.641	79.987	19.993	100.093	19.791	11.396	0.492
672.000	410.741	79.988	19.993	100.091	19.792	11.312	0.532
680.000	414.801	79.990	19.991	100.092	19.798	10.858	0.505
688.000	418.887	79.987	19.990	100.082	19.800	10.688	0.486
696.000	423.000	79.990	19.992	100.069	19.808	10.099	0.517
704.000	427.067	79.986	19.993	100.056	19.806	10.242	0.510
712.000	431.135	79.987	19.991	100.061	19.815	9.527	0.517
720.000	435.188	79.987	19.992	100.059	19.818	9.311	0.504
728.000	439.207	79.987	19.992	100.057	19.825	8.772	0.538
736.000	443.072	79.986	19.991	100.059	19.829	8.483	0.500
744.000	447.001	79.987	19.992	100.060	19.837	7.895	0.515
752.000	450.924	79.988	19.991	100.060	19.837	7.872	0.471
760.000	454.923	79.988	19.992	100.060	19.844	7.301	0.538
768.000	458.914	79.988	19.993	100.056	19.850	6.869	0.533
776.000	462.967	79.989	19.991	100.058	19.852	6.730	0.492
784.000	467.050	79.989	19.993	100.054	19.858	6.281	0.529
792.000	471.111	79.987	19.993	100.053	19.858	6.233	0.512
800.000	475.293	79.988	19.992	100.060	19.860	6.109	0.521
808.000	479.348	79.986	19.994	100.058	19.865	5.702	0.497
816.000	483.523	79.986	19.994	100.059	19.866	5.640	0.537
824.000	487.594	79.985	19.993	100.062	19.871	5.220	0.449
832.000	491.755	79.988	19.992	100.057	19.871	5.253	0.552
840.000	495.899	79.988	19.992	100.059	19.868	5.510	0.514
848.000	499.950	79.987	19.991	100.057	19.870	5.351	0.502
856.000	504.113	79.989	19.991	100.061	19.873	5.110	0.554
864.000	508.195	79.988	19.990	100.060	19.870	5.293	0.510
872.000	512.265	79.986	19.991	100.061	19.877	4.800	0.496
880.000	516.456	79.986	19.991	100.060	19.875	4.960	0.518
888.000	520.700	79.987	19.993	100.061	19.877	4.783	0.515
896.000	524.847	79.986	19.993	100.055	19.877	4.773	0.516
904.000	528.976	79.987	19.993	100.055	19.873	5.089	0.493
912.000	533.074	79.986	19.992	100.057	19.876	4.823	0.517
920.000	537.152	79.987	19.992	100.052	19.879	4.620	0.502
928.000	541.293	79.987	19.992	100.050	19.877	4.765	0.503
936.000	545.322	79.989	19.992	100.061	19.877	4.821	0.523
944.000	549.412	79.989	19.991	100.061	19.879	4.641	0.513
952.000	553.529	79.988	19.992	100.062	19.880	4.586	0.507
960.000	557.680	79.988	19.992	100.059	19.880	4.515	0.527
968.000	561.729	79.988	19.993	100.056	19.875	4.931	0.524
976.000	565.768	79.987	19.992	100.056	19.880	4.574	0.502
984.000	569.805	79.987	19.993	100.057	19.878	4.727	0.533
992.000	573.923	79.987	19.993	100.058	19.879	4.659	0.492
1000.000	578.037	79.990	19.992	100.057	19.877	4.813	0.516
1008.000	582.149	79.988	19.991	100.061	19.883	4.354	0.534
1016.000	586.154	79.990	19.991	100.062	19.878	4.710	0.503
1024.001	590.282	79.990	19.992	100.055	19.875	4.925	0.523
1032.001	594.333	79.988	19.991	100.055	19.876	4.893	0.533
1040.000	598.401	79.989	19.992	100.056	19.873	5.101	0.542
1048.000	602.493	79.988	19.992	100.057	19.878	4.736	0.485
1056.000	606.673	79.986	19.992	100.060	19.876	4.881	0.529
1064.000	610.819	79.987	19.993	100.059	19.878	4.688	0.530
1072.000	615.058	79.986	19.993	100.060	19.878	4.713	0.532
1080.000	619.208	79.987	19.993	100.055	19.876	4.866	0.503
1088.000	623.288	79.988	19.993	100.056	19.878	4.738	0.505
1096.000	627.362	79.991	19.991	100.049	19.877	4.750	0.486
1104.001	631.430	79.990	19.991	100.045	19.881	4.505	0.507
1112.001	635.440	79.988	19.992	100.055	19.884	4.212	0.514
1120.000	639.478	79.987	19.992	100.059	19.881	4.468	0.511
1128.001	643.532	79.988	19.991	100.061	19.877	4.780	0.501
1136.000	647.591	79.988	19.992	100.061	19.878	4.721	0.509
1144.000	651.686	79.986	19.993	100.058	19.882	4.389	0.527
1152.000	655.787	79.989	19.991	100.057	19.880	4.517	0.493
1160.000	659.938	79.988	19.992	100.056	19.880	4.574	0.538
1168.000	664.024	79.986	19.993	100.110	19.881	4.464	0.486
1176.001	668.081	79.988	19.992	100.047	19.878	4.678	0.470
1184.000	672.184	79.989	19.990	100.058	19.883	4.335	0.495
1192.000	676.340	79.987	19.992	100.059	19.883	4.331	0.536
1200.000	680.402	79.986	19.991	100.053	19.885	4.147	0.491
1208.001	684.536	79.987	19.993	100.053	19.885	4.173	0.529
1216.000	688.604	79.988	19.992	100.044	19.884	4.251	0.522
1224.000	692.630	79.988	19.992	100.015	19.879	4.594	0.506
1232.000	696.677	79.988	19.993	100.056	19.881	4.459	0.484
1240.001	700.735	79.990	19.992	100.057	19.881	4.486	0.510
1248.000	704.745	79.987	19.991	100.044	19.881	4.480	0.516
1256.000	708.710	79.988	19.993	100.055	19.875	4.900	0.487
1264.000	712.777	79.988	19.991	100.059	19.880	4.565	0.485
1272.000	716.872	79.987	19.991	100.058	19.879	4.598	0.513
1280.000	720.913	79.987	19.992	100.053	19.879	4.636	0.514
1288.000	725.021	79.987	19.992	100.057	19.880	4.559	0.527
1296.000	729.055	79.988	19.993	100.046	19.884	4.266	0.531
1304.001	733.134	79.987	19.991	100.057	19.879	4.653	0.540
1312.000	737.198	79.988	19.992	100.062	19.879	4.601	0.530
1320.000	741.306	79.988	19.992	100.048	19.881	4.464	0.524
1324.001	743.336	79.986	19.992	100.058	19.880	4.567	0.480