Folder: fsri_materials_database/01_Data/Pressure_Treated_Deck/MCC

Note: 01_Data/README.md
# Materials and Products Database
## 01_Data

Raw data generated from each apparatus are included here in plain-text format. The data is organized first by material, next by the short name of test apparatus used, and where applicable additional filtering by test settings.

### material.json

Each material directory contains a json file of the same name as the material. This file links the data stored in the repository as well as data and graphs produced by the accompanying scripts (__02_Scripts__) to the respective landing page for the material on the front-end website.

File: Pressure_Treated_Deck_30K_min_210608_R1.txt
Sample ID:	C:\MCC\MCC Cal\Test\Pressure_Treated_Deck\Pressure_Treated_Deck_30_1.txt
Sample Weight (mg):	3.21
Heating Rate (C/s):	0.5
Combustor Temp (C):	900
N2 Flow Rate (cc/min):	80
O2 Flow Rate (cc/min):	20
Calibration File:	C:\MCC\MCC Cal\Coeff1 JN10440_30_210304.txt.txt
T Correction Coefficients:	0	1.024463	0
Time Shift (s):	14
*
Time (s)	Temperature (C)	N2 flow rate (cc/min)	O2 flow rate (cc/min)	Flow Rate (cc/min)	Oxygen (%)	HRR (W/g)	Heating rate (C/s)
0.000	112.360	79.986	19.993	99.866	19.972	0.123	0.010
7.500	112.315	79.986	19.992	99.905	19.967	0.574	-0.012
15.000	112.381	79.988	19.993	99.947	19.961	1.190	0.000
22.500	112.759	79.986	19.992	100.020	19.952	2.073	0.070
30.000	113.519	79.988	19.994	100.061	19.938	3.439	0.117
37.500	114.760	79.988	19.993	100.058	19.932	4.053	0.181
45.000	116.301	79.987	19.992	100.099	19.929	4.344	0.232
52.500	118.212	79.986	19.992	100.121	19.930	4.253	0.273
60.000	120.535	79.986	19.991	100.123	19.930	4.254	0.314
67.501	123.104	79.987	19.992	100.128	19.927	4.487	0.360
75.001	125.964	79.985	19.992	100.139	19.926	4.619	0.399
82.500	128.973	79.985	19.992	100.138	19.926	4.592	0.402
90.001	132.184	79.987	19.991	100.146	19.927	4.503	0.428
97.500	135.560	79.987	19.993	100.130	19.921	5.075	0.454
105.001	139.042	79.986	19.992	100.134	19.924	4.770	0.455
112.500	142.632	79.987	19.992	100.134	19.926	4.610	0.479
120.000	146.236	79.988	19.992	100.119	19.925	4.654	0.459
127.500	150.016	79.985	19.992	100.115	19.932	3.972	0.484
135.000	153.743	79.986	19.992	100.105	19.923	4.916	0.518
142.500	157.479	79.986	19.993	100.105	19.929	4.295	0.486
150.000	161.272	79.986	19.992	100.110	19.929	4.287	0.527
157.500	165.085	79.986	19.994	100.099	19.932	3.998	0.502
165.001	168.805	79.987	19.992	100.100	19.932	3.990	0.506
172.500	172.596	79.989	19.991	100.092	19.933	3.932	0.504
180.000	176.319	79.987	19.992	100.096	19.936	3.641	0.487
187.500	180.053	79.989	19.993	100.089	19.931	4.154	0.491
195.000	183.780	79.989	19.992	100.076	19.930	4.169	0.469
202.500	187.507	79.987	19.993	100.054	19.935	3.745	0.464
210.000	191.239	79.986	19.993	100.081	19.935	3.706	0.492
217.500	194.904	79.987	19.992	100.068	19.936	3.669	0.447
225.000	198.610	79.988	19.992	100.071	19.936	3.630	0.476
232.500	202.299	79.988	19.993	100.061	19.936	3.638	0.486
240.000	205.946	79.985	19.992	100.065	19.930	4.172	0.479
247.500	209.637	79.987	19.993	100.072	19.931	4.099	0.477
255.000	213.339	79.987	19.991	100.065	19.928	4.369	0.484
262.500	217.037	79.986	19.991	100.067	19.927	4.508	0.499
270.000	220.718	79.987	19.992	100.064	19.921	5.061	0.497
277.500	224.484	79.988	19.993	100.067	19.919	5.296	0.509
285.000	228.222	79.987	19.992	100.062	19.912	5.918	0.528
292.500	231.996	79.985	19.993	100.062	19.914	5.813	0.482
300.000	235.764	79.987	19.993	100.062	19.904	6.782	0.504
307.500	239.484	79.986	19.992	100.062	19.903	6.882	0.478
315.000	243.234	79.985	19.991	100.061	19.895	7.647	0.483
322.500	246.995	79.987	19.992	100.063	19.890	8.127	0.453
330.000	250.808	79.987	19.992	100.059	19.883	8.793	0.498
337.500	254.549	79.987	19.991	100.063	19.874	9.698	0.495
345.000	258.240	79.988	19.992	100.060	19.870	10.077	0.481
352.500	261.961	79.989	19.992	100.124	19.861	10.961	0.506
360.000	265.781	79.986	19.993	100.060	19.848	12.181	0.502
367.500	269.546	79.987	19.992	100.077	19.836	13.406	0.525
375.000	273.322	79.986	19.992	100.084	19.819	15.011	0.504
382.500	277.067	79.987	19.994	100.094	19.794	17.398	0.499
390.000	280.788	79.986	19.993	100.113	19.783	18.555	0.510
397.500	284.526	79.984	19.992	100.103	19.764	20.412	0.470
405.000	288.269	79.987	19.992	100.103	19.741	22.605	0.483
412.500	292.021	79.986	19.993	100.107	19.724	24.274	0.493
420.000	295.766	79.988	19.992	100.117	19.704	26.235	0.486
427.500	299.502	79.989	19.992	100.122	19.682	28.322	0.503
435.000	303.228	79.988	19.992	100.134	19.660	30.464	0.485
442.500	306.905	79.986	19.992	100.135	19.638	32.656	0.506
450.000	310.672	79.987	19.993	100.144	19.619	34.535	0.504
457.500	314.468	79.985	19.992	100.210	19.597	36.647	0.490
465.000	318.235	79.985	19.993	100.140	19.575	38.813	0.487
472.500	322.016	79.983	19.995	100.148	19.548	41.393	0.473
480.000	325.834	79.987	19.991	100.153	19.524	43.771	0.551
487.500	329.653	79.987	19.994	100.154	19.503	45.830	0.508
495.000	333.400	79.987	19.993	100.176	19.476	48.420	0.507
502.500	337.225	79.987	19.992	100.177	19.449	51.017	0.538
510.001	340.972	79.989	19.992	100.184	19.423	53.572	0.520
517.500	344.758	79.986	19.992	100.183	19.396	56.235	0.502
525.000	348.550	79.985	19.992	100.204	19.370	58.804	0.535
532.500	352.325	79.986	19.995	100.205	19.348	60.902	0.517
540.000	356.185	79.987	19.993	100.196	19.329	62.772	0.508
547.500	359.958	79.985	19.991	100.184	19.322	63.364	0.505
555.000	363.782	79.985	19.992	100.177	19.342	61.438	0.523
562.500	367.558	79.987	19.993	100.141	19.381	57.616	0.519
570.000	371.341	79.988	19.991	100.101	19.452	50.658	0.513
577.500	375.117	79.986	19.992	100.032	19.546	41.585	0.500
585.000	378.908	79.987	19.990	100.108	19.653	31.137	0.507
592.500	382.719	79.988	19.991	99.998	19.743	22.354	0.465
600.000	386.477	79.986	19.992	100.008	19.813	15.612	0.515
607.500	390.251	79.986	19.992	99.989	19.856	11.438	0.521
615.001	394.016	79.985	19.992	99.987	19.876	9.485	0.484
622.500	397.837	79.987	19.994	99.988	19.888	8.244	0.544
630.000	401.575	79.985	19.993	100.001	19.902	6.940	0.486
637.500	405.331	79.985	19.993	99.993	19.899	7.197	0.475
645.000	409.255	79.986	19.993	99.987	19.907	6.461	0.507
652.500	413.011	79.984	19.992	99.999	19.909	6.269	0.521
660.000	416.693	79.987	19.992	99.985	19.910	6.154	0.519
667.500	420.772	79.988	19.992	99.983	19.918	5.405	0.756
675.000	424.342	79.986	19.993	99.981	19.920	5.135	0.538
682.500	428.061	79.987	19.993	99.982	19.930	4.250	0.478
690.000	431.787	79.986	19.992	99.984	19.928	4.363	0.505
697.500	435.456	79.985	19.992	99.926	19.932	4.054	0.441
705.000	439.244	79.985	19.993	99.985	19.942	3.080	0.519
712.500	442.928	79.985	19.993	99.981	19.943	2.948	0.482
720.000	446.731	79.986	19.993	99.979	19.946	2.687	0.500
727.500	450.480	79.987	19.994	99.979	19.949	2.351	0.488
735.000	454.286	79.988	19.992	99.977	19.948	2.443	0.530
742.500	458.068	79.988	19.992	99.978	19.958	1.487	0.478
750.000	461.877	79.986	19.993	99.981	19.958	1.495	0.491
757.500	465.722	79.985	19.992	99.985	19.960	1.309	0.513
765.000	469.585	79.984	19.991	99.979	19.963	0.985	0.504
772.500	473.428	79.986	19.991	99.985	19.970	0.296	0.524
780.000	477.259	79.985	19.991	99.975	19.966	0.681	0.491
787.500	481.102	79.986	19.993	99.980	19.965	0.835	0.503
795.000	484.882	79.986	19.993	99.981	19.968	0.503	0.533
802.501	488.648	79.987	19.993	99.975	19.972	0.118	0.507
810.000	492.534	79.985	19.993	99.966	19.971	0.209	0.525
817.500	496.461	79.987	19.992	99.976	19.976	-0.304	0.524
825.000	500.326	79.989	19.992	99.975	19.972	0.097	0.515
832.500	504.161	79.987	19.991	99.981	19.971	0.183	0.512
840.000	507.980	79.986	19.992	99.975	19.975	-0.183	0.502
847.500	511.816	79.985	19.991	99.981	19.977	-0.354	0.506
855.000	515.715	79.985	19.991	99.982	19.979	-0.584	0.540
862.500	519.649	79.986	19.992	99.979	19.977	-0.369	0.557
870.000	523.498	79.985	19.993	99.979	19.981	-0.725	0.530
877.500	527.329	79.987	19.993	99.971	19.981	-0.699	0.518
885.000	531.257	79.985	19.992	99.984	19.978	-0.498	0.518
892.500	535.144	79.986	19.993	99.987	19.980	-0.691	0.522
900.000	538.964	79.989	19.993	99.980	19.981	-0.715	0.506
907.500	542.836	79.986	19.993	99.909	19.973	0.037	0.520
915.000	546.619	79.986	19.992	99.981	19.977	-0.377	0.509
922.500	550.466	79.987	19.993	99.974	19.978	-0.414	0.533
930.000	554.303	79.986	19.994	99.979	19.977	-0.333	0.533
937.500	558.153	79.985	19.992	99.981	19.979	-0.542	0.529
945.000	561.942	79.987	19.991	99.985	19.981	-0.780	0.510
952.500	565.750	79.988	19.991	99.981	19.982	-0.872	0.510
960.000	569.565	79.986	19.993	99.977	19.981	-0.754	0.498
967.500	573.398	79.986	19.992	99.975	19.983	-0.964	0.527
975.000	577.248	79.989	19.992	99.979	19.982	-0.812	0.500
982.500	581.091	79.986	19.992	99.978	19.978	-0.458	0.504
990.000	584.931	79.988	19.994	99.976	19.978	-0.422	0.534
997.500	588.752	79.986	19.992	99.980	19.976	-0.259	0.536
1005.000	592.582	79.985	19.991	99.984	19.978	-0.495	0.507
1012.500	596.497	79.987	19.993	99.983	19.981	-0.699	0.508
1020.000	600.366	79.985	19.993	99.981	19.980	-0.647	0.513
1027.500	604.245	79.986	19.992	99.978	19.981	-0.728	0.529
1035.000	608.060	79.987	19.991	99.982	19.981	-0.715	0.500
1042.500	611.877	79.986	19.993	99.971	19.982	-0.809	0.541
1050.001	615.708	79.988	19.993	99.971	19.978	-0.497	0.473
1057.501	619.543	79.989	19.992	99.961	19.977	-0.387	0.494
1065.000	623.354	79.985	19.993	99.973	19.981	-0.770	0.479
1072.500	627.132	79.986	19.993	99.964	19.979	-0.584	0.531
1080.001	630.954	79.985	19.992	99.974	19.984	-1.024	0.511
1087.500	634.808	79.987	19.992	99.977	19.975	-0.162	0.523
1095.000	638.589	79.985	19.993	99.976	19.980	-0.697	0.489
1102.500	642.367	79.984	19.992	99.969	19.978	-0.419	0.506
1110.000	646.106	79.985	19.992	99.978	19.981	-0.731	0.482
1117.501	649.937	79.987	19.992	99.978	19.981	-0.733	0.482
1125.001	653.791	79.985	19.992	99.974	19.980	-0.605	0.525
1132.500	657.663	79.989	19.992	99.971	19.981	-0.783	0.538
1140.000	661.517	79.987	19.992	99.975	19.977	-0.374	0.471
1147.500	665.336	79.985	19.993	99.983	19.980	-0.639	0.538
1155.000	669.136	79.985	19.993	99.965	19.980	-0.626	0.487
1162.500	672.966	79.986	19.994	99.978	19.985	-1.176	0.513
1170.001	676.792	79.986	19.993	99.964	19.983	-0.971	0.508
1177.501	680.645	79.986	19.993	99.972	19.984	-1.074	0.523
1185.001	684.460	79.987	19.992	99.979	19.984	-1.013	0.496
1192.501	688.254	79.986	19.992	99.982	19.985	-1.181	0.501
1200.000	692.071	79.985	19.992	99.983	19.980	-0.652	0.489
1207.500	695.825	79.987	19.991	99.984	19.983	-0.937	0.500
1215.000	699.586	79.989	19.992	99.978	19.981	-0.728	0.529
1222.500	703.402	79.987	19.994	99.978	19.980	-0.613	0.522
1230.000	707.112	79.985	19.993	99.978	19.982	-0.854	0.490
1237.500	710.900	79.986	19.992	99.972	19.979	-0.518	0.519
1245.001	714.745	79.986	19.993	99.976	19.977	-0.343	0.520
1252.501	718.515	79.984	19.993	99.981	19.984	-0.992	0.512
1260.000	722.307	79.985	19.992	99.985	19.983	-0.982	0.542
1267.500	726.088	79.987	19.991	99.984	19.983	-0.911	0.507
1275.000	729.856	79.987	19.993	99.979	19.979	-0.589	0.503
1282.500	733.653	79.987	19.992	99.976	19.983	-0.896	0.485
1290.000	737.393	79.989	19.991	99.979	19.978	-0.416	0.500
1297.500	741.171	79.988	19.991	99.980	19.978	-0.471	0.489
1302.500	743.653	79.986	19.992	99.976	19.981	-0.728	0.505

File: Pressure_Treated_Deck_30K_min_210608_R2.txt
Sample ID:	C:\MCC\MCC Cal\Test\Pressure_Treated_Deck\Pressure_Treated_Deck_30_2.txt
Sample Weight (mg):	4.01
Heating Rate (C/s):	0.5
Combustor Temp (C):	900
N2 Flow Rate (cc/min):	80
O2 Flow Rate (cc/min):	20
Calibration File:	C:\MCC\MCC Cal\Coeff1 JN10440_30_210304.txt.txt
T Correction Coefficients:	0	1.024463	0
Time Shift (s):	14
*
Time (s)	Temperature (C)	N2 flow rate (cc/min)	O2 flow rate (cc/min)	Flow Rate (cc/min)	Oxygen (%)	HRR (W/g)	Heating rate (C/s)
0.000	111.745	79.986	19.992	99.911	20.010	0.448	-0.004
8.000	111.646	79.988	19.992	99.904	20.003	1.031	-0.006
16.000	111.561	79.988	19.991	99.921	20.001	1.155	-0.002
24.000	111.614	79.985	19.992	99.985	19.993	1.783	0.017
32.000	112.004	79.985	19.992	100.023	19.992	1.819	0.069
40.000	112.662	79.985	19.991	100.072	19.983	2.579	0.100
48.000	113.689	79.988	19.992	100.087	19.971	3.471	0.169
56.000	115.096	79.986	19.992	100.094	19.970	3.575	0.197
64.001	116.840	79.986	19.992	100.122	19.970	3.605	0.238
72.000	118.853	79.989	19.993	100.136	19.960	4.363	0.254
80.000	121.175	79.986	19.993	100.138	19.956	4.674	0.283
88.000	123.748	79.986	19.992	100.143	19.956	4.662	0.330
96.001	126.563	79.987	19.990	100.166	19.951	5.021	0.375
104.000	129.563	79.985	19.990	100.160	19.953	4.908	0.383
112.000	132.751	79.986	19.992	100.169	19.947	5.330	0.427
120.001	136.146	79.986	19.992	100.167	19.946	5.479	0.453
128.000	139.582	79.986	19.991	100.174	19.943	5.710	0.419
136.000	143.210	79.987	19.992	100.171	19.941	5.845	0.418
144.000	146.961	79.984	19.993	100.170	19.942	5.786	0.470
152.000	150.814	79.987	19.992	100.168	19.943	5.664	0.487
160.000	154.646	79.986	19.993	100.165	19.936	6.216	0.498
168.000	158.568	79.986	19.992	100.155	19.938	6.062	0.494
176.000	162.531	79.988	19.992	100.145	19.938	6.081	0.513
184.000	166.572	79.989	19.992	100.138	19.939	5.960	0.485
192.000	170.565	79.986	19.991	100.147	19.936	6.204	0.495
200.000	174.565	79.987	19.991	100.143	19.937	6.162	0.512
208.000	178.559	79.985	19.993	100.142	19.933	6.431	0.514
216.000	182.553	79.985	19.991	100.140	19.936	6.257	0.511
224.000	186.606	79.985	19.992	100.141	19.937	6.170	0.516
232.000	190.583	79.987	19.993	100.142	19.937	6.143	0.492
240.000	194.542	79.987	19.993	100.131	19.936	6.223	0.465
248.000	198.535	79.987	19.992	100.130	19.932	6.497	0.539
256.000	202.436	79.988	19.992	100.133	19.931	6.589	0.484
264.001	206.385	79.985	19.993	100.135	19.929	6.731	0.473
272.000	210.353	79.985	19.992	100.133	19.923	7.206	0.459
280.000	214.315	79.986	19.993	100.137	19.925	7.042	0.471
288.000	218.245	79.986	19.991	100.139	19.918	7.652	0.494
296.000	222.250	79.983	19.990	100.133	19.911	8.186	0.518
304.000	226.160	79.986	19.992	100.140	19.907	8.450	0.491
312.000	230.198	79.986	19.990	100.137	19.899	9.086	0.503
320.000	234.196	79.986	19.991	100.127	19.887	10.012	0.491
328.000	238.166	79.987	19.994	100.143	19.884	10.243	0.465
336.000	242.145	79.989	19.992	100.135	19.871	11.270	0.491
344.000	246.190	79.988	19.991	100.126	19.863	11.910	0.499
352.000	250.218	79.985	19.992	100.136	19.856	12.441	0.536
360.000	254.196	79.984	19.994	100.136	19.850	12.909	0.535
368.000	258.152	79.985	19.991	100.136	19.834	14.175	0.490
376.000	262.194	79.983	19.992	100.136	19.818	15.452	0.508
384.000	266.148	79.985	19.992	100.146	19.803	16.558	0.466
392.000	270.176	79.987	19.992	100.135	19.785	17.972	0.511
400.000	274.194	79.985	19.990	100.157	19.765	19.568	0.517
408.000	278.205	79.988	19.993	100.158	19.740	21.509	0.514
416.000	282.155	79.986	19.991	100.174	19.716	23.395	0.523
424.000	286.115	79.988	19.992	100.177	19.696	24.949	0.510
432.000	290.201	79.983	19.991	100.175	19.665	27.355	0.529
440.000	294.226	79.986	19.992	100.177	19.642	29.146	0.489
448.000	298.265	79.986	19.993	100.185	19.615	31.241	0.520
456.000	302.297	79.986	19.991	100.206	19.591	33.130	0.479
464.000	306.330	79.986	19.991	100.214	19.560	35.565	0.496
472.000	310.367	79.987	19.991	100.216	19.533	37.680	0.524
480.000	314.446	79.987	19.991	100.218	19.503	40.017	0.499
488.000	318.473	79.984	19.991	100.227	19.474	42.284	0.522
496.000	322.477	79.988	19.992	100.232	19.447	44.352	0.487
504.000	326.523	79.989	19.992	100.234	19.418	46.651	0.507
512.001	330.539	79.986	19.992	100.246	19.378	49.766	0.594
520.000	334.278	79.986	19.992	100.252	19.350	51.964	0.274
528.000	338.536	79.986	19.993	100.255	19.318	54.439	0.538
536.000	342.552	79.986	19.992	100.265	19.283	57.175	0.482
544.000	346.524	79.986	19.992	100.277	19.247	60.034	0.476
552.000	350.526	79.986	19.992	100.296	19.222	61.967	0.484
560.000	354.562	79.987	19.991	100.284	19.197	63.854	0.489
568.000	358.500	79.987	19.991	100.281	19.182	65.034	0.486
576.000	362.457	79.989	19.991	100.253	19.204	63.328	0.479
584.000	366.466	79.988	19.990	100.213	19.240	60.458	0.525
592.000	370.439	79.987	19.992	100.176	19.320	54.230	0.491
600.000	374.524	79.985	19.992	100.125	19.430	45.603	0.524
608.000	378.541	79.986	19.991	100.085	19.558	35.613	0.504
616.000	382.632	79.986	19.992	100.064	19.667	27.151	0.514
624.000	386.672	79.985	19.994	100.057	19.741	21.369	0.501
632.000	390.714	79.987	19.992	100.058	19.788	17.772	0.519
640.000	394.802	79.988	19.991	100.053	19.805	16.406	0.516
648.000	398.822	79.988	19.991	100.057	19.823	14.984	0.484
656.000	402.863	79.989	19.993	100.053	19.830	14.496	0.482
664.000	406.910	79.990	19.990	100.048	19.834	14.130	0.489
672.000	410.937	79.987	19.991	100.057	19.842	13.543	0.502
680.000	414.957	79.986	19.991	100.059	19.849	13.005	0.507
688.000	419.036	79.986	19.993	100.054	19.852	12.753	0.507
696.000	423.149	79.987	19.992	100.056	19.857	12.387	0.515
704.000	427.219	79.987	19.993	100.054	19.856	12.405	0.504
712.000	431.275	79.986	19.993	100.052	19.864	11.847	0.512
720.000	435.372	79.987	19.993	100.034	19.867	11.597	0.524
728.000	439.405	79.989	19.992	100.048	19.871	11.311	0.487
736.000	443.461	79.987	19.993	100.036	19.874	11.058	0.496
744.000	447.494	79.988	19.991	100.032	19.881	10.475	0.532
752.000	451.531	79.988	19.992	100.031	19.884	10.267	0.539
760.000	455.579	79.988	19.993	100.039	19.884	10.297	0.513
768.000	459.656	79.987	19.992	100.023	19.883	10.356	0.494
776.000	463.653	79.987	19.992	100.043	19.885	10.165	0.507
784.000	467.749	79.986	19.993	100.036	19.889	9.889	0.522
792.000	471.809	79.986	19.992	100.033	19.893	9.592	0.494
800.000	475.983	79.987	19.993	100.024	19.898	9.169	0.512
808.000	480.109	79.987	19.993	100.033	19.899	9.126	0.520
816.000	484.237	79.989	19.992	100.027	19.899	9.129	0.512
824.000	488.373	79.989	19.992	100.022	19.906	8.541	0.545
832.000	492.419	79.988	19.991	100.018	19.901	8.932	0.510
840.000	496.574	79.987	19.992	100.034	19.904	8.718	0.492
848.000	500.623	79.986	19.991	100.029	19.907	8.454	0.509
856.000	504.715	79.988	19.992	100.037	19.904	8.670	0.514
864.000	508.808	79.986	19.992	100.023	19.905	8.639	0.546
872.000	512.796	79.986	19.991	100.025	19.905	8.619	0.480
880.000	516.872	79.988	19.992	100.026	19.904	8.698	0.500
888.000	520.974	79.988	19.993	100.023	19.906	8.525	0.501
896.000	525.072	79.987	19.993	100.040	19.908	8.388	0.544
904.000	529.190	79.990	19.992	100.028	19.907	8.491	0.499
912.000	533.294	79.989	19.992	100.026	19.908	8.380	0.524
920.000	537.405	79.987	19.992	100.035	19.909	8.322	0.528
928.000	541.441	79.986	19.992	100.024	19.909	8.346	0.487
936.000	545.532	79.988	19.992	100.024	19.905	8.654	0.514
944.000	549.498	79.988	19.992	100.023	19.911	8.191	0.522
952.000	553.525	79.987	19.992	100.021	19.908	8.430	0.523
960.000	557.589	79.987	19.992	100.019	19.904	8.698	0.478
968.000	561.684	79.987	19.992	100.027	19.910	8.237	0.526
976.000	565.719	79.987	19.991	100.021	19.906	8.510	0.494
984.000	569.795	79.988	19.993	100.028	19.906	8.571	0.514
992.000	573.919	79.990	19.992	100.020	19.904	8.714	0.540
1000.000	577.967	79.987	19.991	100.031	19.905	8.644	0.502
1008.000	582.050	79.986	19.991	100.022	19.903	8.764	0.538
1016.000	586.089	79.988	19.992	100.035	19.905	8.606	0.488
1024.000	590.139	79.987	19.991	100.026	19.906	8.510	0.496
1032.000	594.289	79.986	19.992	100.023	19.907	8.449	0.516
1040.000	598.324	79.987	19.991	100.019	19.907	8.461	0.508
1048.000	602.400	79.987	19.991	100.022	19.907	8.482	0.523
1056.000	606.474	79.988	19.992	100.030	19.909	8.350	0.479
1064.000	610.595	79.987	19.992	100.027	19.904	8.681	0.528
1072.000	614.735	79.989	19.992	100.016	19.907	8.434	0.517
1080.000	618.795	79.987	19.992	100.025	19.906	8.559	0.510
1088.000	622.938	79.985	19.992	100.018	19.911	8.134	0.518
1096.000	626.995	79.987	19.992	100.022	19.908	8.422	0.499
1104.000	631.104	79.986	19.992	100.023	19.907	8.461	0.528
1112.000	635.163	79.986	19.993	100.021	19.900	8.978	0.542
1120.001	639.201	79.986	19.991	100.079	19.907	8.480	0.490
1128.000	643.309	79.988	19.992	100.024	19.906	8.553	0.534
1136.000	647.317	79.987	19.994	100.015	19.905	8.652	0.528
1144.001	651.385	79.988	19.992	100.018	19.913	8.010	0.541
1152.000	655.413	79.989	19.992	100.014	19.907	8.503	0.485
1160.000	659.529	79.986	19.994	100.093	19.900	9.032	0.503
1168.000	663.551	79.987	19.993	100.022	19.903	8.757	0.475
1176.001	667.564	79.988	19.992	100.020	19.903	8.759	0.501
1184.001	671.668	79.986	19.991	100.080	19.901	8.969	0.510
1192.001	675.820	79.987	19.993	100.023	19.899	9.078	0.514
1200.001	679.908	79.987	19.992	100.029	19.902	8.856	0.520
1208.001	684.040	79.991	19.992	100.021	19.901	8.920	0.549
1216.001	688.063	79.989	19.993	100.023	19.899	9.063	0.482
1224.000	692.214	79.989	19.993	100.016	19.900	8.988	0.530
1232.001	696.404	79.993	19.992	100.018	19.901	8.910	0.541
1240.001	700.496	79.986	19.993	100.019	19.899	9.105	0.512
1248.000	704.581	79.986	19.994	100.022	19.897	9.245	0.524
1256.001	708.596	79.988	19.992	100.020	19.896	9.327	0.493
1264.000	712.616	79.988	19.991	100.016	19.894	9.515	0.512
1272.000	716.644	79.985	19.992	100.022	19.896	9.351	0.514
1280.000	720.628	79.988	19.993	100.017	19.893	9.533	0.501
1288.000	724.634	79.992	19.991	100.016	19.896	9.332	0.503
1296.000	728.623	79.985	19.992	100.021	19.895	9.388	0.499
1304.000	732.678	79.988	19.991	100.021	19.897	9.227	0.494
1312.000	736.740	79.988	19.992	100.019	19.896	9.359	0.491
1320.000	740.912	79.985	19.992	100.014	19.895	9.385	0.548
1325.001	743.528	79.987	19.992	100.018	19.892	9.673	0.524