Folder: fsri_materials_database/01_Data/Vinyl_Covering_82A/MCC

Note: 01_Data/README.md
# Materials and Products Database
## 01_Data

Raw data generated from each apparatus are included here in plain-text format. The data is organized first by material, next by the short name of test apparatus used, and where applicable additional filtering by test settings.

### material.json

Each material directory contains a json file of the same name as the material. This file links the data stored in the repository as well as data and graphs produced by the accompanying scripts (__02_Scripts__) to the respective landing page for the material on the front-end website.

File: Vinyl_Covering_82A_MCC_30K_min_220302_R1.txt
Sample ID:	C:\MCC\MCC Cal\Test\Vinyl_Covering_81A_MCC_30K_min_220302_R1.txt
Sample Weight (mg):	4.6
Heating Rate (C/s):	0.5
Combustor Temp (C):	900
N2 Flow Rate (cc/min):	80
O2 Flow Rate (cc/min):	20
Calibration File:	C:\MCC\MCC Cal\Coeff1 JN10440_30_210304.txt.txt
T Correction Coefficients:	0	1.024463	0
Time Shift (s):	14
*
Time (s)	Temperature (C)	N2 flow rate (cc/min)	O2 flow rate (cc/min)	Flow Rate (cc/min)	Oxygen (%)	HRR (W/g)	Heating rate (C/s)
-0.001	115.463	80.005	19.994	103.597	19.915	0.465	-0.002
7.499	115.439	80.004	19.994	103.606	19.916	0.452	0.003
14.999	115.425	80.005	19.993	103.628	19.914	0.556	-0.020
22.499	115.490	80.005	19.995	103.724	19.899	1.599	0.052
29.999	115.936	80.004	19.994	103.797	19.886	2.561	0.085
37.499	116.878	80.004	19.994	103.830	19.878	3.115	0.147
44.999	118.202	80.006	19.994	103.834	19.878	3.136	0.175
52.499	119.956	80.006	19.993	103.837	19.880	2.965	0.263
60.000	121.937	80.005	19.993	103.840	19.873	3.474	0.269
67.499	124.198	80.005	19.994	103.848	19.871	3.576	0.295
74.999	126.639	80.009	19.993	103.864	19.871	3.626	0.341
82.499	129.366	80.005	19.993	103.869	19.864	4.083	0.427
89.999	132.277	80.004	19.994	103.867	19.868	3.781	0.399
97.499	135.299	80.005	19.995	103.876	19.866	3.978	0.445
104.999	138.560	80.005	19.993	103.878	19.861	4.313	0.454
112.500	141.956	80.004	19.993	103.888	19.863	4.166	0.407
120.000	145.533	80.004	19.994	103.888	19.857	4.600	0.479
127.500	149.220	80.006	19.993	103.883	19.851	4.977	0.537
135.000	152.949	80.006	19.993	103.878	19.853	4.898	0.509
142.501	156.689	80.006	19.995	103.870	19.849	5.183	0.509
150.000	160.520	80.005	19.993	103.869	19.843	5.588	0.519
157.499	164.347	80.006	19.994	103.868	19.833	6.293	0.490
164.999	168.243	80.003	19.994	103.869	19.824	6.879	0.490
172.500	172.084	80.005	19.994	103.854	19.817	7.402	0.500
180.000	175.930	80.005	19.994	103.859	19.809	7.958	0.515
187.499	179.673	80.005	19.994	103.843	19.801	8.504	0.533
194.999	183.418	80.002	19.994	103.846	19.795	8.946	0.507
202.499	187.155	80.003	19.994	103.856	19.783	9.806	0.446
209.999	190.819	80.004	19.993	103.833	19.773	10.507	0.461
217.499	194.555	80.005	19.993	103.831	19.757	11.642	0.516
224.999	198.133	80.006	19.994	103.824	19.748	12.297	0.454
232.499	201.819	80.007	19.994	103.825	19.731	13.491	0.531
239.999	205.446	80.006	19.993	103.821	19.713	14.706	0.541
247.499	209.103	80.003	19.993	103.834	19.694	16.039	0.476
254.999	212.773	80.006	19.995	103.822	19.676	17.364	0.531
262.500	216.481	80.005	19.996	103.820	19.651	19.104	0.512
270.000	220.182	80.003	19.993	103.821	19.616	21.570	0.520
277.500	223.888	80.005	19.995	103.829	19.590	23.356	0.494
285.000	227.527	80.004	19.995	103.825	19.556	25.808	0.518
292.500	231.239	80.005	19.994	103.815	19.518	28.466	0.475
300.000	234.974	80.006	19.993	103.822	19.485	30.796	0.498
307.500	238.741	80.005	19.993	103.818	19.444	33.663	0.508
315.000	242.479	80.007	19.993	103.823	19.391	37.381	0.557
322.500	246.229	80.008	19.994	103.831	19.337	41.220	0.493
330.000	249.979	80.005	19.994	103.854	19.255	46.990	0.509
337.500	253.760	80.005	19.994	103.834	19.217	49.704	0.489
345.000	257.500	80.006	19.994	103.871	19.159	53.795	0.473
352.500	261.256	80.005	19.994	103.872	19.095	58.270	0.496
360.000	264.996	80.003	19.994	103.875	19.035	62.535	0.500
367.500	268.738	80.003	19.994	103.884	18.972	66.919	0.493
375.000	272.579	80.005	19.994	103.883	18.916	70.891	0.526
382.500	276.305	80.006	19.994	103.880	18.875	73.762	0.474
390.000	280.076	80.005	19.994	103.899	18.821	77.588	0.492
397.500	283.846	80.007	19.993	103.850	18.764	81.631	0.535
405.000	287.582	80.007	19.994	103.898	18.750	82.608	0.475
412.500	291.275	80.004	19.993	103.872	18.753	82.386	0.487
420.000	295.011	80.003	19.994	103.966	18.776	80.680	0.502
427.500	298.655	80.005	19.994	103.796	18.898	72.136	0.497
435.000	302.321	80.006	19.994	103.814	19.112	57.022	0.459
442.500	306.016	80.004	19.995	103.836	19.309	43.178	0.510
450.000	309.691	80.005	19.994	103.819	19.469	31.925	0.462
457.500	313.553	80.005	19.992	103.800	19.588	23.496	0.493
465.000	317.396	80.006	19.993	103.791	19.681	16.997	0.522
472.500	321.204	80.005	19.994	103.789	19.743	12.637	0.490
480.000	325.101	80.006	19.994	103.782	19.778	10.155	0.504
487.500	328.975	80.007	19.994	103.784	19.805	8.242	0.513
495.000	332.856	80.005	19.993	103.765	19.814	7.580	0.486
502.500	336.689	80.004	19.993	103.784	19.824	6.908	0.467
510.000	340.494	80.005	19.994	103.757	19.830	6.485	0.490
517.500	344.288	80.005	19.994	103.754	19.832	6.329	0.520
525.000	348.133	80.005	19.994	103.771	19.837	5.960	0.528
532.500	351.947	80.004	19.995	103.761	19.836	6.053	0.502
540.000	355.869	80.008	19.995	103.762	19.838	5.927	0.508
547.500	359.693	80.005	19.994	103.759	19.836	6.094	0.492
555.000	363.560	80.005	19.994	103.758	19.829	6.525	0.507
562.500	367.469	80.006	19.997	103.759	19.822	7.029	0.518
570.000	371.340	80.005	19.993	103.754	19.818	7.303	0.531
577.500	375.210	80.005	19.993	103.754	19.806	8.186	0.515
585.000	379.016	80.004	19.994	103.752	19.801	8.546	0.473
592.500	382.842	80.005	19.994	103.754	19.791	9.254	0.484
600.000	386.702	80.005	19.993	103.752	19.776	10.289	0.523
607.500	390.465	80.004	19.993	103.757	19.765	11.025	0.482
615.000	394.275	80.007	19.993	103.757	19.751	12.040	0.505
622.500	398.077	80.007	19.994	103.764	19.737	13.034	0.506
630.000	401.853	80.004	19.995	103.766	19.725	13.870	0.498
637.500	405.590	80.006	19.994	103.756	19.707	15.123	0.499
645.000	409.340	80.007	19.993	103.755	19.691	16.259	0.473
652.500	413.127	80.004	19.993	103.761	19.680	17.067	0.511
660.000	416.901	80.004	19.995	103.763	19.663	18.213	0.512
667.500	420.701	80.004	19.994	103.769	19.650	19.162	0.506
675.000	424.513	80.005	19.993	103.762	19.635	20.237	0.519
682.500	428.374	80.004	19.995	103.770	19.620	21.261	0.518
690.000	432.180	80.004	19.993	103.755	19.602	22.502	0.522
697.500	435.967	80.005	19.994	103.760	19.581	23.974	0.473
705.000	439.786	80.006	19.993	103.756	19.572	24.637	0.487
712.500	443.646	80.006	19.993	103.752	19.559	25.539	0.497
720.000	447.436	80.006	19.994	103.747	19.552	26.014	0.537
727.500	451.250	80.008	19.994	103.746	19.554	25.869	0.521
735.000	455.036	80.003	19.994	103.733	19.561	25.399	0.504
742.500	458.899	80.004	19.995	103.747	19.567	24.964	0.483
750.000	462.701	80.004	19.994	103.723	19.578	24.199	0.542
757.500	466.396	80.004	19.995	103.721	19.598	22.814	0.499
765.000	470.178	80.004	19.993	103.720	19.620	21.289	0.507
772.500	474.035	80.004	19.993	103.721	19.645	19.497	0.533
780.000	477.858	80.007	19.994	103.730	19.666	18.002	0.519
787.500	481.814	80.007	19.993	103.721	19.695	15.985	0.539
795.000	485.795	80.006	19.993	103.726	19.713	14.686	0.529
802.500	489.727	80.007	19.993	103.724	19.741	12.754	0.488
810.000	493.687	80.008	19.994	103.718	19.760	11.427	0.538
817.500	497.602	80.005	19.993	103.718	19.775	10.315	0.529
825.000	501.441	80.004	19.993	103.717	19.797	8.785	0.521
832.500	505.208	80.005	19.993	103.714	19.806	8.175	0.497
840.000	509.012	80.004	19.995	103.713	19.817	7.403	0.512
847.500	512.763	80.003	19.994	103.713	19.825	6.861	0.520
855.000	516.544	80.005	19.994	103.715	19.828	6.607	0.530
862.500	520.301	80.007	19.994	103.718	19.836	6.054	0.483
870.000	524.061	80.007	19.994	103.717	19.838	5.945	0.519
877.500	527.922	80.006	19.992	103.719	19.841	5.680	0.532
885.000	531.763	80.007	19.994	103.717	19.846	5.370	0.521
892.500	535.603	80.008	19.993	103.718	19.850	5.093	0.503
900.000	539.486	80.005	19.994	103.714	19.848	5.197	0.542
907.500	543.301	80.004	19.995	103.716	19.849	5.164	0.502
915.000	547.167	80.007	19.993	103.717	19.848	5.188	0.531
922.500	551.030	80.005	19.995	103.717	19.842	5.634	0.496
930.000	554.935	80.005	19.994	103.718	19.838	5.901	0.522
937.500	558.825	80.006	19.994	103.719	19.837	5.996	0.524
945.000	562.639	80.007	19.994	103.731	19.836	6.061	0.506
952.500	566.551	80.005	19.994	103.729	19.832	6.348	0.531
960.000	570.482	80.007	19.993	103.729	19.826	6.729	0.503
967.500	574.366	80.008	19.993	103.716	19.826	6.756	0.559
975.000	578.191	80.007	19.994	103.726	19.827	6.720	0.538
982.500	582.039	80.006	19.994	103.732	19.829	6.522	0.523
990.000	585.862	80.004	19.993	103.741	19.833	6.244	0.527
997.500	589.645	80.004	19.993	103.726	19.840	5.811	0.520
1005.000	593.480	80.004	19.994	103.726	19.844	5.474	0.515
1012.500	597.365	80.005	19.995	103.733	19.850	5.074	0.511
1020.000	601.160	80.003	19.995	103.725	19.858	4.489	0.507
1027.499	604.982	80.006	19.994	103.713	19.858	4.500	0.521
1034.999	608.918	80.009	19.994	103.720	19.855	4.723	0.516
1042.499	612.813	80.004	19.996	103.720	19.860	4.402	0.494
1049.999	616.711	80.007	19.993	103.715	19.861	4.312	0.482
1057.499	620.579	80.004	19.993	103.715	19.859	4.448	0.525
1064.999	624.390	80.004	19.994	103.721	19.860	4.381	0.457
1072.500	628.242	80.002	19.994	103.717	19.860	4.383	0.480
1079.999	632.144	80.002	19.993	103.717	19.862	4.252	0.434
1087.499	635.994	80.007	19.995	103.716	19.865	4.017	0.614
1094.999	639.918	80.006	19.994	103.716	19.863	4.163	0.532
1102.499	643.821	80.005	19.997	103.723	19.862	4.195	0.523
1109.999	647.802	80.000	19.994	103.712	19.864	4.077	0.518
1117.500	652.361	80.006	19.995	103.714	19.865	4.027	0.687
1124.999	655.703	80.008	19.995	103.714	19.866	3.971	0.472
1132.499	659.689	80.007	19.995	103.715	19.860	4.389	0.519
1139.999	663.566	80.004	19.993	103.721	19.857	4.562	0.537
1147.499	667.418	80.004	19.993	103.716	19.860	4.383	0.489
1154.999	671.267	80.004	19.993	103.714	19.862	4.237	0.525
1162.500	675.139	80.005	19.994	103.717	19.866	3.935	0.513
1169.999	679.035	80.005	19.994	103.714	19.864	4.102	0.508
1177.500	682.903	80.004	19.994	103.711	19.863	4.161	0.530
1184.999	686.670	80.006	19.994	103.715	19.860	4.383	0.502
1192.499	690.437	80.006	19.994	103.711	19.860	4.392	0.527
1199.999	694.215	80.004	19.994	103.715	19.859	4.437	0.496
1207.499	698.017	80.007	19.994	103.719	19.863	4.123	0.536
1215.000	701.859	80.005	19.995	103.715	19.865	4.034	0.521
1222.499	705.618	80.004	19.997	103.713	19.862	4.213	0.471
1229.999	709.440	80.003	19.996	103.718	19.864	4.121	0.517
1237.499	713.306	80.009	19.996	103.717	19.861	4.265	0.529
1244.999	717.217	80.012	19.994	103.710	19.858	4.521	0.504
1252.499	721.112	80.007	19.993	103.712	19.855	4.735	0.511
1259.999	724.848	80.008	19.994	103.705	19.856	4.675	0.493
1267.499	728.677	80.008	19.993	103.696	19.854	4.755	0.492
1275.000	732.499	80.009	19.995	103.716	19.853	4.829	0.541
1282.499	736.240	80.007	19.995	103.718	19.849	5.117	0.493
1290.000	740.120	80.027	19.992	103.705	19.851	5.024	0.541
1296.500	743.470	80.011	19.994	103.709	19.850	5.087	0.510