Folder: fsri_materials_database/01_Data/Engineered_Flooring/Cone (part 2)

File: Engineered_Flooring_Cone_HF25Scan_220524_R3.csv
Names,Time,Stack TC,Smoke TC,Exh Press,Smoke Comp,Smoke Meas,CO Meter,CO2 Meter,O2 Meter,Sample Mass,Ext Coeff,Start Test,Flame Verif
Chan Gain,,500,500,1,1,1,1,1,1,1,1,1.0,1.0
Offset,,0,0,0.138596,0,0,0,0,0,0,0,0.0,0.0
Gain,,1,1,25.011,13.8491,15.2622,1,1,1,1.00087,1.03118,1.0,1.0
Units,sec,C,C,Pa,%,%,%,%,%,g,/m,,
Baseline,,24.1586,24.3721,142.045,103.713,103.667,0.00076372,0.0437537,21.0035,-450.525,0.00402361,,
36,8.75,22.4946,22.771,139.764,103.519,103.221,0.000953559,0.0483375,20.9998,122.246,0.0261112,0.0,0.0
72,17.75,22.1793,22.6973,140.961,103.554,103.44,0.000873831,0.0485645,20.9991,122.216,0.00993975,0.0,0.0
108,26.75,22.2293,22.1716,139.851,103.568,103.614,0.000927009,0.0445974,21.0024,122.256,-0.00402567,0.0,0.0
144,35.75,22.3509,22.9022,143.45,103.613,103.288,0.000540519,0.0438457,21.005,122.176,0.0283935,0.0,0.0
180,44.75,22.0758,22.3539,145.955,103.719,103.516,0.000618193,0.0430166,21.0056,122.126,0.0177229,0.0,0.0
216,53.75,22.5577,23.1454,143.991,103.867,103.706,0.000741061,0.0442162,21.005,122.086,0.0139867,0.0,0.0
252,62.75,22.6739,22.6572,142.178,104.016,103.545,0.000601291,0.0455251,21.0019,122.066,0.0410419,0.0,0.0
288,71.75,22.6138,23.2198,141.522,104.186,104.286,0.00075093,0.0484099,20.9999,122.006,-0.00870341,0.0,0.0
324,80.75,22.5828,23.0658,139.274,104.289,103.869,0.000802714,0.0472528,21.003,121.926,0.036512,0.0,0.0
360,89.75,23.3945,22.9329,143.183,104.416,104.347,0.00112001,0.0514908,21.0002,121.856,0.00598154,0.0,0.0
396,98.75,22.7251,23.5908,141.505,104.544,104.065,0.00126844,0.0521572,21.0023,121.766,0.0415325,0.0,0.0
432,107.75,22.9821,23.4756,140.042,104.629,102.281,0.00135126,0.0545019,21.0025,121.626,0.205241,0.0,0.0
468,116.75,23.0139,23.9172,143.866,104.688,100.982,0.00196607,0.0541882,21.0034,121.366,0.326014,0.0,0.0
504,125.75,23.2822,23.6284,141.096,104.744,100.778,0.00142674,0.0539246,21.0016,121.145,0.349083,0.0,0.0
540,134.75,23.548,23.8682,140.717,104.75,99.4063,0.00172999,0.0547151,21.0036,120.865,0.473598,0.0,0.0
576,143.75,23.7829,23.9666,131.35,104.696,104.871,0.00312278,0.125627,20.9002,120.415,-0.0150813,0.0,1.0
612,152.75,29.2475,26.6112,125.199,104.613,107.385,0.00421226,0.361927,20.614,119.074,-0.236617,0.0,0.0
648,161.75,34.2755,31.9448,127.539,104.459,106.62,0.00376229,0.344922,20.6391,117.953,-0.185199,0.0,0.0
684,170.75,37.1235,34.9836,127.366,104.235,106.885,0.00340808,0.324719,20.6689,116.852,-0.227036,0.0,0.0
720,179.75,39.579,37.9079,129.518,103.927,106.439,0.00348421,0.32203,20.6723,115.751,-0.216051,0.0,0.0
756,188.75,41.4243,40.6874,128.911,103.628,106.225,0.00340691,0.312014,20.6863,114.73,-0.223944,0.0,0.0
792,197.75,42.3687,42.2674,127.544,103.44,106.144,0.00324416,0.294438,20.7047,113.689,-0.233435,0.0,0.0
828,206.75,43.0648,43.7466,128.483,103.467,106.74,0.0030163,0.291952,20.7076,112.648,-0.281696,0.0,0.0
864,215.75,43.4129,44.3131,125.81,103.802,106.36,0.00292516,0.287368,20.71,111.657,-0.220178,0.0,0.0
900,224.75,44.0539,45.0919,132.419,104.194,106.897,0.00271058,0.28065,20.7182,110.656,-0.231656,0.0,0.0
936,233.75,43.6043,45.3296,127.267,104.537,107.444,0.00228774,0.267179,20.735,109.635,-0.248139,0.0,0.0
972,242.75,43.1272,45.2916,128.777,104.734,107.412,0.00244587,0.258298,20.7452,108.825,-0.228371,0.0,0.0
1008,251.75,43.2988,45.7189,127.87,104.84,108.409,0.00248674,0.241424,20.7651,108.074,-0.302765,0.0,0.0
1044,260.75,42.0822,45.0204,132.307,104.84,107.9,0.0022356,0.22456,20.7871,107.223,-0.260229,0.0,0.0
1080,269.75,41.4463,44.6732,130.253,104.797,107.239,0.00265968,0.209061,20.8048,106.543,-0.208368,0.0,0.0
1116,278.75,40.538,43.7345,133.382,104.648,106.733,0.00256827,0.198094,20.8193,105.892,-0.178415,0.0,0.0
1152,287.75,39.5972,43.0169,135.011,104.412,106.277,0.00262601,0.192174,20.8271,105.202,-0.160096,0.0,0.0
1188,296.75,38.958,42.1531,135.23,104.22,106.735,0.00251997,0.185631,20.8354,104.571,-0.215695,0.0,0.0
1224,305.75,38.2009,41.604,135.962,104.065,105.868,0.00209653,0.183587,20.8392,103.87,-0.155372,0.0,0.0
1260,314.75,37.9579,40.8394,135.051,103.977,107.005,0.00281038,0.177324,20.8465,103.18,-0.25964,0.0,0.0
1296,323.75,37.3921,40.2797,133.509,103.988,105.459,0.0023462,0.173863,20.8526,102.689,-0.127087,0.0,0.0
1332,332.75,36.7857,39.793,137.208,104.036,105.648,0.00229651,0.17134,20.8553,102.089,-0.139141,0.0,0.0
1368,341.75,36.6509,39.2253,136.036,104.081,106.417,0.00246665,0.170244,20.8581,101.508,-0.200769,0.0,0.0
1404,350.75,36.1114,38.5658,137.923,104.07,106.184,0.00236531,0.17008,20.8581,100.988,-0.181874,0.0,0.0
1440,359.75,35.8823,38.5035,131.634,104.073,105.356,0.00242052,0.169419,20.8597,100.457,-0.110794,0.0,0.0
1476,368.75,35.8205,38.1203,136.624,104.027,106.213,0.00255248,0.167929,20.86,99.8769,-0.188157,0.0,0.0
1512,377.75,35.3216,37.947,135.177,104.015,105.594,0.00280159,0.170736,20.859,99.2764,-0.136313,0.0,0.0
1548,386.75,35.2008,37.1814,134.071,104.037,105.005,0.00284043,0.173571,20.8544,98.6559,-0.0838281,0.0,0.0
1584,395.75,35.1191,36.9233,133.031,104.092,106.189,0.00251887,0.179009,20.8494,98.1655,-0.180396,0.0,0.0
1620,404.75,36.0386,37.6933,134.473,104.127,106.387,0.00254471,0.188939,20.8376,97.635,-0.194195,0.0,0.0
1656,413.75,35.9468,37.6764,133.217,104.127,105.824,0.00242014,0.202618,20.8218,96.9944,-0.146229,0.0,0.0
1692,422.75,36.218,37.8708,133.746,104.095,106.365,0.00245399,0.215728,20.8036,96.3539,-0.195127,0.0,0.0
1728,431.75,37.4695,38.9338,132.177,104.04,106.585,0.00273782,0.230681,20.7838,95.6132,-0.218579,0.0,0.0
1764,440.75,38.3293,39.6116,129.172,103.964,106.709,0.00267919,0.244921,20.7649,94.8826,-0.235701,0.0,0.0
1800,449.75,39.261,40.5182,126.984,103.899,106.393,0.00238404,0.262191,20.7431,94.0919,-0.214597,0.0,0.0
1836,458.75,40.6196,41.7531,131.489,103.858,106.594,0.00239758,0.271457,20.7333,93.1911,-0.235181,0.0,0.0
1872,467.75,41.2102,42.142,128.524,103.822,106.002,0.00242192,0.280042,20.7242,92.2803,-0.187895,0.0,0.0
1908,476.75,42.1945,43.0198,130.015,103.794,107.236,0.00266155,0.299536,20.7004,91.4996,-0.295082,0.0,0.0
1944,485.75,43.7796,44.644,128.017,103.762,106.643,0.00238821,0.306255,20.6916,90.5788,-0.247727,0.0,0.0
1980,494.75,44.1876,45.6074,126.069,103.72,106.485,0.00265764,0.310996,20.6874,89.6681,-0.237933,0.0,0.0
2016,503.75,45.2186,46.4695,128.548,103.682,107.114,0.00246128,0.3149,20.6865,88.7172,-0.294509,0.0,0.0
2052,512.75,46.0254,47.4342,129.448,103.636,106.766,0.00260602,0.326158,20.6764,87.7064,-0.269176,0.0,0.0
2088,521.75,46.7952,48.6035,122.968,103.569,106.42,0.00295849,0.3382,20.6632,86.7155,-0.2456,0.0,0.0
2124,530.75,47.8075,49.6102,128.967,103.501,106.022,0.00299749,0.359699,20.6342,85.5245,-0.217633,0.0,0.0
2160,539.75,49.5796,50.9849,123.08,103.47,105.575,0.00383029,0.400076,20.59,84.3034,-0.182177,0.0,0.0
2196,548.75,51.7747,53.293,119.318,103.463,104.421,0.00467127,0.456982,20.5206,82.9122,-0.0834145,0.0,0.0
2232,557.75,54.6941,55.6357,124.876,103.499,103.54,0.00560512,0.522718,20.4365,81.4409,-0.00353645,0.0,0.0
2268,566.75,57.9356,59.098,115.674,103.588,103.661,0.00571269,0.546505,20.4034,79.8395,-0.00639661,0.0,0.0
2304,575.75,60.2725,61.4277,121.128,103.742,104.031,0.00554116,0.539999,20.4065,78.2781,-0.0251854,0.0,0.0
2340,584.75,61.775,63.4955,117.906,103.948,103.739,0.00528792,0.558013,20.3795,76.7568,0.0182448,0.0,0.0
2376,593.75,63.356,65.2812,118.813,104.162,104.45,0.00571597,0.582906,20.3461,75.1454,-0.0249643,0.0,0.0
2412,602.75,65.2419,67.3655,124.339,104.361,103.673,0.00564042,0.581524,20.3474,73.534,0.0598738,0.0,0.0
2448,611.75,66.1181,68.6714,115.263,104.594,103.479,0.00496154,0.542696,20.3915,72.1028,0.0968794,0.0,0.0
2484,620.75,65.4113,69.0365,122.218,104.741,104.852,0.00466154,0.465001,20.4877,70.9117,-0.00956801,0.0,0.0
2520,629.75,62.9421,67.3482,119.815,104.834,103.623,0.00390057,0.375323,20.5976,69.9409,0.105044,0.0,0.0
2556,638.75,59.3338,64.9906,127.747,104.862,105.724,0.00338865,0.298151,20.6843,69.2503,-0.0740432,0.0,0.0
2592,647.75,55.8853,61.5835,129.248,104.85,106.381,0.00306353,0.241039,20.7555,68.6398,-0.131154,0.0,0.0
2628,656.75,52.3683,58.5457,131.954,104.743,106.961,0.00316186,0.196838,20.8112,68.2094,-0.189596,0.0,0.0
2664,665.75,49.0238,55.0136,132.943,104.66,106.122,0.00340199,0.161639,20.8535,67.8791,-0.125458,0.0,0.0
2700,674.75,45.9023,52.4068,137.082,104.554,106.267,0.00475561,0.12942,20.895,67.6089,-0.147002,0.0,0.0
2736,683.75,42.9014,48.9659,137.772,104.431,105.936,0.00581421,0.105163,20.9229,67.3887,-0.12942,0.0,0.0
2772,692.75,39.9525,45.1947,134.199,104.371,105.586,0.0064744,0.0902061,20.9375,67.3186,-0.1047,0.0,0.0
2808,701.75,37.9617,43.051,141.87,104.597,105.9,0.0076802,0.0814998,20.9473,67.2185,-0.112021,0.0,0.0
2844,710.75,36.0194,40.7328,140.467,104.943,105.753,0.00835687,0.077742,20.9519,67.0984,-0.0695527,0.0,0.0
2880,719.75,34.0323,38.6748,142.442,105.157,106.05,0.00858655,0.0737634,20.9569,66.9783,-0.0765196,0.0,0.0
2916,728.75,32.8396,36.3945,137.916,105.248,105.663,0.00933183,0.0731442,20.9592,66.8982,-0.0356369,0.0,0.0
2952,737.75,30.1302,33.6103,137.93,105.261,105.255,0.0108644,0.0696756,20.9629,66.8582,0.00056178,0.0,0.0
2988,746.75,29.3182,32.1695,137.285,105.19,105.712,0.0114099,0.069294,20.9632,66.7081,-0.0447968,0.0,0.0
3024,755.75,28.7106,30.7365,145.637,105.095,105.185,0.0114781,0.0706093,20.9611,66.638,-0.00771695,0.0,0.0
3060,764.75,28.233,30.1035,135.231,104.993,105.417,0.0113361,0.0710349,20.9632,66.568,-0.0364094,0.0,0.0
3096,773.75,27.1192,29.183,140.524,104.777,105.154,0.0113676,0.0718117,20.9633,66.4779,-0.0325067,0.0,0.0
3132,782.75,26.9997,28.8544,138.336,104.736,105.502,0.0113276,0.0725555,20.9599,66.4378,-0.0659257,0.0,0.0
3168,791.75,26.4416,27.8703,139.107,104.849,105.825,0.0114351,0.0726307,20.9603,66.3778,-0.0838134,0.0,0.0
3204,800.75,26.7265,27.9123,138.471,104.998,105.425,0.0116264,0.0743324,20.9601,66.3077,-0.0366914,0.0,0.0
3240,809.75,26.4529,26.7201,142.14,105.116,104.979,0.0111373,0.0744281,20.96,66.1376,0.0118267,0.0,0.0
3276,818.75,25.8679,27.0487,137.922,105.268,105.586,0.0111789,0.075276,20.9597,66.1576,-0.0272683,0.0,0.0
3312,827.75,26.0634,26.7866,139.851,105.401,105.991,0.0111663,0.0756384,20.9577,66.0075,-0.0504872,0.0,0.0
3348,836.75,25.9535,26.3265,142.45,105.486,105.675,0.01095,0.076028,20.9555,65.9074,-0.0161296,0.0,0.0
3384,845.75,26.0037,26.1865,135.841,105.549,105.71,,,,65.8974,-0.0137977,0.0,0.0
3415,853.5,25.7445,25.539,140.187,105.567,105.705,,,,65.7673,-0.0118049,0.0,0.0

File: Engineered_Flooring_Cone_HF50Scalar_220524_R1.csv
LABORATORY,FSRI
TEST IDENT,Engr_Hardwood_50_1
OPERATOR,Dow
MATERIAL,Engineered Hardwood Floor
ORIENTATION,Horizontal
HEAT FLUX,50
SURF AREA,0.01
C FACTOR,0.0419572
SPEC HOLDER DIFF,-566
SPECIMEN MASS,73.48
SCAN TIME,0.25
O2 DELAY TIME,11
CO DELAY TIME,11
CO2 DELAY TIME,8
FLOW FACTOR,1
SCAN COUNT,5593
TIME TO IGN,26.75
END OF TEST SCAN,5113
END OF TEST TIME,1278.25
TEST STATUS,1
PRE TEST CMT,Dimensions: 99.62 x 100.18 x 8.65 mm; with tie wires

File: Engineered_Flooring_Cone_HF50Scalar_220524_R2.csv
LABORATORY,FSRI
TEST IDENT,Engr_Hardwood_50_2
OPERATOR,Dow
MATERIAL,Engineered Hardwood Floor
ORIENTATION,Horizontal
HEAT FLUX,50
SURF AREA,0.01
C FACTOR,0.0419572
SPEC HOLDER DIFF,-566
SPECIMEN MASS,73.28
SCAN TIME,0.25
O2 DELAY TIME,11
CO DELAY TIME,11
CO2 DELAY TIME,8
FLOW FACTOR,1
SCAN COUNT,6499
TIME TO IGN,27
END OF TEST SCAN,6019
END OF TEST TIME,1504.75
TEST STATUS,1
PRE TEST CMT,Dimensions: 99.88 x 100.06 x 8.65; with tie wires

File: Engineered_Flooring_Cone_HF50Scalar_220524_R3.csv
LABORATORY,FSRI
TEST IDENT,Engr_Hardwood_50_3
OPERATOR,Dow
MATERIAL,Engineered Hardwood Floor
ORIENTATION,Horizontal
HEAT FLUX,50
SURF AREA,0.01
C FACTOR,0.0412233
SPEC HOLDER DIFF,-566
SPECIMEN MASS,73.81
SCAN TIME,0.25
O2 DELAY TIME,11
CO DELAY TIME,11
CO2 DELAY TIME,8
FLOW FACTOR,1
SCAN COUNT,4704
TIME TO IGN,25.5
END OF TEST SCAN,4224
END OF TEST TIME,1056
TEST STATUS,1
PRE TEST CMT,Dimensions: 99.88 x 100.04 x 8.65 mm; with tie wires

File: Engineered_Flooring_Cone_HF50Scan_220524_R1.csv
Names,Time,Stack TC,Smoke TC,Exh Press,Smoke Comp,Smoke Meas,CO Meter,CO2 Meter,O2 Meter,Sample Mass,Ext Coeff,Start Test,Flame Verif
Chan Gain,,500,500,1,1,1,1,1,1,1,1,1.0,1.0
Offset,,0,0,0.13752,0,0,0,0,0,0,0,0.0,0.0
Gain,,1,1,25.011,13.8491,15.2622,1,1,1,1.00087,1.03118,1.0,1.0
Units,sec,C,C,Pa,%,%,%,%,%,g,/m,,
Baseline,,34.1391,35.1614,138.054,104.852,107.38,0.00047086,0.0461488,20.9902,-452.397,-0.215413,,
59,14.5,32.3947,33.1821,136.409,103.6,105.793,0.000322029,0.0441443,20.9977,118.073,-0.189465,0.0,0.0
118,29.25,33.941,34.7122,120.914,103.494,107.409,0.00313206,0.213262,20.7648,117.352,-0.335795,0.0,1.0
177,44,50.4929,48.3974,120.071,103.537,104.13,0.00579234,0.544842,20.386,114.71,-0.0515847,0.0,0.0
236,58.75,61.445,59.3527,115.896,103.743,105.875,0.00552094,0.600577,20.3212,111.917,-0.183966,0.0,0.0
295,73.5,67.1913,67.1781,118.453,104.108,108.449,0.00419319,0.5059,20.4334,109.265,-0.369487,0.0,0.0
354,88.25,68.4119,69.6087,123.576,104.525,109.401,0.00367394,0.415653,20.5381,106.983,-0.412374,0.0,0.0
413,103,66.7865,70.9676,124.572,104.803,110.398,0.00276379,0.354953,20.6133,104.981,-0.470453,0.0,0.0
472,117.75,65.0974,69.6917,125.245,104.813,110.313,0.00271543,0.327175,20.6456,103.09,-0.462555,0.0,0.0
531,132.5,63.9929,68.9457,125.846,104.742,110.674,0.00263575,0.310706,20.6687,101.298,-0.49831,0.0,0.0
590,147.25,63.0856,67.9961,123.195,104.726,110.849,0.00236773,0.307768,20.673,99.5066,-0.513923,0.0,0.0
649,162,62.6004,67.7469,123.272,104.757,109.552,0.0024974,0.310797,20.6709,97.7551,-0.404822,0.0,0.0
708,176.75,62.5431,67.2063,127.734,104.782,110.194,0.00235938,0.311977,20.6712,95.9836,-0.455548,0.0,0.0
767,191.5,62.5402,67.0961,125.811,104.761,110.581,0.00236776,0.314313,20.6714,94.242,-0.489087,0.0,0.0
826,206.25,62.0812,67.1991,128.961,104.692,109.641,0.00260199,0.315219,20.6728,92.4705,-0.417825,0.0,0.0
885,221,62.1111,66.2637,122.438,104.724,109.574,0.00237782,0.315213,20.6742,90.719,-0.409516,0.0,0.0
944,235.75,61.7192,66.8748,118.973,104.802,109.269,0.0029994,0.328946,20.6566,89.0075,-0.377543,0.0,0.0
1003,250.5,63.1984,66.2603,119.363,104.722,108.659,0.00292518,0.341796,20.6405,87.2259,-0.333828,0.0,0.0
1062,265.25,63.6137,67.8813,120.365,104.503,107.746,0.0034666,0.364978,20.6105,85.4144,-0.276403,0.0,0.0
1121,280,65.6506,68.9977,121.46,104.273,107.444,0.00377606,0.39624,20.5713,83.5427,-0.270912,0.0,0.0
1180,294.75,67.4252,70.8306,119.276,104.711,107.739,0.00431622,0.435621,20.5204,81.4609,-0.257875,0.0,0.0
1239,309.5,69.9088,73.5732,121.409,105.138,107.153,0.00502058,0.486979,20.4572,79.1389,-0.171744,0.0,0.0
1298,324.25,73.2905,76.208,113.871,105.144,105.133,0.00564072,0.532832,20.4054,76.6567,0.000948859,0.0,0.0
1357,339,76.0549,79.7488,112.837,104.902,103.201,0.00687163,0.597252,20.3369,73.9344,0.147903,0.0,0.0
1416,353.75,81.1592,84.4121,106.984,104.663,101.272,0.00803623,0.700591,20.2035,70.9117,0.297867,0.0,0.0
1475,368.5,86.4723,89.8274,110.816,104.856,100.585,0.00812511,0.767163,20.111,67.6689,0.376152,0.0,0.0
1534,383.25,85.5273,91.0182,120.084,105.202,103.728,0.00565399,0.537516,20.3659,65.1968,0.12765,0.0,0.0
1593,398,80.598,87.1369,124.392,105.496,108.337,0.00363445,0.383886,20.5653,63.5854,-0.240436,0.0,0.0
1652,412.75,73.4396,80.8941,125.288,105.428,112.325,0.00198434,0.219036,20.7712,62.6345,-0.573179,0.0,0.0
1711,427.5,65.5625,73.1413,130.762,104.847,109.895,0.00182411,0.132438,20.8726,62.1641,-0.425314,0.0,0.0
1770,442.25,59.1746,66.633,132.514,103.968,108.628,0.00273015,0.111587,20.8982,61.8438,-0.396591,0.0,0.0
1829,457,54.2177,61.8456,132.294,103.506,107.966,0.00305545,0.105633,20.9074,61.5436,-0.381592,0.0,0.0
1888,471.75,51.9393,57.7608,129.87,103.74,108.728,0.00348459,0.102425,20.9134,61.3434,-0.424769,0.0,0.0
1947,486.5,50.5372,54.626,133.726,104.144,109.382,0.00363218,0.102538,20.9156,61.2133,-0.443847,0.0,0.0
2006,501.25,48.7122,52.4851,133.271,104.415,109.711,0.00406144,0.100685,20.9153,61.0431,-0.447574,0.0,0.0
2065,516,47.3284,50.4231,134.761,104.56,109.323,0.00398136,0.0996532,20.9181,60.853,-0.402944,0.0,0.0
2124,530.75,46.3078,49.4363,132.955,104.62,109.961,0.00419268,0.0999958,20.918,60.7028,-0.450356,0.0,0.0
2183,545.5,45.8181,47.847,133.096,104.554,109.124,0.00511617,0.099973,20.9214,60.5427,-0.386983,0.0,0.0
2242,560.25,45.1611,46.7866,133.484,104.428,109.283,0.00542704,0.0997852,20.9226,60.3826,-0.411044,0.0,0.0
2301,575,44.8642,45.9917,132.68,104.132,108.758,0.00564039,0.0998139,20.9189,60.2825,-0.39319,0.0,0.0
2360,589.75,44.3395,45.7979,133.919,103.932,107.739,0.00593235,0.100447,20.9214,60.1724,-0.325412,0.0,0.0
2419,604.5,43.8301,45.3204,133.503,103.952,107.713,0.00612197,0.0998191,20.9222,60.0022,-0.321492,0.0,0.0
2478,619.25,43.5341,44.7194,131.455,104.123,107.895,0.00665082,0.0984383,20.9243,59.8221,-0.32189,0.0,0.0
2537,634,43.1823,44.7302,133.334,104.285,109.242,0.00704261,0.098004,20.9241,59.742,-0.420069,0.0,0.0
2596,648.75,43.2223,44.4244,142.391,104.455,109.97,0.00720403,0.0981766,20.9246,59.5418,-0.465385,0.0,0.0
2655,663.5,42.6978,43.726,135.557,104.611,109.169,0.00764855,0.0972688,20.9271,59.4317,-0.385792,0.0,0.0
2714,678.25,43.0327,43.5773,132.871,104.75,109.589,0.00752236,0.0968957,20.9261,59.2616,-0.408484,0.0,0.0
2773,693,42.5866,43.4627,133.884,104.817,109.315,0.00766891,0.0960809,20.9319,59.1515,-0.380122,0.0,0.0
2832,707.75,42.3139,43.3842,132.921,104.699,109.123,0.00792836,0.0960209,20.9298,59.0414,-0.374334,0.0,0.0
2891,722.5,41.9718,43.1813,134.055,104.442,109.119,0.00814452,0.0968338,20.9291,58.8913,-0.396291,0.0,0.0
2950,737.25,41.7291,42.4252,134.361,104.235,108.56,0.00824685,0.096991,20.9267,58.6811,-0.367794,0.0,0.0
3009,752,41.7959,43.1279,135.612,104.759,108.777,0.00819313,0.0976027,20.925,58.561,-0.340494,0.0,0.0
3068,766.75,41.5399,43.1333,131.862,105.079,108.57,0.00833589,0.0960097,20.9288,58.4109,-0.295624,0.0,0.0
3127,781.5,41.7786,42.8629,132.676,104.555,109.446,0.00887334,0.09592,20.9279,58.3108,-0.413548,0.0,0.0
3186,796.25,41.8116,41.8953,129.933,104.708,109.406,0.00826506,0.0955928,20.9302,58.2607,-0.39705,0.0,0.0
3245,811,41.4524,42.9594,137.679,104.819,108.01,0.00872624,0.0954148,20.931,58.0806,-0.27126,0.0,0.0
3304,825.75,41.0995,42.5277,138.582,104.836,109.34,0.00881545,0.0955625,20.9328,57.9805,-0.380524,0.0,0.0
3363,840.5,40.9176,42.5924,135.788,104.776,109.984,0.00887114,0.0979905,20.9293,57.8604,-0.438799,0.0,0.0
3422,855.25,41.3971,42.5712,133.841,104.773,109.175,0.00903633,0.09709,20.9287,57.7903,-0.372232,0.0,0.0
3481,870,41.1592,42.2185,133.874,104.682,109.922,0.00891314,0.0982849,20.9292,57.6602,-0.44188,0.0,0.0
3540,884.75,41.2107,42.4193,135.32,104.617,108.85,0.00907357,0.101155,20.9279,57.5301,-0.358806,0.0,0.0
3599,899.5,40.5475,42.3617,132.451,104.684,109.221,0.00894641,0.096324,20.9325,57.3699,-0.383793,0.0,0.0
3658,914.25,40.812,42.1062,130.892,104.917,109.83,0.00917009,0.0975106,20.9269,57.2298,-0.414006,0.0,0.0
3717,929,40.7558,41.7826,136.076,105.155,108.939,0.00879631,0.0964232,20.93,57.0997,-0.319796,0.0,0.0
3776,943.75,40.6725,42.1249,134.042,105.362,109.306,0.00908172,0.0967055,20.9294,56.9296,-0.332348,0.0,0.0
3835,958.5,40.4266,41.6852,133.68,105.459,109.262,0.00898083,0.0953872,20.9319,56.8195,-0.320493,0.0,0.0
3894,973.25,40.5061,41.9857,132.825,105.428,109.257,0.00895472,0.0952942,20.9316,56.7094,-0.322678,0.0,0.0
3953,988,40.6324,41.4575,137.55,105.359,108.951,0.00924237,0.0950725,20.9324,56.5592,-0.303259,0.0,0.0
4012,1002.75,40.6262,41.8023,136.319,105.222,109.662,0.00932042,0.0940029,20.9331,56.4591,-0.373877,0.0,0.0
4071,1017.5,40.4822,41.5166,135.302,104.828,108.899,0.00887066,0.0943063,20.9309,56.279,-0.344616,0.0,0.0
4130,1032.25,40.4973,41.9814,133.697,104.222,108.521,0.00914577,0.0943378,20.9342,56.1789,-0.365595,0.0,0.0
4189,1047,40.5944,42.3382,135.738,103.743,107.204,0.00893933,0.0940486,20.9343,55.9787,-0.296828,0.0,0.0
4248,1061.75,40.5289,42.0862,133.279,103.515,106.69,0.00909075,0.0954932,20.9317,55.8386,-0.273335,0.0,0.0
4307,1076.5,40.7441,41.6991,133.471,103.605,108.631,0.00901779,0.0944214,20.9322,55.7585,-0.428505,0.0,0.0
4366,1091.25,40.585,41.6134,135.522,104.008,107.975,0.00908948,0.0946442,20.932,55.6384,-0.3386,0.0,0.0
4425,1106,40.5279,41.8493,136.106,104.375,109.081,0.00922876,0.0939952,20.9329,55.5484,-0.398871,0.0,0.0
4484,1120.75,40.7056,42.1297,135.582,104.485,109.482,0.00924195,0.094926,20.9322,55.5183,-0.422586,0.0,0.0
4543,1135.5,40.1597,41.686,135.024,104.426,108.426,0.00905054,0.0943179,20.9327,55.2881,-0.340011,0.0,0.0
4602,1150.25,40.2334,41.8373,133.119,104.241,108.877,0.00914286,0.0949647,20.9339,55.2881,-0.393595,0.0,0.0
4661,1165,40.1968,41.6408,133.232,104.1,108.29,0.00903442,0.0944305,20.933,55.138,-0.356927,0.0,0.0
4720,1179.75,40.1442,41.6048,134.302,103.926,107.644,0.0088357,0.0951527,20.9305,54.9879,-0.317948,0.0,0.0
4779,1194.5,39.9779,41.9646,140.035,103.691,107.253,0.00896706,0.0948369,20.9337,54.9478,-0.305487,0.0,0.0
4838,1209.25,39.9107,41.4134,138.709,103.613,108.157,0.00925606,0.0962652,20.9317,54.7477,-0.388274,0.0,0.0
4897,1224,40.312,42.0413,136.138,103.589,107.362,0.00977429,0.0993131,20.9269,54.6676,-0.323526,0.0,0.0
4956,1238.75,40.0186,41.6377,131.585,103.626,107.286,0.00894449,0.0952204,20.9306,54.4874,-0.313993,0.0,0.0
5015,1253.5,40.2728,41.8617,133.489,103.677,107.659,0.00902505,0.0945667,20.9315,54.3974,-0.340893,0.0,0.0
5074,1268.25,39.6529,41.812,133.646,103.706,107.782,0.0087776,0.0932611,20.9359,54.2772,-0.348711,0.0,0.0
5133,1283,38.5541,39.5874,132.498,103.723,108.027,0.00862889,0.106345,20.9191,54.1371,-0.367811,0.0,0.0
5192,1297.75,38.5693,39.9717,131.988,103.796,108.455,0.00892584,0.0995685,20.9279,53.967,-0.39717,0.0,0.0
5251,1312.5,38.8206,40.4183,132.11,103.812,107.399,0.00908195,0.0953076,20.9315,53.8068,-0.307312,0.0,0.0
5310,1327.25,38.8333,40.0367,133.036,103.832,107.861,0.00856066,0.0944998,20.9337,53.7268,-0.344339,0.0,0.0
5369,1342,38.6694,40.1389,133.285,103.799,107.726,0.008671,0.094674,20.9333,53.5867,-0.335874,0.0,0.0
5428,1356.75,38.664,40.3188,134.518,103.811,108.25,0.00865416,0.0943712,20.9329,53.4966,-0.378771,0.0,0.0
5487,1371.5,38.9233,40.3507,131.753,103.906,108.854,0.00872332,0.094384,20.9324,53.3264,-0.420866,0.0,0.0
5546,1386.25,38.3965,40.5955,135.282,104.046,108.028,0.00875581,0.0936251,20.9342,53.2063,-0.339737,0.0,0.0
5593,1398,39.0374,40.5514,133.542,104.245,108.713,,,,53.1463,-0.379632,0.0,0.0