Folder: fsri_materials_database/01_Data/Engineered_Flooring/Cone (part 3)

File: Engineered_Flooring_Cone_HF50Scan_220524_R2.csv
Names,Time,Stack TC,Smoke TC,Exh Press,Smoke Comp,Smoke Meas,CO Meter,CO2 Meter,O2 Meter,Sample Mass,Ext Coeff,Start Test,Flame Verif
Chan Gain,,500,500,1,1,1,1,1,1,1,1,1.0,1.0
Offset,,0,0,0.13752,0,0,0,0,0,0,0,0.0,0.0
Gain,,1,1,25.011,13.8491,15.2622,1,1,1,1.00087,1.03118,1.0,1.0
Units,sec,C,C,Pa,%,%,%,%,%,g,/m,,
Baseline,,41.6037,42.8057,134.887,104.829,109.582,0.0003795,0.0556989,20.9823,-453.501,-0.401016,,
68,16.75,38.7646,40.0928,134.541,104.863,109.962,0.000182471,0.0638247,20.9727,118.073,-0.429486,0.0,0.0
136,33.75,46.1787,44.5689,112.59,104.955,107.929,0.00484285,0.552086,20.396,116.541,-0.25277,0.0,0.0
204,50.75,62.7219,59.7376,111.266,104.89,105.676,0.00587223,0.613563,20.3135,113.509,-0.0675682,0.0,0.0
272,67.75,72.4853,71.4723,117.269,104.909,108.716,0.00473828,0.57352,20.3434,110.346,-0.322472,0.0,0.0
340,84.75,73.65625,75.3906,113.474,105.007,110.458,0.00357191,0.441197,20.5038,107.644,-0.457699,0.0,0.0
408,101.75,72.4501,76.4281,118.455,104.936,112.017,0.00256668,0.381004,20.5782,105.232,-0.59066,0.0,0.0
476,118.75,70.989,75.7736,121.349,104.695,112.447,0.00238231,0.344637,20.6241,103.06,-0.646172,0.0,0.0
544,135.75,69.4036,74.2678,120.7,104.413,111.282,0.00234996,0.332029,20.638,101.058,-0.576367,0.0,0.0
612,152.75,68.2705,73.7012,120.829,104.54,111.079,0.00198894,0.32707,20.6477,99.0062,-0.548829,0.0,0.0
680,169.75,68.344,73.1464,122.939,105.136,112.248,0.00226559,0.330343,20.6443,97.0445,-0.592153,0.0,0.0
748,186.75,67.8476,72.5567,121.835,104.983,110.914,0.00218278,0.333459,20.6428,94.9527,-0.497149,0.0,0.0
816,203.75,67.2431,71.7091,124.851,105.087,111.464,0.0024249,0.331274,20.6484,93.021,-0.53291,0.0,0.0
884,220.75,67.0506,71.5931,118.126,105.639,111.835,0.0024889,0.337677,20.642,91.1493,-0.51556,0.0,0.0
952,237.75,66.9977,71.5694,123.611,105.158,110.988,0.00271344,0.341659,20.6363,89.1876,-0.488086,0.0,0.0
1020,254.75,67.4708,71.3674,121.848,104.076,108.513,0.00310739,0.366839,20.6043,87.0558,-0.377673,0.0,0.0
1088,271.75,68.8378,72.8031,117.647,103.8,108.948,0.00346487,0.405564,20.5568,84.964,-0.437807,0.0,0.0
1156,288.75,71.0817,74.373,116.619,104.05,108.249,0.00351082,0.452822,20.4992,82.652,-0.357836,0.0,0.0
1224,305.75,73.8724,77.6228,117.192,104.258,105.828,0.00464524,0.514728,20.4268,80.0297,-0.13525,0.0,0.0
1292,322.75,77.9495,80.7782,111.81,104.304,104.784,0.00609912,0.57407,20.3556,77.0871,-0.0415155,0.0,0.0
1360,339.75,81.8045,85.0823,112.938,104.334,104.132,0.00646428,0.64008,20.2746,73.8443,0.0175087,0.0,0.0
1428,356.75,85.7365,89.3213,111.899,104.405,102.344,0.0074047,0.71512,20.1798,70.4013,0.180337,0.0,0.0
1496,373.75,89.1779,92.9021,117.225,104.368,98.4734,0.00665216,0.701464,20.1795,66.8882,0.525838,0.0,0.0
1564,390.75,87.2095,92.7371,122.305,104.535,104.717,0.00496846,0.531491,20.3692,64.356,-0.0157003,0.0,0.0
1632,407.75,79.4406,87.0539,127.032,104.881,110.681,0.00227281,0.265397,20.7011,62.9548,-0.486842,0.0,0.0
1700,424.75,68.862,77.5313,130.728,105.072,112.009,0.00259236,0.15633,20.8382,62.3343,-0.578297,0.0,0.0
1768,441.75,62.7336,70.2061,128.91,105.082,111.978,0.00292869,0.133695,20.8664,62.1141,-0.574941,0.0,0.0
1836,458.75,57.6981,64.7384,128.443,104.983,111.158,0.00303451,0.12654,20.8781,61.8238,-0.516957,0.0,0.0
1904,475.75,54.6008,58.9525,130.808,104.79,111.92,0.00399994,0.122627,20.8859,61.5135,-0.595448,0.0,0.0
1972,492.75,52.569,57.1511,134.709,104.597,110.377,0.00388609,0.119956,20.8916,61.2533,-0.486518,0.0,0.0
2040,509.75,51.051,54.6368,133.573,104.481,110.464,0.00451479,0.117581,20.8954,61.1733,-0.503673,0.0,0.0
2108,526.75,49.5654,52.4963,132.498,104.429,111.165,0.00502907,0.115173,20.8982,60.9631,-0.565356,0.0,0.0
2176,543.75,48.861,51.0536,132.57,104.532,111.059,0.00553959,0.113837,20.9024,60.7229,-0.547893,0.0,0.0
2244,560.75,48.312,50.5558,128.935,104.899,112.022,0.00595818,0.114134,20.9024,60.4827,-0.594242,0.0,0.0
2312,577.75,47.7327,49.3912,136.402,105.22,111.885,0.00695691,0.112928,20.9041,60.3826,-0.555524,0.0,0.0
2380,594.75,46.8976,48.4071,135.318,105.17,110.885,0.00686101,0.110795,20.9086,60.2324,-0.478639,0.0,0.0
2448,611.75,46.6428,47.7958,132.433,104.807,110.172,0.00697685,0.109651,20.9088,60.0723,-0.451599,0.0,0.0
2516,628.75,46.0105,47.3158,130.746,105.164,111.232,0.00708749,0.112156,20.9088,59.8321,-0.50741,0.0,0.0
2584,645.75,45.7145,46.4577,135.294,105.518,111.542,0.0077537,0.112923,20.9071,59.6619,-0.502187,0.0,0.0
2652,662.75,45.9864,46.3825,131.5,105.693,112.274,0.00824057,0.110967,20.909,59.6019,-0.54642,0.0,0.0
2720,679.75,45.481,46.0381,133.871,105.667,112.207,0.00818603,0.111377,20.9085,59.4818,-0.543222,0.0,0.0
2788,696.75,45.1489,46.22,132.568,105.635,111.316,0.00859131,0.113676,20.9044,59.1915,-0.473819,0.0,0.0
2856,713.75,44.6699,46.3538,132.424,105.66,112.67,0.00874317,0.114925,20.9029,59.0814,-0.581007,0.0,0.0
2924,730.75,44.8871,45.7649,130.013,105.643,111.456,0.00845408,0.115038,20.9033,59.0314,-0.484479,0.0,0.0
2992,747.75,43.8889,45.4948,131.698,105.357,111.795,0.00885248,0.11575,20.9037,58.8212,-0.536524,0.0,0.0
3060,764.75,43.7345,45.9632,133.353,104.737,111.716,0.00890477,0.114602,20.9054,58.6611,-0.583543,0.0,0.0
3128,781.75,43.8812,44.867,130.835,105.166,111.043,0.00922342,0.114153,20.9056,58.3808,-0.491837,0.0,0.0
3196,798.75,43.2752,44.7477,132.407,104.822,111.128,0.00909199,0.114906,20.9036,58.2507,-0.528454,0.0,0.0
3264,815.75,43.5691,44.6715,133.621,104.685,111.033,0.00868404,0.114402,20.9032,58.1306,-0.532541,0.0,0.0
3332,832.75,43.4286,44.9962,134.527,104.602,110.062,0.00925186,0.116215,20.9031,58.0105,-0.460276,0.0,0.0
3400,849.75,43.104,44.8914,136.912,104.411,110.519,0.00906165,0.114616,20.9048,57.7503,-0.514285,0.0,0.0
3468,866.75,43.317,44.7478,132.597,104.513,110.014,0.00925337,0.114135,20.9067,57.6202,-0.463974,0.0,0.0
3536,883.75,43.158,44.6844,135.455,104.672,110.96,0.00916238,0.111786,20.9062,57.5301,-0.527676,0.0,0.0
3604,900.75,42.9958,44.245,132.633,104.718,111.249,0.00954326,0.110903,20.9088,57.4,-0.547318,0.0,0.0
3672,917.75,43.0345,44.1299,132.886,104.693,110.913,0.00938626,0.11078,20.9097,57.1598,-0.522053,0.0,0.0
3740,934.75,42.9564,44.3306,131.388,104.637,109.758,0.0094815,0.110617,20.9086,56.9896,-0.432175,0.0,0.0
3808,951.75,42.7682,44.2664,130.943,104.535,111.002,0.0093782,0.112341,20.9061,56.9195,-0.542971,0.0,0.0
3876,968.75,42.8725,44.2946,130.179,104.521,109.713,0.00930541,0.107186,20.9149,56.7994,-0.438469,0.0,0.0
3944,985.75,42.8465,44.0926,132.955,104.798,111.643,0.0096877,0.107326,20.913,56.6193,-0.57233,0.0,0.0
4012,1002.75,43.017,44.0749,134.769,104.837,110.796,0.00942834,0.110004,20.9116,56.4091,-0.500031,0.0,0.0
4080,1019.75,42.3713,44.1325,135.45,104.685,110.996,0.00962627,0.111327,20.9084,56.339,-0.529542,0.0,0.0
4148,1036.75,42.5129,43.7966,134.168,104.396,110.551,0.00959847,0.113173,20.9067,56.239,-0.518196,0.0,0.0
4216,1053.75,42.3249,43.5729,135.227,104.626,110.907,0.00971941,0.111126,20.9079,56.0988,-0.527405,0.0,0.0
4284,1070.75,41.9265,43.5913,130.256,105.02,110.967,0.00942409,0.110739,20.9096,55.8386,-0.498236,0.0,0.0
4352,1087.75,42.1171,43.4444,133.911,105.093,111.632,0.0091401,0.110449,20.9116,55.6685,-0.545995,0.0,0.0
4420,1104.75,41.9478,43.6155,131.889,104.979,111.32,0.00918552,0.112588,20.9066,55.5984,-0.530465,0.0,0.0
4488,1121.75,42.2479,43.2915,135.022,104.984,110.701,0.00939156,0.110852,20.9095,55.5083,-0.479589,0.0,0.0
4556,1138.75,41.665,43.3883,134.427,104.958,110.996,0.00940651,0.111963,20.9099,55.2481,-0.505946,0.0,0.0
4624,1155.75,41.9538,43.3648,129.109,104.841,110.056,0.00971335,0.114379,20.9072,55.0779,-0.439079,0.0,0.0
4692,1172.75,42.0848,43.3882,137.482,104.744,110.378,0.00925632,0.113923,20.9062,54.9879,-0.47392,0.0,0.0
4760,1189.75,41.7245,43.4595,133.832,104.674,110.206,0.00905557,0.109068,20.9119,54.8177,-0.465847,0.0,0.0
4828,1206.75,42.0088,43.6629,129.093,104.675,110.614,0.00899117,0.108502,20.9117,54.6276,-0.499203,0.0,0.0
4896,1223.75,42.1181,43.496,131.469,104.728,110.552,0.00942254,0.107654,20.9139,54.4674,-0.489533,0.0,0.0
4964,1240.75,41.8489,43.4629,133.884,104.892,110.239,0.00929023,0.105429,20.9137,54.3974,-0.449737,0.0,0.0
5032,1257.75,42.2068,43.7144,130.528,105.068,110.088,0.00904287,0.104546,20.9154,54.2873,-0.422158,0.0,0.0
5100,1274.75,41.9392,43.0816,131.352,105.171,111.161,0.00927144,0.113949,20.9046,54.0971,-0.501068,0.0,0.0
5168,1291.75,41.8729,44.4891,127.755,105.105,111.309,0.00893646,0.10892,20.9108,53.8869,-0.518823,0.0,0.0
5236,1308.75,41.9904,43.1314,130.603,104.861,111.569,0.00927474,0.104507,20.9141,53.7368,-0.560894,0.0,0.0
5304,1325.75,42.0946,43.3415,132.672,104.686,110.675,0.00901618,0.103402,20.9162,53.7368,-0.503167,0.0,0.0
5372,1342.75,41.6897,43.5132,131.672,104.609,110.878,0.00896599,0.105021,20.9158,53.5766,-0.526435,0.0,0.0
5440,1359.75,41.7767,43.3941,131.83,104.672,110.471,0.00866805,0.107339,20.9135,53.3965,-0.487758,0.0,0.0
5508,1376.75,42.004,43.6092,134.636,104.904,111.963,0.00839478,0.106533,20.9126,53.2263,-0.589103,0.0,0.0
5576,1393.75,41.4994,42.8396,133.007,105.116,110.04,0.00846951,0.107099,20.9148,53.1563,-0.414107,0.0,0.0
5644,1410.75,41.4623,43.3728,135.057,104.881,110.701,0.00875171,0.107117,20.9142,53.0061,-0.488517,0.0,0.0
5712,1427.75,41.7124,43.2195,132.988,104.254,110.009,0.00841599,0.106942,20.9116,52.786,-0.486079,0.0,0.0
5780,1444.75,41.5208,43.3552,130.701,103.864,109.261,0.00873934,0.106864,20.9139,52.6258,-0.458236,0.0,0.0
5848,1461.75,41.5523,43.3447,135.077,103.875,109.268,0.00837279,0.10651,20.9146,52.5758,-0.457856,0.0,0.0
5916,1478.75,41.9427,43.0181,134.764,103.963,110.454,0.0083692,0.104939,20.9169,52.4056,-0.54788,0.0,0.0
5984,1495.75,41.955,42.3898,134.126,104.053,109.515,0.00846003,0.106945,20.9152,52.2555,-0.462787,0.0,0.0
6052,1512.75,40.3382,41.7346,134.136,104.237,110.811,0.00828857,0.105756,20.9143,52.0653,-0.553218,0.0,0.0
6120,1529.75,39.7127,41.6564,128.815,104.375,110.678,0.00829123,0.10506,20.9156,51.9152,-0.530426,0.0,0.0
6188,1546.75,40.5004,41.9085,137.69,104.434,111.04,0.00808924,0.10505,20.9162,51.8551,-0.554828,0.0,0.0
6256,1563.75,40.259,41.5899,132.493,104.458,110.651,0.0080828,0.103776,20.9184,51.735,-0.521003,0.0,0.0
6324,1580.75,40.0552,41.8207,133.967,104.434,110.107,0.00759115,0.103058,20.9191,51.4948,-0.478435,0.0,0.0
6392,1597.75,40.1765,42.009,135.519,104.341,110.532,0.00792619,0.101425,20.9194,51.3647,-0.521321,0.0,0.0
6460,1614.75,39.8159,41.8892,133.678,104.275,109.581,,0.100815,,51.3047,-0.448945,0.0,0.0
6499,1624.5,39.7212,41.3334,133.587,104.168,110.643,,,,51.1846,-0.545424,0.0,0.0

File: Engineered_Flooring_Cone_HF50Scan_220524_R3.csv
Names,Time,Stack TC,Smoke TC,Exh Press,Smoke Comp,Smoke Meas,CO Meter,CO2 Meter,O2 Meter,Sample Mass,Ext Coeff,Start Test,Flame Verif
Chan Gain,,500,500,1,1,1,1,1,1,1,1,1.0,1.0
Offset,,0,0,0.138596,0,0,0,0,0,0,0,0.0,0.0
Gain,,1,1,25.011,13.8491,15.2622,1,1,1,1.00087,1.03118,1.0,1.0
Units,sec,C,C,Pa,%,%,%,%,%,g,/m,,
Baseline,,33.2298,34.3402,137.29,105.355,106.752,0.000846894,0.0462639,20.9958,-451.084,-0.11904,,
49,12,31.5713,32.9594,132.74,105.536,106.204,0.000643543,0.048149,20.996,120.115,-0.0570689,0.0,0.0
98,24.25,32.339,33.6543,137.056,105.53,103.783,0.00153306,0.0599814,20.978,119.924,0.151014,0.0,0.0
147,36.5,42.2729,40.2036,113.954,105.517,105.301,0.00564072,0.533813,20.4068,117.923,0.0185063,0.0,0.0
196,48.75,53.3259,51.042,113.357,105.543,105.601,0.00656771,0.582692,20.346,115.781,-0.00497397,0.0,0.0
245,61,62.1842,60.1041,115.772,105.539,107.628,0.00540252,0.600987,20.322,113.299,-0.177322,0.0,0.0
294,73.25,66.2417,65.8716,117.384,105.539,109.852,0.00436038,0.507869,20.4327,111.257,-0.362329,0.0,0.0
343,85.5,66.9705,68.5236,122.227,105.534,110.222,0.00350456,0.424692,20.5287,109.295,-0.393167,0.0,0.0
392,97.75,66.5718,69.2712,123.234,105.539,110.138,0.00317289,0.372622,20.5921,107.604,-0.385772,0.0,0.0
441,110,65.346,69.3567,126.448,105.528,110.661,0.00285442,0.338262,20.6319,106.032,-0.429644,0.0,0.0
490,122.25,64.3915,68.9406,121.45,105.472,110.096,0.00299637,0.320723,20.6578,104.461,-0.388129,0.0,0.0
539,134.5,63.047,68.0941,121.572,105.392,109.852,0.00242227,0.314136,20.6684,102.95,-0.374909,0.0,0.0
588,146.75,62.4821,67.7768,124.285,105.217,109.454,0.00277745,0.313196,20.6677,101.398,-0.357126,0.0,0.0
637,159,61.6144,66.947,124.221,105.042,108.965,0.00267508,0.311865,20.6736,100.027,-0.331671,0.0,0.0
686,171.25,61.1509,66.3671,122.919,105.016,110.065,0.00268288,0.314976,20.673,98.5658,-0.424759,0.0,0.0
735,183.5,61.4706,66.3059,123.089,105.069,109.581,0.00252171,0.311847,20.6774,96.9444,-0.380351,0.0,0.0
784,195.75,60.6577,65.033,121.855,105.223,108.753,0.00277423,0.316402,20.676,95.6032,-0.2985,0.0,0.0
833,208,60.2779,65.2808,122.64,105.386,110.212,0.00259533,0.318801,20.6723,94.0619,-0.404975,0.0,0.0
882,220.25,61.2536,65.7735,123.784,105.465,110.105,0.00297725,0.324144,20.6654,92.7708,-0.389511,0.0,0.0
931,232.5,60.9377,65.8136,122.091,105.485,108.829,0.00306549,0.330783,20.6576,91.2294,-0.282315,0.0,0.0
980,244.75,61.0133,65.3041,122.96,105.48,107.902,0.00342421,0.341154,20.6424,89.7882,-0.205379,0.0,0.0
1029,257,62.6222,66.6496,124.413,105.489,109.204,0.0032757,0.357195,20.6243,88.2668,-0.313063,0.0,0.0
1078,269.25,62.9578,66.885,119.692,105.482,109.231,0.0036021,0.379848,20.5966,86.7255,-0.315841,0.0,0.0
1127,281.5,64.8597,68.7892,117.932,105.398,108.666,0.0037628,0.404959,20.5622,85.1942,-0.276222,0.0,0.0
1176,293.75,66.54,69.8633,120.009,105.024,107.489,0.00425218,0.440032,20.5212,83.3826,-0.209835,0.0,0.0
1225,306,68.6325,71.9998,119.235,104.557,105.02,0.00483829,0.485418,20.4696,81.551,-0.0399899,0.0,0.0
1274,318.25,71.2352,74.5162,113.857,104.252,104.759,0.00604757,0.541799,20.4021,79.4091,-0.0438969,0.0,0.0
1323,330.5,74.8819,78.1622,113.738,104.085,104.099,0.00706225,0.602245,20.3299,77.0771,-0.00126278,0.0,0.0
1372,342.75,78.583,81.8153,113.018,104.022,102.359,0.00721503,0.651329,20.272,74.695,0.14582,0.0,0.0
1421,355,82.137,85.5115,112.622,103.955,100.989,0.00829814,0.710688,20.197,72.1028,0.261848,0.0,0.0
1470,367.25,84.8543,88.8635,110.191,103.915,97.5102,0.0083646,0.734936,20.1527,69.4705,0.575471,0.0,0.0
1519,379.5,84.6497,89.7252,114.859,103.882,98.7733,0.00756782,0.622108,20.2733,67.1985,0.456178,0.0,0.0
1568,391.75,83.0838,89.3119,120.422,103.868,102.995,0.00466558,0.495849,20.4329,65.517,0.0762674,0.0,0.0
1617,404,77.8911,85.0271,120.976,103.893,106.641,0.00304403,0.292018,20.6703,64.5162,-0.236114,0.0,0.0
1666,416.25,69.4105,77.5507,133.292,103.923,109.24,0.00232601,0.16392,20.834,63.9957,-0.451349,0.0,0.0
1715,428.5,63.342,71.453,135.904,103.932,107.203,0.00236269,0.123984,20.8853,63.7655,-0.280292,0.0,0.0
1764,440.75,58.0879,66.2983,127.814,103.865,108.269,0.00301713,0.114502,20.9001,63.4753,-0.375617,0.0,0.0
1813,453,54.5521,61.7741,134.218,103.79,108.593,0.00355831,0.109511,20.9068,63.3151,-0.409177,0.0,0.0
1862,465.25,52.2693,58.0878,133.774,103.663,106.1,0.00341015,0.107027,20.9113,63.175,-0.210173,0.0,0.0
1911,477.5,49.9405,55.2965,130.679,103.483,106.709,0.00361501,0.105191,20.9132,62.9248,-0.277647,0.0,0.0
1960,489.75,47.8808,52.4142,131.989,103.442,106.436,0.00385805,0.10586,20.9139,62.8547,-0.258141,0.0,0.0
2009,502,47.2367,50.9714,133.163,103.608,107.014,0.00426653,0.104529,20.9166,62.6345,-0.292617,0.0,0.0
2058,514.25,46.6218,49.743,130.77,103.91,107.201,0.00506579,0.106811,20.9155,62.5244,-0.282048,0.0,0.0
2107,526.5,45.4508,48.8326,133.538,104.239,107.958,0.00502908,0.103955,20.9209,62.4043,-0.317106,0.0,0.0
2156,538.75,44.792,46.9489,133.726,104.484,107.782,0.00536367,0.107001,20.9177,62.2142,-0.281096,0.0,0.0
2205,551,43.6946,45.8621,130.451,104.681,107.447,0.00540431,0.105048,20.9198,62.1441,-0.235913,0.0,0.0
2254,563.25,43.943,45.6841,133.689,104.766,107.817,0.00606251,0.102143,20.9232,61.9239,-0.259693,0.0,0.0
2303,575.5,43.3002,44.8399,134.063,104.82,107.904,0.00609945,0.101657,20.926,61.9039,-0.262253,0.0,0.0
2352,587.75,43.2669,44.365,133.822,104.78,108.315,0.00683258,0.10515,20.9226,61.6937,-0.300166,0.0,0.0
2401,600,42.3943,43.4544,132.571,104.709,107.247,0.00682585,0.105789,20.9233,61.6537,-0.216705,0.0,0.0
2450,612.25,42.3534,43.3855,130.978,104.6,107.839,0.00701954,0.103326,20.9229,61.5135,-0.275771,0.0,0.0
2499,624.5,42.6529,42.8212,130.803,104.508,107.575,0.00713361,0.100829,20.9265,61.3134,-0.261638,0.0,0.0
2548,636.75,41.764,43.0557,135.637,104.409,107.211,0.00754876,0.103272,20.9243,61.2833,-0.239527,0.0,0.0
2597,649,41.5548,42.5355,135.615,104.291,106.834,0.00785138,0.102441,20.9249,61.0732,-0.217899,0.0,0.0
2646,661.25,41.3742,42.3938,133.156,104.435,107.356,0.00766631,0.101004,20.9284,61.0431,-0.249467,0.0,0.0
2695,673.5,41.864,42.3796,134.906,104.861,107.746,0.00789421,0.101112,20.9285,60.843,-0.24547,0.0,0.0
2744,685.75,41.071,42.0609,135.302,105.143,107.525,0.00781361,0.100295,20.9285,60.7229,-0.202632,0.0,0.0
2793,698,40.7809,42.0185,130.177,105.163,107.524,0.00798217,0.0987409,20.9305,60.6728,-0.20077,0.0,0.0
2842,710.25,41.173,41.8321,135.45,104.852,107.881,0.00804104,0.101211,20.9278,60.5027,-0.257569,0.0,0.0
2891,722.5,40.7921,41.3038,133.679,104.75,107.339,0.00816946,0.101537,20.9273,60.4927,-0.22086,0.0,0.0
2940,734.75,40.6396,41.5569,137.523,105.028,108.687,0.00787163,0.10124,20.929,60.2725,-0.30976,0.0,0.0
2989,747,40.178,41.409,135.01,105.33,107.473,0.00866099,0.101821,20.927,60.2525,-0.182186,0.0,0.0
3038,759.25,40.3853,40.9418,133.735,105.52,108.06,0.00940068,0.0997314,20.9323,60.1424,-0.215163,0.0,0.0
3087,771.5,40.2808,41.3536,133.244,105.436,108.614,0.0093341,0.100346,20.9303,59.9322,-0.26862,0.0,0.0
3136,783.75,40.2824,41.5268,135.769,105.109,107.408,0.00952814,0.100207,20.9273,59.8921,-0.195738,0.0,0.0
3185,796,39.7238,40.888,134.18,104.637,106.452,0.00945963,0.0985075,20.9317,59.682,-0.155607,0.0,0.0
3234,808.25,39.5375,40.7957,135.856,104.15,106.822,0.00996634,0.0992742,20.9299,59.702,-0.229088,0.0,0.0
3283,820.5,39.5772,40.6998,132.916,103.693,106.384,0.00956379,0.0987312,20.9332,59.5819,-0.231705,0.0,0.0
3332,832.75,39.6296,41.1727,134.838,103.489,105.367,0.00968865,0.0984106,20.9313,59.4117,-0.162659,0.0,0.0
3381,845,39.5868,40.4915,135.429,103.543,106.603,0.00954372,0.0982145,20.932,59.4017,-0.263397,0.0,0.0
3430,857.25,39.7055,40.9352,131.407,103.699,106.868,0.0100103,0.097734,20.9326,59.1915,-0.272356,0.0,0.0
3479,869.5,39.3735,40.565,137.851,103.851,106.246,0.00962898,0.0986394,20.9315,59.1415,-0.206234,0.0,0.0
3528,881.75,39.4931,40.4396,136.392,103.921,106.283,0.00982493,0.0980794,20.9337,58.9213,-0.203297,0.0,0.0
3577,894,39.2211,40.1796,132.2,103.934,107.356,0.0100992,0.0989026,20.9305,58.8813,-0.292988,0.0,0.0
3626,906.25,39.0528,40.5594,134.54,103.884,106.267,0.0102071,0.100109,20.9275,58.8212,-0.205224,0.0,0.0
3675,918.5,39.2146,40.339,133.009,103.591,106.938,0.010137,0.0989939,20.9314,58.6611,-0.287634,0.0,0.0
3724,930.75,38.7892,40.1959,132.724,103.449,106.134,0.0106319,0.0997735,20.9304,58.6611,-0.231748,0.0,0.0
3773,943,38.6152,39.973,134.882,103.425,106.59,0.00988356,0.0992645,20.9305,58.4008,-0.272597,0.0,0.0
3822,955.25,39.0261,39.9534,133.49,103.53,105.109,0.00990633,0.0983979,20.93,58.3808,-0.136861,0.0,0.0
3871,967.5,38.8604,39.958,132.96,103.522,105.941,0.0100315,0.0987887,20.932,58.2407,-0.208945,0.0,0.0
3920,979.75,38.3259,39.9096,133.303,103.464,106.059,0.0103337,0.099265,20.9314,58.0706,-0.224064,0.0,0.0
3969,992,38.9876,40.2526,133.379,103.448,105.956,0.00984015,0.101173,20.9274,58.0505,-0.216684,0.0,0.0
4018,1004.25,38.5445,39.5872,130.61,103.521,106.858,0.00990242,0.105094,20.9235,57.8704,-0.286949,0.0,0.0
4067,1016.5,38.3686,39.8311,132.095,103.659,106.455,0.00959799,0.101457,20.9291,57.8504,-0.240749,0.0,0.0
4116,1028.75,38.3465,40.126,131.565,103.744,106.507,0.00992345,0.0989585,20.9309,57.7102,-0.237808,0.0,0.0
4165,1041,38.2571,39.6379,129.061,103.794,106.821,0.0100602,0.0988341,20.9314,57.6001,-0.260045,0.0,0.0
4214,1053.25,38.519,40.0562,134.613,103.819,106.665,0.0100216,0.0975218,20.932,57.5501,-0.244574,0.0,0.0
4263,1065.5,36.8949,38.4233,134.812,103.823,106.812,0.0103995,0.0973162,20.9336,57.3499,-0.256755,0.0,0.0
4312,1077.75,37.1997,38.4156,137.441,103.794,106.467,0.0098997,0.0971909,20.9341,57.3399,-0.229984,0.0,0.0
4361,1090,37.3425,38.657,137.193,103.769,107.189,0.0102487,0.0967806,20.9351,57.1698,-0.29336,0.0,0.0
4410,1102.25,36.7821,38.608,135.109,103.725,106.576,0.00989944,0.0954503,20.9346,57.0997,-0.245279,0.0,0.0
4459,1114.5,37.3264,38.5126,133.341,103.682,106.469,0.00972716,0.095947,20.9343,57.0296,-0.239945,0.0,0.0
4508,1126.75,36.9844,38.8176,131.879,103.579,106.019,0.00968926,0.095479,20.9363,56.7894,-0.210563,0.0,0.0
4557,1139,36.8725,38.7178,138.365,103.553,105.977,0.00957055,0.095765,20.9359,56.8595,-0.209275,0.0,0.0
4606,1151.25,37.5242,38.7372,132.534,103.498,106.233,0.00988053,0.0957493,20.9357,56.6593,-0.235951,0.0,0.0
4655,1163.5,37.3126,38.2302,133.432,103.469,105.965,0.00951616,0.0964145,20.9342,56.5893,-0.215628,0.0,0.0
4704,1175.75,37.1646,38.6076,132.9,103.458,106.478,,,,56.4792,-0.2603,0.0,0.0

File: Engineered_Flooring_Cone_HF75Scalar_220524_R1.csv
LABORATORY,FSRI
TEST IDENT,Engr_Hardwood_75_1
OPERATOR,Dow
MATERIAL,Engineered Hardwood Floor
ORIENTATION,Horizontal
HEAT FLUX,75
SURF AREA,0.01
C FACTOR,0.0412233
SPEC HOLDER DIFF,-566
SPECIMEN MASS,74.24
SCAN TIME,0.25
O2 DELAY TIME,11
CO DELAY TIME,11
CO2 DELAY TIME,8
FLOW FACTOR,1
SCAN COUNT,7684
TIME TO IGN,13.25
END OF TEST SCAN,7204
END OF TEST TIME,1801
TEST STATUS,1
PRE TEST CMT,Dimensions: 99.87 x 100.10 x 8.64 mm; with tie wires

File: Engineered_Flooring_Cone_HF75Scalar_220524_R3.csv
LABORATORY,FSRI
TEST IDENT,Engr_Hardwood_75_3
OPERATOR,Dow
MATERIAL,Engineered Hardwood Floor
ORIENTATION,Horizontal
HEAT FLUX,75
SURF AREA,0.01
C FACTOR,0.0412233
SPEC HOLDER DIFF,-566
SPECIMEN MASS,72.5
SCAN TIME,0.25
O2 DELAY TIME,11
CO DELAY TIME,11
CO2 DELAY TIME,8
FLOW FACTOR,1
SCAN COUNT,7857
TIME TO IGN,12.5
END OF TEST SCAN,7377
END OF TEST TIME,1844.25
TEST STATUS,1
PRE TEST CMT,Dimensions: 99.82 x 100.15 x 8.65 mm; with tie wires

File: Engineered_Hardwood_Flooring_Cone_HF75Scalar_220524_R2.csv
LABORATORY,FSRI
TEST IDENT,Engr_Hardwood_75_2
OPERATOR,Dow
MATERIAL,Engineered Hardwood Floor
ORIENTATION,Horizontal
HEAT FLUX,75
SURF AREA,0.01
C FACTOR,0.0412233
SPEC HOLDER DIFF,-566
SPECIMEN MASS,73.23
SCAN TIME,0.25
O2 DELAY TIME,11
CO DELAY TIME,11
CO2 DELAY TIME,8
FLOW FACTOR,1
SCAN COUNT,8308
TIME TO IGN,13.75
END OF TEST SCAN,7828
END OF TEST TIME,1957
TEST STATUS,1
PRE TEST CMT,Dimensions: 99.94 x 100.12 x 8.65 mm; with tie wires