Folder: fsri_materials_database/01_Data/Engineered_Flooring/Cone (part 5)

File: Engineered_Hardwood_Flooring_Cone_HF75Scan_220524_R3.csv
Names,Time,Stack TC,Smoke TC,Exh Press,Smoke Comp,Smoke Meas,CO Meter,CO2 Meter,O2 Meter,Sample Mass,Ext Coeff,Start Test,Flame Verif
Chan Gain,,500,500,1,1,1,1,1,1,1,1,1.0,1.0
Offset,,0,0,0.138596,0,0,0,0,0,0,0,0.0,0.0
Gain,,1,1,25.011,13.8491,15.2622,1,1,1,1.00087,1.03118,1.0,1.0
Units,sec,C,C,Pa,%,%,%,%,%,g,/m,,
Baseline,,50.8459,52.9267,129.952,104.913,111.982,0.000551715,0.0455062,20.995,-453.072,-0.589766,,
82,20.25,58.3509,56.6163,108.475,105.239,99.5554,0.00811738,0.802646,20.0813,117.302,0.502174,0.0,0.0
164,40.75,84.1786,82.533,109.081,105.09,105.528,0.00764061,0.822069,20.0326,112.198,-0.0376253,0.0,0.0
246,61.25,89.2567,91.7304,110.078,104.977,107.374,0.00523587,0.60243,20.2986,108.094,-0.204227,0.0,0.0
328,81.75,89.1346,94.129,114.812,104.949,110.76,0.00380835,0.471768,20.4596,104.541,-0.487444,0.0,0.0
410,102.25,87.203,93.9305,116.23,105.01,110.596,0.00377999,0.426868,20.517,101.238,-0.468839,0.0,0.0
492,122.75,85.7033,93.0264,115.35,105.136,110.82,0.00363084,0.423642,20.5242,98.0854,-0.476299,0.0,0.0
574,143.25,85.4169,92.1414,110.543,105.063,110.371,0.00377942,0.427141,20.5203,94.8025,-0.445796,0.0,0.0
656,163.75,85.018,92.2515,114.497,104.786,110.153,0.00385056,0.427056,20.526,91.7999,-0.451892,0.0,0.0
738,184.25,84.9478,91.3878,114.737,105.035,108.858,0.00428876,0.429569,20.5223,88.6672,-0.323395,0.0,0.0
820,204.75,85.7622,91.7302,115.257,105.255,107.688,0.00472534,0.457907,20.4871,85.5645,-0.206703,0.0,0.0
902,225.25,87.0409,93.4782,116.46,105.54,107.443,0.00561271,0.516327,20.4128,82.2416,-0.161653,0.0,0.0
984,245.75,92.0848,97.4029,110.807,105.697,105.583,0.00705987,0.61358,20.2957,78.5384,0.00975771,0.0,0.0
1066,266.25,97.788,103.605,106.915,105.744,104.717,0.00791939,0.721054,20.1721,74.3247,0.0882939,0.0,0.0
1148,286.75,106.975,112.225,102.52,105.687,99.8702,0.00900063,0.939587,19.9082,69.4204,0.512073,0.0,0.0
1230,307.25,105.419,113.256,109.633,105.133,104.105,0.00643047,0.652109,20.2219,65.3469,0.0888491,0.0,0.0
1312,327.75,95.9415,105.425,116.861,104.526,112.013,0.00229188,0.289947,20.6677,63.2951,-0.625729,0.0,0.0
1394,348.25,81.3872,92.1702,123.235,103.974,112.529,0.00184823,0.126017,20.8709,62.7947,-0.715275,0.0,0.0
1476,368.75,72.7342,82.0863,126.303,104.379,112.64,0.00151924,0.111486,20.8911,62.4043,-0.688915,0.0,0.0
1558,389.25,67.652,74.8151,123.771,105.121,113.372,0.00202715,0.10713,20.899,62.1041,-0.683507,0.0,0.0
1640,409.75,64.1708,69.5863,126.492,105.146,113.036,0.00184652,0.106965,20.9019,61.9139,-0.654492,0.0,0.0
1722,430.25,62.0714,66.5581,124.931,104.599,113.172,0.00251508,0.108085,20.9054,61.7137,-0.712539,0.0,0.0
1804,450.75,61.2424,64.1857,125.976,104.611,113.6,0.00312429,0.111372,20.9033,61.5035,-0.7457,0.0,0.0
1886,471.25,60.1195,62.6507,123.574,104.725,113.089,0.00393123,0.113979,20.9035,61.2533,-0.695026,0.0,0.0
1968,491.75,58.7303,60.96,127.007,105.068,112.7,0.00437232,0.113696,20.9037,61.0932,-0.634233,0.0,0.0
2050,512.25,57.6048,59.6412,127.248,105.278,113.902,0.00477614,0.114762,20.9032,60.903,-0.712143,0.0,0.0
2132,532.75,57.3085,59.1184,125.832,105.3,114.061,0.00559491,0.117928,20.9013,60.7329,-0.722895,0.0,0.0
2214,553.25,56.7444,58.6788,123.878,105.265,114.083,0.00563094,0.116156,20.905,60.4326,-0.727646,0.0,0.0
2296,573.75,56.3899,58.577,126.957,105.203,114.01,0.00617367,0.119548,20.9001,60.2224,-0.727222,0.0,0.0
2378,594.25,56.2708,57.6922,127.099,105.216,112.333,0.00676553,0.116187,20.9054,59.9922,-0.592038,0.0,0.0
2460,614.75,55.7655,57.9723,123.952,105.253,112.607,0.0069547,0.114992,20.9077,59.8521,-0.610867,0.0,0.0
2542,635.25,55.2519,57.3959,126.058,105.235,113.757,0.00779749,0.114294,20.9096,59.6319,-0.704337,0.0,0.0
2624,655.75,55.4158,56.9736,129.921,105.126,113.532,0.0081867,0.114224,20.909,59.3917,-0.695808,0.0,0.0
2706,676.25,55.4234,57.1229,124.165,104.949,112.185,0.00838078,0.113127,20.9116,59.1615,-0.603059,0.0,0.0
2788,696.75,55.1373,57.5145,125.772,104.889,112.71,0.00892294,0.113454,20.9113,58.9613,-0.650533,0.0,0.0
2870,717.25,54.5747,56.5616,126.549,105.075,113.057,0.0089317,0.112577,20.9083,58.7812,-0.662279,0.0,0.0
2952,737.75,54.6384,56.9941,128.663,105.334,113.795,0.00907154,0.111367,20.9118,58.571,-0.698913,0.0,0.0
3034,758.25,54.6474,56.6267,126.578,105.176,112.438,0.00948015,0.110894,20.9146,58.3708,-0.603926,0.0,0.0
3116,778.75,54.8541,56.597,124.298,105.032,114.161,0.0100292,0.110389,20.9115,58.1706,-0.753917,0.0,0.0
3198,799.25,54.3609,56.7362,128.352,105.322,113.813,0.0103169,0.109177,20.9132,58.0505,-0.701299,0.0,0.0
3280,819.75,54.1889,56.2176,127.38,105.405,113.369,0.0111742,0.108549,20.9157,57.9505,-0.658915,0.0,0.0
3362,840.25,53.6537,55.8692,127.3,105.034,113.833,0.01046,0.107705,20.9161,57.6702,-0.727717,0.0,0.0
3444,860.75,53.8365,56.412,128.971,104.986,112.945,0.0112326,0.107673,20.9157,57.43,-0.660938,0.0,0.0
3526,881.25,53.5045,55.6583,126.618,105.252,113.531,0.0109727,0.106571,20.9158,57.2699,-0.68494,0.0,0.0
3608,901.75,53.7467,55.8676,128.86,105.282,113.907,0.0114984,0.107016,20.9145,57.1097,-0.71226,0.0,0.0
3690,922.25,53.3992,55.7306,129.589,104.887,112.554,0.0116221,0.106346,20.916,56.8795,-0.638187,0.0,0.0
3772,942.75,53.145,55.4043,125.794,104.704,112.998,0.0113897,0.106215,20.9183,56.6193,-0.68951,0.0,0.0
3854,963.25,53.2342,55.5865,127.793,104.737,113.097,0.011131,0.105899,20.9201,56.4091,-0.694638,0.0,0.0
3936,983.75,53.3057,55.4392,127.861,104.782,113.319,0.0112115,0.105117,20.9188,56.309,-0.708521,0.0,0.0
4018,1004.25,52.7592,55.2866,127.403,104.674,112.516,0.0117037,0.104374,20.9216,56.1489,-0.653431,0.0,0.0
4100,1024.75,52.8062,55.0572,127.732,104.521,112.088,0.0116188,0.104224,20.9209,55.8887,-0.632223,0.0,0.0
4182,1045.25,53.5294,54.8779,125.694,104.551,112.834,0.0117113,0.104078,20.9187,55.6885,-0.68964,0.0,0.0
4264,1065.75,53.1784,55.0283,133.69,104.581,112.29,0.0112394,0.10315,20.9208,55.4983,-0.643327,0.0,0.0
4346,1086.25,52.879,55.115,125.552,104.615,112.062,0.0114045,0.102261,20.9213,55.3882,-0.622001,0.0,0.0
4428,1106.75,52.7971,54.8661,127.431,104.591,112.334,0.011231,0.102459,20.921,55.138,-0.645976,0.0,0.0
4510,1127.25,52.5657,55.2855,126.79,104.842,112.036,0.011517,0.102277,20.9199,54.9378,-0.600256,0.0,0.0
4592,1147.75,52.1805,54.7471,131.197,105.299,113.684,0.0109682,0.101584,20.9245,54.8177,-0.693038,0.0,0.0
4674,1168.25,52.6886,55.3372,127.577,105.201,112.781,0.0113107,0.101442,20.9243,54.6175,-0.629356,0.0,0.0
4756,1188.75,52.4486,55.2069,124.513,105.11,113.101,0.0108377,0.101914,20.9237,54.5175,-0.662799,0.0,0.0
4838,1209.25,53.2842,55.1975,125.835,105.343,113,0.0109505,0.10218,20.9236,54.3573,-0.634657,0.0,0.0
4920,1229.75,52.9838,54.701,127.091,105.362,113.261,0.0104569,0.101999,20.9237,54.1371,-0.653989,0.0,0.0
5002,1250.25,52.8661,54.9425,129.319,105.288,112.849,0.0103666,0.101128,20.9242,53.937,-0.627325,0.0,0.0
5084,1270.75,52.2398,54.6706,126.616,105.15,113.031,0.0109102,0.102796,20.9196,53.8369,-0.653719,0.0,0.0
5166,1291.25,52.4391,54.865,127.947,104.89,112.977,0.0107127,0.102504,20.9224,53.6667,-0.671817,0.0,0.0
5248,1311.75,52.1863,55.0074,129.086,105.197,112.538,0.0108931,0.101736,20.9242,53.4565,-0.610161,0.0,0.0
5330,1332.25,52.2415,54.6546,129.263,105.117,112.935,0.0101498,0.102542,20.9241,53.2263,-0.64891,0.0,0.0
5412,1352.75,52.0908,54.7006,127.006,104.818,112.688,0.00988936,0.101786,20.9223,53.0262,-0.654902,0.0,0.0
5494,1373.25,52.4356,54.7404,126.973,104.824,111.778,0.010139,0.100471,20.9244,52.9461,-0.581005,0.0,0.0
5576,1393.75,52.3316,54.6588,128.539,104.748,112.505,0.0094377,0.0994653,20.9278,52.7459,-0.646216,0.0,0.0
5658,1414.25,52.0655,54.64,125.406,104.592,112.409,0.0097752,0.10008,20.9252,52.5357,-0.652014,0.0,0.0
5740,1434.75,52.2368,54.7686,124.054,104.509,112.849,0.00961671,0.0998102,20.9238,52.3456,-0.694492,0.0,0.0
5822,1455.25,52.0864,54.7983,127.667,104.541,112.102,0.00921445,0.0989968,20.9272,52.2755,-0.63163,0.0,0.0
5904,1475.75,52.248,54.633,128.612,104.636,112.738,0.00890716,0.0992623,20.9271,52.0353,-0.674635,0.0,0.0
5986,1496.25,52.1336,54.8867,126.741,104.699,111.92,0.00889482,0.0987743,20.926,51.8451,-0.603257,0.0,0.0
6068,1516.75,52.1608,54.6628,127.944,104.951,112.854,0.00905362,0.0979235,20.9292,51.705,-0.65672,0.0,0.0
6150,1537.25,52.1556,54.5317,126.877,105.282,112.978,0.00869016,0.0979879,20.9288,51.5449,-0.638205,0.0,0.0
6232,1557.75,52.2376,54.5293,131.922,105.273,113.513,0.00855813,0.0976723,20.9288,51.4548,-0.68164,0.0,0.0
6314,1578.25,52.5747,54.7493,126.345,105.072,112.718,0.00845633,0.0974128,20.9304,51.2246,-0.635401,0.0,0.0
6396,1598.75,52.3737,54.516,124.924,105.614,113.482,0.00811451,0.0967686,20.9319,51.0645,-0.650004,0.0,0.0
6478,1619.25,52.4188,54.8256,126.708,105.8,113.728,0.00816666,0.0963357,20.9309,50.9143,-0.653563,0.0,0.0
6560,1639.75,52.9524,55.3469,126.559,105.385,113.26,0.00806766,0.096941,20.9321,50.8543,-0.651883,0.0,0.0
6642,1660.25,52.7595,54.8804,130.714,105.388,112.784,0.00781035,0.0963828,20.9333,50.7141,-0.613495,0.0,0.0
6724,1680.75,52.4466,54.3597,126.261,105.501,114.127,0.00805424,0.096882,20.9306,50.4739,-0.71091,0.0,0.0
6806,1701.25,52.1017,54.2813,131.564,105.656,114.174,0.00759765,0.094802,20.9341,50.3338,-0.701385,0.0,0.0
6888,1721.75,51.8917,54.1665,126.632,105.754,114.424,0.00773718,0.096186,20.9334,50.2137,-0.712716,0.0,0.0
6970,1742.25,51.7228,54.2596,126.796,105.291,113.902,0.00771779,0.0950287,20.9364,50.0636,-0.711055,0.0,0.0
7052,1762.75,51.5748,53.8426,125.896,105.07,112.63,0.00741898,0.0953056,20.9348,49.9535,-0.628443,0.0,0.0
7134,1783.25,51.5199,53.9182,127.319,105.261,113.234,0.00722673,0.0946466,20.9342,49.7433,-0.660472,0.0,0.0
7216,1803.75,51.787,54.2571,127.989,105.074,112.443,0.00706999,0.0968728,20.9301,49.5631,-0.613102,0.0,0.0
7298,1824.25,52.0771,54.3032,127.764,104.924,113.102,0.00685942,0.095765,20.9315,49.5231,-0.67889,0.0,0.0
7380,1844.75,51.1674,53.3598,127.321,104.685,112.396,0.00679465,0.0947398,20.9348,49.353,-0.642927,0.0,0.0
7462,1865.25,49.9645,52.8567,128.836,104.536,112.493,0.00619052,0.0914504,20.9389,49.1027,-0.663621,0.0,0.0
7544,1885.75,50.1993,52.7084,124.775,104.544,111.628,0.00616034,0.0908104,20.9393,49.0127,-0.592997,0.0,0.0
7626,1906.25,50.1412,52.3676,127.95,104.573,112.554,0.00591009,0.0900445,20.9411,48.9226,-0.66527,0.0,0.0
7708,1926.75,50.5717,52.728,128.722,104.765,111.865,0.00582687,0.0892583,20.9393,48.8125,-0.593157,0.0,0.0
7790,1947.25,50.2322,52.6035,129.947,105.023,112.377,0.00502718,0.087932,20.9437,48.6023,-0.612185,0.0,0.0
7857,1964,50.504,52.7906,129.032,105.284,112.342,,,,48.5222,-0.586867,0.0,0.0