Folder: fsri_materials_database/01_Data/Engineered_Flooring/Cone

Note: 01_Data/README.md
# Materials and Products Database
## 01_Data

Raw data generated from each apparatus are included here in plain-text format. The data is organized first by material, next by the short name of test apparatus used, and where applicable additional filtering by test settings.

### material.json

Each material directory contains a json file of the same name as the material. This file links the data stored in the repository as well as data and graphs produced by the accompanying scripts (__02_Scripts__) to the respective landing page for the material on the front-end website.

File: Engineered_Flooring_Cone_HF25Scalar_220524_R1.csv
LABORATORY,FSRI
TEST IDENT,Engr_Hardwood_25_1
OPERATOR,Dow
MATERIAL,Engineered Hardwood Floor
ORIENTATION,Horizontal
HEAT FLUX,25
SURF AREA,0.01
C FACTOR,0.0419572
SPEC HOLDER DIFF,-566
SPECIMEN MASS,74.44
SCAN TIME,0.25
O2 DELAY TIME,11
CO DELAY TIME,11
CO2 DELAY TIME,8
FLOW FACTOR,1
SCAN COUNT,3346
TIME TO IGN,128.5
END OF TEST SCAN,2866
END OF TEST TIME,716.5
TEST STATUS,1
PRE TEST CMT,Dimensions: 100.00 x 100.04 x 8.65 mm; with tie wires

File: Engineered_Flooring_Cone_HF25Scalar_220524_R2.csv
LABORATORY,FSRI
TEST IDENT,Engr_Hardwood_25_2
OPERATOR,Dow
MATERIAL,Engineered Hardwood Floor
ORIENTATION,Horizontal
HEAT FLUX,25
SURF AREA,0.01
C FACTOR,0.0412233
SPEC HOLDER DIFF,-566
SPECIMEN MASS,74.23
SCAN TIME,0.25
O2 DELAY TIME,11
CO DELAY TIME,11
CO2 DELAY TIME,8
FLOW FACTOR,1
SCAN COUNT,3444
TIME TO IGN,142.5
END OF TEST SCAN,2964
END OF TEST TIME,741
TEST STATUS,1
PRE TEST CMT,Dimensions: 99.67 x 99.95 x 8.65 mm; with tie wire

File: Engineered_Flooring_Cone_HF25Scalar_220524_R3.csv
LABORATORY,FSRI
TEST IDENT,Engr_Hardwood_25_3
OPERATOR,Dow
MATERIAL,Engineered Hardwood Floor
ORIENTATION,Horizontal
HEAT FLUX,25
SURF AREA,0.01
C FACTOR,0.0412233
SPEC HOLDER DIFF,-566
SPECIMEN MASS,74.72
SCAN TIME,0.25
O2 DELAY TIME,11
CO DELAY TIME,11
CO2 DELAY TIME,8
FLOW FACTOR,1
SCAN COUNT,3415
TIME TO IGN,142
END OF TEST SCAN,2935
END OF TEST TIME,733.75
TEST STATUS,1
PRE TEST CMT,Dimensions: 99.78 x 100.00 x 8.65 mm; with tie wires

File: Engineered_Flooring_Cone_HF25Scan_220524_R1.csv
Names,Time,Stack TC,Smoke TC,Exh Press,Smoke Comp,Smoke Meas,CO Meter,CO2 Meter,O2 Meter,Sample Mass,Ext Coeff,Start Test,Flame Verif
Chan Gain,,500,500,1,1,1,1,1,1,1,1,1.0,1.0
Offset,,0,0,0.13752,0,0,0,0,0,0,0,0.0,0.0
Gain,,1,1,25.011,13.8491,15.2622,1,1,1,1.00087,1.03118,1.0,1.0
Units,sec,C,C,Pa,%,%,%,%,%,g,/m,,
Baseline,,28.0288,28.4677,141.802,105.165,105.962,0.00162866,0.0498932,20.9853,-451.504,-0.0682116,,
35,8.5,24.3753,24.8329,143.605,105.41,105.758,0.000325014,0.0439279,20.9971,121.846,-0.0298655,0.0,0.0
70,17.25,24.9583,25.9733,144.046,105.429,105.132,0.000536699,0.042149,20.9996,121.776,0.0255015,0.0,0.0
105,26,24.6616,25.0142,141.276,105.432,105.347,0.000235109,0.0421631,20.9995,121.766,0.00734028,0.0,0.0
140,34.75,24.9464,25.7153,144.465,105.355,105.567,3.65368e-05,0.042408,20.9972,121.816,-0.0182342,0.0,0.0
175,43.5,25.1804,25.8733,142.181,105.174,105.779,0.000498137,0.0428798,20.9956,121.716,-0.0518422,0.0,0.0
210,52.25,25.0367,25.5139,141.519,104.972,105.104,0.00036027,0.0432976,20.9986,121.696,-0.0114135,0.0,0.0
245,61,25.0099,25.87,143.86,104.781,105.029,0.000236262,0.043649,20.9972,121.496,-0.0213541,0.0,0.0
280,69.75,25.2057,25.6874,140.626,104.652,104.635,0.000358642,0.0442461,20.9972,121.536,0.00151166,0.0,0.0
315,78.5,25.5186,25.9881,141.825,104.551,105.013,0.000438622,0.0456164,20.9972,121.486,-0.0398231,0.0,0.0
350,87.25,24.8716,26.2406,143.002,104.685,104.419,0.000522411,0.0477505,20.9966,121.376,0.0230582,0.0,0.0
385,96,25.2462,26.3568,145.197,104.679,104.038,0.000832612,0.0503633,20.9977,121.256,0.0555719,0.0,0.0
420,104.75,25.9182,26.2372,139.811,104.595,103.165,0.00121242,0.0531187,20.9956,121.125,0.124436,0.0,0.0
455,113.5,25.668,26.7206,140.248,104.593,100.73,0.00158473,0.0541632,20.9972,120.925,0.340387,0.0,0.0
490,122.25,26.3691,27.0416,142.089,104.675,100.334,0.00147275,0.0544214,20.996,120.685,0.383144,0.0,0.0
525,131,26.6329,27.0716,130.612,104.787,106.721,0.0022739,0.10984,20.9266,120.225,-0.165414,0.0,1.0
560,139.75,32.1921,30.6521,127.262,104.856,107.779,0.00407614,0.399819,20.5686,119.134,-0.24872,0.0,0.0
595,148.5,37.1784,35.1817,134.335,104.969,107.553,0.00364025,0.341145,20.6386,117.993,-0.220015,0.0,0.0
630,157.25,39.6482,38.049,129.003,105.06,108.778,0.00288364,0.315435,20.6697,116.972,-0.314627,0.0,0.0
665,166,42.1096,41.2231,127.236,105.177,108.332,0.00259819,0.308651,20.6812,115.961,-0.267336,0.0,0.0
700,174.75,43.2345,42.7732,129.31,105.349,108.829,0.00236075,0.288524,20.7065,114.99,-0.294029,0.0,0.0
735,183.5,44.7952,44.4494,131.31,105.441,108.979,0.00218292,0.28183,20.7149,114.059,-0.29854,0.0,0.0
770,192.25,44.9417,45.2994,131.32,105.475,108.418,0.00283338,0.274051,20.7254,113.098,-0.248901,0.0,0.0
805,201,44.8898,46.2692,132.453,105.471,108.801,0.00241662,0.266808,20.7325,112.168,-0.281224,0.0,0.0
840,209.75,45.7002,46.3092,134.103,105.457,109.111,0.00267239,0.267311,20.729,111.267,-0.308098,0.0,0.0
875,218.5,45.7446,47.4545,126.482,105.442,108.97,0.0026606,0.276564,20.7189,110.306,-0.297699,0.0,0.0
910,227.25,45.8803,47.7595,130.676,105.441,109.128,0.00240627,0.269787,20.7258,109.405,-0.310829,0.0,0.0
945,236,46.1257,48.5114,129.965,105.439,108.493,0.00223956,0.263965,20.7313,108.565,-0.258275,0.0,0.0
980,244.75,46.0805,48.1943,129.712,105.44,108.541,0.00211529,0.264473,20.7337,107.684,-0.262238,0.0,0.0
1015,253.5,45.6255,48.1639,130.827,105.434,108.513,0.00205478,0.256274,20.743,106.853,-0.26038,0.0,0.0
1050,262.25,45.4249,48.552,132.739,105.407,108.583,0.00222086,0.248839,20.7539,106.012,-0.268522,0.0,0.0
1085,271,45.4517,48.075,131.247,105.389,108.466,0.00208567,0.236179,20.7671,105.232,-0.260374,0.0,0.0
1120,279.75,44.7148,47.9166,132.905,105.329,107.591,0.00251422,0.222503,20.7844,104.451,-0.192172,0.0,0.0
1155,288.5,43.7112,47.2384,132.715,105.258,108.322,0.0025202,0.206573,20.8037,103.7,-0.259539,0.0,0.0
1190,297.25,43.2986,46.5891,137.224,105.158,107.884,0.00235077,0.197899,20.8139,103.04,-0.231483,0.0,0.0
1225,306,42.1486,45.7091,132.585,105.041,107.749,0.00242682,0.188385,20.8256,102.429,-0.230223,0.0,0.0
1260,314.75,41.5641,45.3645,134.806,104.893,107.053,0.0024706,0.18153,20.8352,101.839,-0.184404,0.0,0.0
1295,323.5,40.7099,44.1926,134.005,104.747,107.165,0.00216001,0.176942,20.8428,101.308,-0.206503,0.0,0.0
1330,332.25,40.3669,43.7882,128.607,104.701,107.878,0.00231788,0.173013,20.8478,100.718,-0.270397,0.0,0.0
1365,341,39.8605,42.789,133.872,104.68,106.912,0.00206294,0.171735,20.8491,100.187,-0.190784,0.0,0.0
1400,349.75,39.2225,42.6082,134.151,104.738,106.672,0.00211939,0.170657,20.8515,99.5967,-0.165504,0.0,0.0
1435,358.5,39.0721,41.8474,136.589,104.861,107.892,0.00194539,0.170457,20.8516,99.0262,-0.257737,0.0,0.0
1470,367.25,38.3151,41.5198,132.615,105.094,108.487,0.00221905,0.172943,20.8482,98.5358,-0.287439,0.0,0.0
1505,376,38.594,41.0072,133.79,105.329,107.315,0.00226745,0.1767,20.8434,98.0554,-0.168957,0.0,0.0
1540,384.75,38.6861,41.1721,132.539,105.438,108.068,0.00219237,0.181683,20.8376,97.4949,-0.222858,0.0,0.0
1575,393.5,38.7222,41.2098,136.627,105.387,108.33,0.00220796,0.188096,20.8278,96.8643,-0.249095,0.0,0.0
1610,402.25,38.6613,40.8918,133.771,105.203,108.487,0.00192298,0.200348,20.8117,96.2938,-0.278022,0.0,0.0
1645,411,40.0016,41.4555,130.584,105.008,107.277,0.00212368,0.21586,20.7942,95.6333,-0.19337,0.0,0.0
1680,419.75,40.0637,41.8389,136.087,104.905,107.963,0.00215066,0.233765,20.7707,94.8826,-0.259883,0.0,0.0
1715,428.5,40.573,42.7395,134.264,104.878,106.813,0.00229795,0.250057,20.7506,94.172,-0.165425,0.0,0.0
1750,437.25,42.3286,43.0675,130.895,104.919,108.482,0.00251135,0.261585,20.7383,93.4413,-0.302123,0.0,0.0
1785,446,43.1839,44.3978,135.98,105.009,108.482,0.00203498,0.272998,20.7254,92.6206,-0.294329,0.0,0.0
1820,454.75,43.9944,45.4219,134.725,105.095,108.424,0.00220254,0.285404,20.7117,91.7999,-0.282049,0.0,0.0
1855,463.5,45.3193,45.6126,127.844,105.239,108.635,0.00247377,0.298128,20.6956,90.8891,-0.2872,0.0,0.0
1890,472.25,45.9267,46.83,131.382,105.367,108.79,0.00229319,0.310455,20.6828,90.0084,-0.289179,0.0,0.0
1925,481,46.4176,48.2821,131.824,105.452,108.543,0.00245288,0.318487,20.6751,89.0675,-0.261378,0.0,0.0
1960,489.75,47.9992,48.8816,129.328,105.463,110.523,0.00261569,0.331944,20.6592,88.0667,-0.423839,0.0,0.0
1995,498.5,48.7089,50.6754,126.921,105.423,109.439,0.00239447,0.34001,20.6491,87.0858,-0.338179,0.0,0.0
2030,507.25,49.7462,51.5718,129.463,105.346,108.656,0.00275822,0.351411,20.6419,86.0749,-0.279873,0.0,0.0
2065,516,51.123,52.2197,127.689,105.23,109.623,0.00302303,0.370205,20.6219,84.974,-0.369961,0.0,0.0
2100,524.75,52.5842,54.1708,126.051,105.066,108.757,0.00361492,0.407944,20.5797,83.7429,-0.312337,0.0,0.0
2135,533.5,54.9072,55.9093,126.421,104.926,105.642,0.00398202,0.462535,20.5035,82.3717,-0.0614837,0.0,0.0
2170,542.25,57.6865,58.8005,120.844,104.764,106.656,0.00518484,0.539774,20.4064,80.8003,-0.161895,0.0,0.0
2205,551,61.5548,62.3764,118.364,104.604,104.887,0.00564967,0.583596,20.3592,79.1289,-0.024415,0.0,0.0
2240,559.75,64.3302,65.8669,118.664,104.428,104.893,0.00560743,0.588963,20.3463,77.5275,-0.0402265,0.0,0.0
2275,568.5,66.3502,67.8608,116.802,104.275,107.318,0.00447047,0.563529,20.3692,76.0662,-0.260212,0.0,0.0
2310,577.25,67.2847,69.2942,119.799,104.1,107.506,0.00404489,0.55768,20.3716,74.635,-0.291247,0.0,0.0
2345,586,67.1444,70.1847,121.464,103.939,105.228,0.00394385,0.527788,20.4047,73.2838,-0.111479,0.0,0.0
2380,594.75,67.1991,70.5035,122.215,103.839,104.284,0.00377022,0.490831,20.4453,72.0627,-0.0387184,0.0,0.0
2415,603.5,65.8629,70.0203,127.309,103.75,105.727,0.00331475,0.43571,20.5127,70.9818,-0.170754,0.0,0.0
2450,612.25,63.6617,68.5111,128.418,103.656,105.965,0.00326279,0.372596,20.5889,70.041,-0.199278,0.0,0.0
2485,621,61.2663,66.995,129.849,103.583,105.845,0.00261253,0.305288,20.6652,69.2503,-0.195434,0.0,0.0
2520,629.75,58.3966,64.1638,133.397,103.524,107.518,0.00299844,0.242721,20.7473,68.7298,-0.342423,0.0,0.0
2555,638.5,54.3078,61.2768,136.57,103.509,107.278,0.00372265,0.200051,20.7991,68.2895,-0.323511,0.0,0.0
2590,647.25,51.7285,58.0671,131.057,103.497,106.273,0.00429083,0.169286,20.8379,68.0192,-0.239359,0.0,0.0
2625,656,48.3889,55.1874,134.599,103.506,107.328,0.00452827,0.142753,20.8703,67.729,-0.328012,0.0,0.0
2660,664.75,45.9028,52.4704,133.301,103.537,106.771,0.00538687,0.125483,20.889,67.5288,-0.278204,0.0,0.0
2695,673.5,44.0394,49.6425,136.011,103.648,105.973,0.00598341,0.11201,20.9053,67.3286,-0.200614,0.0,0.0
2730,682.25,41.7908,47.421,138.377,103.809,105.878,0.00637646,0.101822,20.9179,67.1184,-0.178495,0.0,0.0
2765,691,39.4458,44.3323,135.449,104.047,106.244,0.00684289,0.0942362,20.9275,66.9883,-0.189008,0.0,0.0
2800,699.75,37.4104,42.9626,135.973,104.367,106.597,0.00736693,0.0862952,20.9362,66.9283,-0.191284,0.0,0.0
2835,708.5,36.7015,40.8631,138,104.674,106.902,0.00812543,0.0797583,20.9462,66.8582,-0.190543,0.0,0.0
2870,717.25,34.5134,38.1702,137.537,104.895,107.238,0.0108062,0.0822158,20.9403,66.7681,-0.199869,0.0,0.0
2905,726,32.4628,35.4143,139.783,105.052,106.547,0.011012,0.0758803,20.9497,66.638,-0.127794,0.0,0.0
2940,734.75,32.1874,34.3289,138.948,105.08,105.992,0.0108113,0.0721342,20.9547,66.608,-0.0782113,0.0,0.0
2975,743.5,30.5901,33.6597,142.418,105.034,107.08,0.0109975,0.0712645,20.9566,66.5079,-0.174482,0.0,0.0
3010,752.25,30.3825,32.4028,138.759,104.928,106.196,0.0110973,0.0722127,20.9522,66.3878,-0.108673,0.0,0.0
3045,761,29.9319,31.6715,141.402,104.792,106.276,0.0108071,0.0748409,20.9495,66.3277,-0.127159,0.0,0.0
3080,769.75,29.4944,30.6409,136.389,104.605,106.181,0.0107213,0.0750383,20.949,66.2076,-0.135321,0.0,0.0
3115,778.5,28.8185,30.3488,137.792,104.428,106.646,0.0102266,0.0756696,20.9492,66.2477,-0.19012,0.0,0.0
3150,787.25,28.2731,29.9506,144.171,104.229,105.816,0.0105609,0.0758505,20.9511,66.1276,-0.136633,0.0,0.0
3185,796,28.4588,29.0916,140.541,104.007,105.183,0.0102062,0.0770167,20.9491,66.0975,-0.101674,0.0,0.0
3220,804.75,28.45,29.5402,139.581,103.796,105.002,0.00996938,0.0767157,20.9483,66.0175,-0.104517,0.0,0.0
3255,813.5,27.9614,28.6323,139.336,103.61,105.233,0.00985338,0.0767677,20.9499,65.9174,-0.14062,0.0,0.0
3290,822.25,27.6054,28.7207,138.163,103.528,105.142,0.00967071,0.0774436,20.9504,65.8073,-0.139891,0.0,0.0
3325,831,27.9708,28.4951,138.332,103.473,104.52,,,,65.7172,-0.0910767,0.0,0.0
3346,836.25,27.6935,27.9203,139.515,103.467,104.481,,,,65.6972,-0.0882076,0.0,0.0

File: Engineered_Flooring_Cone_HF25Scan_220524_R2.csv
Names,Time,Stack TC,Smoke TC,Exh Press,Smoke Comp,Smoke Meas,CO Meter,CO2 Meter,O2 Meter,Sample Mass,Ext Coeff,Start Test,Flame Verif
Chan Gain,,500,500,1,1,1,1,1,1,1,1,1.0,1.0
Offset,,0,0,0.138596,0,0,0,0,0,0,0,0.0,0.0
Gain,,1,1,25.011,13.8491,15.2622,1,1,1,1.00087,1.03118,1.0,1.0
Units,sec,C,C,Pa,%,%,%,%,%,g,/m,,
Baseline,,20.0394,20.4086,143.305,104.872,104.597,0.000720568,0.0486349,20.9961,-450.319,0.0238315,,
36,8.75,18.7743,18.7926,139.706,103.794,103.373,0.000708953,0.0545833,20.9939,121.506,0.0368256,0.0,0.0
72,17.75,18.5615,18.9742,142.247,103.742,103.366,0.00103219,0.0499363,20.9992,121.486,0.0328265,0.0,0.0
108,26.75,18.8272,19.2476,144.076,103.676,103.305,0.000803753,0.0496576,20.997,121.446,0.0324182,0.0,0.0
144,35.75,19.1509,19.5194,142.389,103.598,103.278,0.000666912,0.050424,20.998,121.396,0.0279593,0.0,0.0
180,44.75,19.4501,19.9372,139.085,103.552,103.45,0.000529952,0.0475359,21.0018,121.356,0.00897352,0.0,0.0
216,53.75,19.2917,20.001,140.67,103.54,103.596,0.00061739,0.0482237,21.0002,121.306,-0.00495401,0.0,0.0
252,62.75,19.6932,19.7845,142.499,103.562,103.368,0.00070591,0.0463133,21.0022,121.256,0.0169555,0.0,0.0
288,71.75,19.7984,19.9126,143.091,103.698,103.594,0.000745347,0.0464745,21.0024,121.175,0.0091254,0.0,0.0
324,80.75,19.7426,20.181,142.313,104.009,103.628,0.00100406,0.0490523,21.0004,121.165,0.0331692,0.0,0.0
360,89.75,19.758,20.2709,142.202,104.431,103.605,0.00103619,0.0522688,21.0019,121.055,0.0717744,0.0,0.0
396,98.75,20.0685,20.1172,145.55,104.848,103.123,0.00138195,0.0552228,21.0002,120.885,0.150021,0.0,0.0
432,107.75,19.9926,20.4659,143.321,105.231,102.737,0.00139877,0.0571221,20.9979,120.665,0.216968,0.0,0.0
468,116.75,20.7296,21.3623,146.287,105.512,100.897,0.00183058,0.0579841,20.9987,120.445,0.404619,0.0,0.0
504,125.75,21.0586,21.4448,141.432,105.618,100.408,0.00200997,0.0586528,20.9971,120.175,0.457588,0.0,0.0
540,134.75,20.9357,21.1425,137.491,105.561,99.3961,0.00196587,0.0597466,20.9949,119.804,0.544297,0.0,0.0
576,143.75,21.2691,20.9771,133.556,105.431,106.815,0.00303234,0.0995211,20.8944,119.434,-0.117918,0.0,1.0
612,152.75,26.6826,24.2923,133.785,105.26,107.721,0.00414035,0.351677,20.6165,118.243,-0.209044,0.0,0.0
648,161.75,30.4241,29.3452,131.478,105.131,107.383,0.00315584,0.323409,20.6664,117.212,-0.191689,0.0,0.0
684,170.75,33.9897,32.4154,128.114,105.006,108.165,0.00299025,0.32462,20.6662,116.061,-0.268098,0.0,0.0
720,179.75,36.3189,35.1515,131.513,104.957,108.088,0.00332096,0.320529,20.6747,114.85,-0.265893,0.0,0.0
756,188.75,38.4146,37.1673,129.835,104.935,106.821,0.00311215,0.314964,20.6791,113.829,-0.161177,0.0,0.0
792,197.75,39.4522,39.4567,132.223,104.926,108.468,0.00287763,0.306182,20.6882,112.878,-0.300299,0.0,0.0
828,206.75,40.5681,40.8098,132.422,104.976,106.73,0.00261026,0.297029,20.7006,111.817,-0.149834,0.0,0.0
864,215.75,40.9988,41.7935,131.443,105.045,107.467,0.00242364,0.280868,20.7209,110.846,-0.206176,0.0,0.0
900,224.75,41.1404,42.3015,130.228,105.043,108.819,0.00271364,0.281117,20.7196,109.906,-0.319489,0.0,0.0
936,233.75,41.4366,42.4917,130.734,104.991,107.997,0.00242825,0.272041,20.7317,108.995,-0.255336,0.0,0.0
972,242.75,40.976,43.1977,130.213,104.939,107.82,0.00267402,0.267997,20.7346,108.064,-0.245016,0.0,0.0
1008,251.75,41.2472,42.8938,131.055,104.886,107.457,0.00259897,0.253589,20.7526,107.223,-0.219044,0.0,0.0
1044,260.75,41.0166,43.2977,127.372,104.837,108.207,0.00243086,0.240656,20.7676,106.423,-0.286216,0.0,0.0
1080,269.75,39.6642,43.3212,134.054,104.797,107.198,0.00253818,0.227624,20.7845,105.552,-0.204913,0.0,0.0
1116,278.75,39.8125,42.047,134.388,104.76,105.975,0.00232607,0.216992,20.7966,104.801,-0.104288,0.0,0.0
1152,287.75,38.6663,41.6782,132.332,104.873,106.532,0.0025844,0.206275,20.8108,104.011,-0.141935,0.0,0.0
1188,296.75,37.8031,41.3916,134.295,105.012,106.74,0.00263533,0.195825,20.8247,103.32,-0.147647,0.0,0.0
1224,305.75,36.965,40.3741,131.172,105.095,106.693,0.00289217,0.18639,20.838,102.719,-0.136488,0.0,0.0
1260,314.75,36.619,39.9278,132.855,105.138,106.868,0.00296992,0.177028,20.8504,102.059,-0.147689,0.0,0.0
1296,323.75,35.3159,39.032,137.92,105.166,106.591,0.00275134,0.170981,20.8559,101.508,-0.121802,0.0,0.0
1332,332.75,34.7168,37.967,134.789,105.198,106.933,0.00261438,0.168198,20.8582,100.948,-0.147893,0.0,0.0
1368,341.75,34.4545,37.5276,134.293,105.215,106.892,0.00283727,0.166715,20.8616,100.377,-0.143008,0.0,0.0
1404,350.75,34.488,36.6719,138.107,105.232,106.371,0.00274976,0.16651,20.8633,99.8069,-0.0974214,0.0,0.0
1440,359.75,33.5867,36.5797,135.127,105.216,106.905,0.00271182,0.167432,20.8616,99.1964,-0.144003,0.0,0.0
1476,368.75,33.7498,36.2197,135.163,105.186,106.846,0.00236211,0.16893,20.8604,98.6459,-0.141652,0.0,0.0
1512,377.75,33.4676,35.9712,134.854,105.157,106.492,0.00241464,0.172231,20.8564,98.0954,-0.114183,0.0,0.0
1548,386.75,33.597,35.7888,138.758,105.133,107.145,0.00282652,0.180487,20.8469,97.585,-0.171551,0.0,0.0
1584,395.75,34.0026,35.8368,131.932,105.071,106.882,0.0023775,0.187387,20.8381,96.9444,-0.154583,0.0,0.0
1620,404.75,34.0782,36.14,134.06,104.992,106.599,0.00248953,0.196089,20.8283,96.3439,-0.137427,0.0,0.0
1656,413.75,34.689,36.3079,130.009,104.909,106.656,0.00225943,0.208161,20.8116,95.7333,-0.149387,0.0,0.0
1692,422.75,35.4399,36.9259,131.921,104.818,106.898,0.00245248,0.224311,20.7895,95.0227,-0.177742,0.0,0.0
1728,431.75,36.534,37.5968,131.31,104.768,106.215,0.00271563,0.242065,20.7676,94.2821,-0.124085,0.0,0.0
1764,440.75,37.4228,38.516,133.112,104.812,107.57,0.00262913,0.258385,20.7477,93.4514,-0.234908,0.0,0.0
1800,449.75,38.0621,39.6208,130.963,104.837,107.596,0.00212696,0.273294,20.7276,92.6106,-0.235025,0.0,0.0
1836,458.75,39.5195,40.915,130.835,104.873,107.818,0.00231256,0.285506,20.7156,91.7699,-0.250469,0.0,0.0
1872,467.75,40.564,41.6407,127.683,104.896,106.544,0.00260982,0.296921,20.7013,90.9091,-0.140956,0.0,0.0
1908,476.75,41.9714,42.6462,136.369,104.936,108.195,0.00256849,0.304967,20.6933,89.9583,-0.276638,0.0,0.0
1944,485.75,42.8656,43.9089,128.115,104.963,107.532,0.00277261,0.31719,20.6811,88.9875,-0.218723,0.0,0.0
1980,494.75,43.6299,44.8256,124.253,105.009,107.24,0.00287399,0.32504,20.6721,88.0266,-0.190154,0.0,0.0
2016,503.75,44.2276,45.9352,127.035,105.048,106.251,0.00267915,0.338821,20.6597,87.0057,-0.103015,0.0,0.0
2052,512.75,45.5262,47.1178,132.04,105.105,107.406,0.00325228,0.360813,20.6316,85.7947,-0.195872,0.0,0.0
2088,521.75,47.2516,48.5625,125.962,105.187,106.803,0.00398486,0.38638,20.6029,84.6037,-0.137875,0.0,0.0
2124,530.75,49.1156,50.1908,122.183,105.246,106.836,0.00460509,0.437372,20.5416,83.3526,-0.135589,0.0,0.0
2160,539.75,51.7706,53.0847,127.193,105.329,106.065,0.00486251,0.49199,20.4708,81.8412,-0.0630461,0.0,0.0
2196,548.75,54.8946,55.7666,119.948,105.402,105.018,0.0059453,0.541074,20.415,80.2599,0.0329673,0.0,0.0
2232,557.75,57.3687,58.3884,122.451,105.444,104.31,0.00615509,0.561286,20.3881,78.5984,0.0978203,0.0,0.0
2268,566.75,58.6919,60.4835,122.011,105.497,105.129,0.00559007,0.542544,20.4043,77.0271,0.0315834,0.0,0.0
2304,575.75,59.9712,61.931,122.425,105.552,103.576,0.00521962,0.554101,20.3816,75.4557,0.170899,0.0,0.0
2340,584.75,61.4543,63.4908,118.178,105.601,106.915,0.00470117,0.575719,20.3524,73.9344,-0.111829,0.0,0.0
2376,593.75,62.1653,65.55,122.374,105.615,107.177,0.00414773,0.522141,20.4137,72.6232,-0.13279,0.0,0.0
2412,602.75,60.6947,64.5689,124.446,105.574,105.829,0.00426505,0.436177,20.5214,71.4922,-0.0217816,0.0,0.0
2448,611.75,59.8733,64.3661,125.588,105.463,105.066,0.00423356,0.373471,20.5976,70.5614,0.0340577,0.0,0.0
2484,620.75,57.2439,62.4772,129.603,105.307,105.862,0.00436738,0.309892,20.6744,69.7707,-0.0475622,0.0,0.0
2520,629.75,54.2703,59.6086,130.055,105.097,106.033,0.00494648,0.24887,20.7511,69.1502,-0.0801807,0.0,0.0
2556,638.75,50.4655,56.6444,133.709,104.857,105.492,0.00503807,0.207683,20.7983,68.6297,-0.05469,0.0,0.0
2592,647.75,47.5598,53.8112,132.842,104.543,106.236,0.00566485,0.183974,20.8246,68.2294,-0.145299,0.0,0.0
2628,656.75,44.9742,50.7815,135.221,104.249,105.689,0.00646056,0.16956,20.8432,67.829,-0.124069,0.0,0.0
2664,665.75,43.189,48.133,132.809,103.98,105.236,0.00683278,0.155914,20.8595,67.4587,-0.108595,0.0,0.0
2700,674.75,40.6478,45.7191,135.88,103.759,105.347,0.00627779,0.140346,20.8795,67.1885,-0.137405,0.0,0.0
2736,683.75,38.2167,43.9818,135.274,103.597,104.864,0.006404,0.127696,20.8933,67.0484,-0.10992,0.0,0.0
2772,692.75,37.1591,41.7199,139.525,103.494,104.08,0.0072189,0.113242,20.9123,66.8482,-0.0511352,0.0,0.0
2808,701.75,35.5877,39.552,137.907,103.478,104.276,0.00836162,0.106763,20.9201,66.7081,-0.0694869,0.0,0.0
2844,710.75,33.6044,37.9796,137.018,103.577,104.19,0.00928743,0.0981961,20.9315,66.588,-0.0533688,0.0,0.0
2880,719.75,32.5224,36.0575,139.377,103.741,104.204,0.00983028,0.0873762,20.9436,66.4779,-0.0402747,0.0,0.0
2916,728.75,30.8601,35.0909,139.419,103.962,104.315,0.010563,0.0882273,20.9452,66.3578,-0.0306774,0.0,0.0
2952,737.75,30.2826,33.1661,141.425,104.216,104.573,0.0109108,0.0790431,20.953,66.2377,-0.0308738,0.0,0.0
2988,746.75,28.2347,31.0688,137.023,104.496,104.806,0.0105625,0.0791677,20.9528,66.0775,-0.026787,0.0,0.0
3024,755.75,27.3187,29.7715,139.977,104.745,105.308,0.0111569,0.0753506,20.9583,66.0675,-0.0485682,0.0,0.0
3060,764.75,26.4437,28.5475,137.804,104.864,105.341,0.0109269,0.0744975,20.9594,65.9674,-0.0410411,0.0,0.0
3096,773.75,26.1652,27.6198,138.595,104.875,105.106,0.0106658,0.0750743,20.9594,65.9674,-0.0199177,0.0,0.0
3132,782.75,25.7918,26.8728,141.265,104.78,105.619,0.0104025,0.0761083,20.9592,65.8974,-0.0721441,0.0,0.0
3168,791.75,25.4333,27.1092,139.639,104.636,104.631,0.0105862,0.0769639,20.9588,65.8273,0.000441016,0.0,0.0
3204,800.75,25.2624,26.43,140.992,104.519,105.039,0.0100922,0.0765497,20.9588,65.7372,-0.0448894,0.0,0.0
3240,809.75,25.0341,26.081,138.691,104.417,104.674,0.0101079,0.0774117,20.9574,65.5671,-0.022168,0.0,0.0
3276,818.75,25.1469,25.2814,139.29,104.887,105.199,0.0100454,0.077632,20.9593,65.447,-0.0268659,0.0,0.0
3312,827.75,24.2394,25.1406,135.959,105.148,105.141,0.00987678,0.0773514,20.9562,65.487,0.000635099,0.0,0.0
3348,836.75,24.44,24.9208,138.526,105.274,105.207,0.0104003,0.0782582,20.9558,65.4069,0.005738,0.0,0.0
3384,845.75,24.1767,24.5578,142.644,105.32,105.75,0.00982725,0.0790299,20.955,65.3169,-0.0368007,0.0,0.0
3420,854.75,24.3387,24.5428,140.801,105.286,105.555,,,,65.2468,-0.0230371,0.0,0.0
3444,860.75,23.9601,24.7632,140.084,105.229,105.727,,,,65.1968,-0.0426958,0.0,0.0