Folder: fsri_materials_database/01_Data/Engineered_Flooring/HFM

Note: 01_Data/README.md
# Materials and Products Database
## 01_Data

Raw data generated from each apparatus are included here in plain-text format. The data is organized first by material, next by the short name of test apparatus used, and where applicable additional filtering by test settings.

### material.json

Each material directory contains a json file of the same name as the material. This file links the data stored in the repository as well as data and graphs produced by the accompanying scripts (__02_Scripts__) to the respective landing page for the material on the front-end website.

File: Engineered_Flooring_Density_Dry_R1.csv
,Engineered_Flooring_DRY_1
Sample Mass [g],271.9
Sample Volume [cm3],358.7
Sample Density [kg/m3],758

File: Engineered_Flooring_Density_Dry_R2.csv
,Engineered_Flooring_DRY_2
Sample Mass [g],272.7
Sample Volume [cm3],358.5
Sample Density [kg/m3],761

File: Engineered_Flooring_Density_Dry_R3.csv
,Engineered_Flooring_DRY_3
Sample Mass [g],271.2
Sample Volume [cm3],356.0
Sample Density [kg/m3],762

File: Engineered_Flooring_Density_Wet_R1.csv
,Engineered_Flooring_WET_1
Sample Mass [g],291.2
Sample Volume [cm3],358.7
Sample Density [kg/m3],812

File: Engineered_Flooring_Density_Wet_R2.csv
,Engineered_Flooring_WET_2
Sample Mass [g],292.5
Sample Volume [cm3],358.5
Sample Density [kg/m3],816

File: Engineered_Flooring_Density_Wet_R3.csv
,Engineered_Flooring_WET_3
Sample Mass [g],290.9
Sample Volume [cm3],356.0
Sample Density [kg/m3],817