Folder: fsri_materials_database/01_Data/Engineered_Flooring/MCC

Note: 01_Data/README.md
# Materials and Products Database
## 01_Data

Raw data generated from each apparatus are included here in plain-text format. The data is organized first by material, next by the short name of test apparatus used, and where applicable additional filtering by test settings.

### material.json

Each material directory contains a json file of the same name as the material. This file links the data stored in the repository as well as data and graphs produced by the accompanying scripts (__02_Scripts__) to the respective landing page for the material on the front-end website.

File: Engineered_Flooring_30K_min_211025_R1.txt
Sample ID:	C:\MCC\MCC Cal\Test\Engineered_Flooring_30K_min_211025_R1.txt
Sample Weight (mg):	4.66
Heating Rate (C/s):	0.5
Combustor Temp (C):	900
N2 Flow Rate (cc/min):	80
O2 Flow Rate (cc/min):	20
Calibration File:	C:\MCC\MCC Cal\Coeff1 JN10440_30_210304.txt.txt
T Correction Coefficients:	0	1.024463	0
Time Shift (s):	14
*
Time (s)	Temperature (C)	N2 flow rate (cc/min)	O2 flow rate (cc/min)	Flow Rate (cc/min)	Oxygen (%)	HRR (W/g)	Heating rate (C/s)
0.000	109.022	80.000	19.996	103.005	20.017	-0.034	-0.039
8.000	109.028	79.998	19.995	103.032	20.018	-0.121	0.033
16.000	109.073	79.998	19.996	103.073	20.010	0.470	0.035
24.000	109.331	79.999	19.997	103.117	20.003	0.916	0.053
32.000	109.880	79.999	19.996	103.170	19.994	1.577	0.102
40.000	110.826	79.997	19.996	103.190	19.985	2.154	0.178
48.001	112.129	79.998	19.995	103.222	19.984	2.283	0.169
56.000	113.878	80.000	19.995	103.230	19.981	2.435	0.230
64.000	115.902	79.998	19.994	103.240	19.979	2.595	0.268
72.001	118.185	80.000	19.994	103.272	19.977	2.715	0.282
80.000	120.819	80.002	19.995	103.274	19.972	3.055	0.305
88.000	123.745	79.999	19.995	103.271	19.974	2.918	0.371
96.000	126.825	79.998	19.996	103.274	19.974	2.962	0.386
104.000	130.116	79.998	19.995	103.273	19.972	3.070	0.419
112.000	133.582	79.999	19.995	103.273	19.969	3.273	0.417
120.000	137.133	79.998	19.996	103.272	19.974	2.962	0.491
128.000	140.812	79.999	19.995	103.275	19.970	3.248	0.487
136.000	144.638	80.000	19.995	103.271	19.973	2.986	0.497
144.000	148.452	79.999	19.995	103.269	19.968	3.346	0.486
152.000	152.376	79.999	19.996	103.249	19.967	3.416	0.496
160.000	156.224	80.004	19.996	103.250	19.967	3.413	0.488
168.000	160.126	80.000	19.996	103.243	19.964	3.604	0.522
176.000	164.073	80.000	19.996	103.236	19.964	3.634	0.502
184.000	168.033	80.000	19.997	103.235	19.960	3.921	0.500
192.000	171.942	79.998	19.993	103.239	19.952	4.456	0.478
200.000	175.830	79.996	19.996	103.241	19.944	5.018	0.487
208.000	179.747	79.998	19.996	103.240	19.935	5.640	0.466
216.000	183.724	80.000	19.997	103.238	19.931	5.929	0.467
224.000	187.698	80.001	19.995	103.234	19.922	6.513	0.469
232.000	191.643	80.002	19.995	103.235	19.917	6.860	0.480
240.000	195.629	80.003	19.996	103.244	19.909	7.445	0.519
248.000	199.564	80.001	19.994	103.254	19.901	7.986	0.489
256.000	203.597	80.000	19.994	103.236	19.895	8.439	0.502
264.000	207.613	80.001	19.996	103.232	19.893	8.540	0.465
272.000	211.655	79.998	19.996	103.236	19.889	8.851	0.488
280.000	215.682	79.999	19.996	103.237	19.886	9.047	0.446
288.000	219.655	79.998	19.996	103.230	19.887	8.972	0.468
296.000	223.640	79.999	19.996	103.229	19.885	9.090	0.485
304.000	227.589	80.000	19.996	103.227	19.886	9.043	0.450
312.000	231.613	80.000	19.995	103.216	19.888	8.873	0.499
320.001	235.524	80.003	19.996	103.219	19.886	9.052	0.505
328.000	239.407	80.000	19.995	103.225	19.887	8.955	0.474
336.000	243.286	79.998	19.995	103.227	19.884	9.154	0.478
344.000	247.156	79.999	19.995	103.234	19.879	9.546	0.483
352.000	251.118	79.999	19.996	103.234	19.880	9.432	0.511
360.000	255.007	79.999	19.996	103.235	19.867	10.334	0.475
368.000	258.994	79.999	19.996	103.251	19.854	11.245	0.523
376.000	262.990	80.000	19.995	103.268	19.836	12.475	0.516
384.000	267.007	80.000	19.997	103.272	19.815	13.975	0.515
392.001	271.114	79.998	19.997	103.279	19.788	15.831	0.521
400.000	275.296	80.001	19.995	103.281	19.760	17.753	0.526
408.000	279.463	80.001	19.995	103.301	19.731	19.737	0.508
416.000	283.572	79.999	19.996	103.309	19.709	21.273	0.511
424.000	287.734	79.999	19.995	103.310	19.680	23.291	0.525
432.000	291.831	79.999	19.994	103.311	19.654	25.060	0.513
440.000	295.909	80.000	19.995	103.311	19.638	26.157	0.539
448.000	299.920	79.999	19.994	103.312	19.616	27.722	0.489
456.000	303.996	80.000	19.996	103.313	19.602	28.661	0.520
464.000	308.007	80.000	19.996	103.311	19.585	29.861	0.494
472.000	312.043	80.000	19.996	103.312	19.566	31.202	0.494
480.000	315.993	80.001	19.995	103.320	19.553	32.065	0.512
488.000	319.901	80.000	19.996	103.313	19.529	33.735	0.434
496.000	323.698	80.000	19.996	103.323	19.505	35.418	0.565
504.000	327.657	80.001	19.994	103.331	19.487	36.676	0.475
512.000	331.485	79.998	19.996	103.352	19.454	38.967	0.466
520.000	335.494	79.999	19.995	103.355	19.418	41.417	0.534
528.000	339.496	79.999	19.995	103.382	19.382	43.912	0.509
536.000	343.477	80.000	19.995	103.393	19.340	46.873	0.504
544.000	347.518	80.001	19.996	103.399	19.295	49.984	0.497
552.000	351.578	79.999	19.995	103.419	19.255	52.738	0.466
560.000	355.700	79.999	19.995	103.419	19.216	55.403	0.533
568.000	359.735	80.001	19.996	103.418	19.183	57.690	0.499
576.000	363.795	79.996	19.996	103.404	19.192	57.033	0.524
584.000	367.944	79.998	19.996	103.364	19.235	54.054	0.527
592.000	372.037	79.999	19.997	103.329	19.317	48.379	0.518
600.000	376.217	79.999	19.995	103.278	19.440	39.873	0.513
608.000	380.403	79.998	19.996	103.226	19.573	30.637	0.525
616.000	384.537	80.001	19.996	103.198	19.705	21.506	0.512
624.000	388.578	80.000	19.996	103.162	19.805	14.623	0.521
632.000	392.633	79.999	19.995	103.159	19.862	10.683	0.485
640.000	396.663	80.001	19.995	103.159	19.887	8.951	0.501
648.000	400.692	80.002	19.995	103.157	19.905	7.739	0.509
656.000	404.702	79.999	19.995	103.161	19.909	7.401	0.495
664.000	408.708	79.998	19.996	103.162	19.909	7.423	0.472
672.000	412.749	79.997	19.996	103.154	19.915	7.005	0.468
680.000	416.761	79.999	19.997	103.152	19.917	6.878	0.522
688.000	420.811	79.999	19.996	103.157	19.925	6.301	0.494
696.000	424.864	80.000	19.996	103.143	19.923	6.461	0.512
704.000	428.913	79.999	19.995	103.149	19.933	5.757	0.522
712.000	432.881	80.001	19.994	103.136	19.940	5.303	0.507
720.000	436.851	80.001	19.995	103.135	19.944	5.011	0.472
728.000	440.803	80.001	19.996	103.139	19.944	4.985	0.483
736.000	444.704	79.999	19.996	103.146	19.949	4.670	0.489
744.000	448.608	79.999	19.996	103.139	19.953	4.420	0.496
752.000	452.496	80.000	19.996	103.144	19.959	3.974	0.479
760.000	456.478	80.000	19.997	103.138	19.959	3.946	0.505
768.000	460.505	79.999	19.996	103.139	19.965	3.563	0.503
776.000	464.574	80.000	19.995	103.151	19.966	3.517	0.519
784.000	468.575	80.000	19.996	103.134	19.967	3.414	0.464
792.000	472.591	79.999	19.995	103.134	19.975	2.862	0.490
800.000	476.569	80.003	19.995	103.117	19.976	2.794	0.497
808.000	480.414	80.002	19.995	103.124	19.975	2.846	0.475
816.000	484.278	79.999	19.995	103.120	19.980	2.525	0.508
824.000	488.197	80.000	19.997	103.123	19.985	2.152	0.493
832.000	492.156	79.998	19.995	103.134	19.986	2.137	0.492
840.001	496.212	80.000	19.995	103.146	19.985	2.173	0.474
848.000	500.383	79.997	19.996	103.130	19.983	2.325	0.560
856.000	504.662	80.000	19.996	103.128	19.985	2.199	0.521
864.000	509.000	80.000	19.995	103.130	19.986	2.114	0.525
872.000	513.369	80.000	19.996	103.129	19.987	2.036	0.514
880.000	517.714	80.001	19.995	103.126	19.987	2.047	0.533
888.000	521.934	80.003	19.995	103.117	19.990	1.862	0.501
896.000	525.965	80.000	19.995	103.120	19.990	1.805	0.494
904.000	529.958	79.999	19.995	103.128	19.990	1.864	0.491
912.000	534.143	79.999	19.995	103.129	19.993	1.636	0.556
920.000	538.350	79.999	19.996	103.123	19.990	1.814	0.525
928.000	542.664	79.999	19.997	103.130	19.990	1.839	0.527
936.000	546.967	80.000	19.996	103.128	19.989	1.894	0.546
944.000	551.381	79.999	19.996	103.133	19.991	1.737	0.547
952.000	555.730	80.000	19.995	103.118	19.991	1.790	0.553
960.000	560.117	80.003	19.995	103.127	19.986	2.089	0.536
968.000	564.441	80.001	19.993	103.142	19.989	1.879	0.545
976.000	568.691	80.001	19.995	103.124	19.986	2.148	0.535
984.000	572.926	80.000	19.995	103.121	19.988	1.954	0.506
992.000	576.997	79.999	19.995	103.117	19.989	1.881	0.486
1000.000	580.929	80.000	19.993	103.116	19.993	1.649	0.468
1008.000	584.780	79.997	19.995	103.118	19.993	1.621	0.465
1016.001	588.736	80.003	19.996	103.119	19.994	1.545	0.491
1024.000	592.654	80.001	19.995	103.120	19.993	1.619	0.466
1032.000	596.673	79.998	19.995	103.118	19.992	1.668	0.498
1040.000	600.651	80.001	19.996	103.120	19.994	1.541	0.513
1048.000	604.756	80.003	19.996	103.121	19.991	1.769	0.515
1056.000	608.911	79.998	19.996	103.123	19.988	1.975	0.504
1064.000	613.141	79.999	19.996	103.122	19.987	2.019	0.545
1072.000	617.314	79.999	19.995	103.118	19.984	2.222	0.519
1080.001	621.546	80.001	19.996	103.120	19.986	2.144	0.507
1088.000	625.794	79.998	19.996	103.121	19.986	2.133	0.530
1096.001	630.001	79.999	19.997	103.119	19.987	2.064	0.519
1104.000	634.232	80.000	19.996	103.120	19.983	2.324	0.538
1112.000	638.366	79.997	19.995	103.118	19.985	2.172	0.523
1120.001	642.421	80.001	19.996	103.116	19.989	1.924	0.531
1128.000	646.482	80.003	19.997	103.112	19.990	1.846	0.539
1136.002	650.587	79.999	19.996	103.108	19.988	1.956	0.516
1144.000	654.773	79.996	19.995	103.111	19.991	1.793	0.522
1152.000	658.880	80.000	19.995	103.116	19.992	1.719	0.498
1160.000	662.884	79.999	19.993	103.112	19.986	2.108	0.499
1168.000	666.867	80.001	19.995	103.114	19.986	2.125	0.503
1176.000	670.866	80.000	19.995	103.099	19.988	2.003	0.497
1184.000	674.915	80.001	19.996	103.113	19.992	1.710	0.514
1192.000	679.048	80.000	19.996	103.117	19.988	1.948	0.480
1200.000	683.145	80.003	19.995	103.105	19.987	2.041	0.513
1208.000	687.228	80.002	19.995	103.095	19.991	1.780	0.522
1216.000	691.284	79.998	19.997	103.097	19.991	1.778	0.484
1224.000	695.439	79.999	19.996	103.089	19.989	1.920	0.539
1232.000	699.575	80.000	19.996	103.107	19.986	2.081	0.501
1240.000	703.645	79.999	19.994	103.093	19.989	1.909	0.510
1248.000	707.710	79.999	19.997	103.108	19.988	1.959	0.523
1256.000	711.754	79.999	19.995	103.086	19.989	1.884	0.506
1264.000	715.620	80.002	19.995	103.090	19.987	2.051	0.483
1272.001	719.531	80.001	19.995	103.089	19.990	1.836	0.459
1280.000	723.450	80.003	19.995	103.081	19.990	1.842	0.491
1288.000	727.237	80.000	19.994	103.101	19.988	1.994	0.499
1296.000	731.119	79.999	19.995	103.095	19.988	1.956	0.529
1304.000	735.093	80.000	19.996	103.089	19.993	1.656	0.494
1312.000	739.101	80.000	19.995	103.089	19.989	1.908	0.517
1320.001	743.100	79.999	19.996	103.084	19.988	1.958	0.504
1321.000	743.616	79.999	19.995	103.083	19.996	1.425	0.513

File: Engineered_Flooring_30K_min_211025_R2.txt
Sample ID:	C:\MCC\MCC Cal\Test\Engineered_Flooring_30K_min_211025_R2.txt
Sample Weight (mg):	4.68
Heating Rate (C/s):	0.5
Combustor Temp (C):	900
N2 Flow Rate (cc/min):	80
O2 Flow Rate (cc/min):	20
Calibration File:	C:\MCC\MCC Cal\Coeff1 JN10440_30_210304.txt.txt
T Correction Coefficients:	0	1.024463	0
Time Shift (s):	14
*
Time (s)	Temperature (C)	N2 flow rate (cc/min)	O2 flow rate (cc/min)	Flow Rate (cc/min)	Oxygen (%)	HRR (W/g)	Heating rate (C/s)
0.000	109.021	79.997	19.998	103.005	20.023	-0.070	-0.001
8.000	108.995	79.998	19.994	103.006	20.021	0.053	-0.009
16.000	109.008	79.999	19.995	103.025	20.021	0.034	-0.006
24.000	109.130	79.998	19.995	103.132	20.009	0.872	0.049
32.000	109.550	79.998	19.996	103.137	20.001	1.411	0.079
39.999	110.366	80.000	19.995	103.156	19.998	1.647	0.135
47.999	111.487	79.999	19.994	103.198	19.990	2.177	0.180
55.999	112.958	79.999	19.995	103.208	19.985	2.509	0.194
63.999	114.715	80.001	19.995	103.231	19.985	2.491	0.236
72.000	116.815	80.001	19.995	103.243	19.982	2.740	0.270
79.999	119.178	80.000	19.996	103.248	19.978	2.980	0.298
87.999	121.855	79.998	19.998	103.238	19.980	2.867	0.342
95.999	124.705	80.000	19.994	103.270	19.978	2.975	0.368
104.000	127.732	79.997	19.994	103.248	19.975	3.229	0.387
111.999	130.912	79.999	19.996	103.276	19.972	3.403	0.405
120.000	134.248	80.001	19.996	103.271	19.976	3.164	0.399
128.000	137.779	80.001	19.995	103.271	19.976	3.155	0.475
136.000	141.359	80.000	19.995	103.336	19.972	3.389	0.461
144.000	145.132	80.002	19.996	103.273	19.975	3.198	0.464
152.000	148.913	80.000	19.997	103.254	19.969	3.591	0.494
160.000	152.761	79.999	19.997	103.267	19.968	3.720	0.505
168.000	156.547	80.000	19.996	103.269	19.968	3.693	0.479
176.000	160.563	79.999	19.998	103.271	19.966	3.863	0.524
184.000	164.566	79.997	19.997	103.274	19.960	4.249	0.506
192.000	168.575	79.997	19.995	103.254	19.954	4.661	0.503
200.000	172.576	80.000	19.995	103.251	19.946	5.233	0.473
208.000	176.576	80.000	19.997	103.242	19.943	5.420	0.486
216.000	180.560	79.999	19.995	103.249	19.934	6.036	0.475
224.000	184.603	80.000	19.994	103.238	19.928	6.434	0.514
232.000	188.621	80.000	19.996	103.238	19.918	7.158	0.483
240.000	192.476	79.999	19.997	103.245	19.907	7.920	0.487
248.000	196.263	79.998	19.995	103.236	19.901	8.336	0.454
256.000	200.088	79.999	19.998	103.239	19.896	8.631	0.454
264.000	203.924	79.997	19.996	103.239	19.886	9.360	0.474
272.000	207.776	79.998	19.996	103.254	19.883	9.577	0.495
280.000	211.654	80.000	19.996	103.236	19.881	9.666	0.463
288.000	215.586	80.000	19.995	103.236	19.879	9.837	0.482
296.000	219.463	79.999	19.996	103.233	19.876	10.042	0.459
304.000	223.414	80.000	19.994	103.235	19.875	10.061	0.487
312.000	227.315	80.000	19.995	103.239	19.875	10.123	0.480
320.000	231.302	79.998	19.995	103.239	19.871	10.365	0.477
328.000	235.275	79.999	19.995	103.239	19.872	10.314	0.471
336.000	239.185	79.999	19.996	103.237	19.864	10.856	0.491
344.000	243.143	79.998	19.997	103.238	19.864	10.846	0.468
352.000	247.188	79.998	19.995	103.270	19.857	11.336	0.493
360.000	251.370	79.997	19.998	103.271	19.853	11.639	0.522
368.000	255.502	80.000	19.996	103.272	19.844	12.218	0.525
376.000	259.715	79.999	19.996	103.278	19.828	13.347	0.525
384.000	263.892	79.999	19.996	103.278	19.811	14.501	0.552
392.000	267.991	80.001	19.995	103.284	19.790	15.973	0.511
400.000	272.157	79.998	19.996	103.296	19.763	17.802	0.508
408.000	276.213	79.999	19.995	103.298	19.741	19.317	0.541
416.000	280.183	79.999	19.996	103.312	19.711	21.401	0.491
424.000	284.077	79.998	19.996	103.310	19.688	23.002	0.494
432.000	287.903	79.997	19.996	103.321	19.665	24.577	0.457
440.000	291.761	79.998	19.996	103.325	19.644	26.009	0.484
448.000	295.703	79.998	19.997	103.394	19.625	27.344	0.470
456.000	299.650	79.999	19.996	103.343	19.604	28.768	0.494
464.000	303.652	80.000	19.995	103.343	19.586	30.018	0.507
472.000	307.691	80.000	19.996	103.347	19.566	31.384	0.538
480.000	311.804	80.000	19.996	103.352	19.548	32.618	0.504
488.000	315.877	79.999	19.995	103.351	19.525	34.233	0.488
496.000	319.959	79.999	19.995	103.353	19.504	35.645	0.489
504.000	324.033	79.998	19.995	103.356	19.477	37.551	0.523
512.000	328.033	79.997	19.996	103.371	19.450	39.435	0.497
520.000	332.101	80.000	19.997	103.390	19.419	41.536	0.546
528.000	336.130	80.001	19.996	103.390	19.384	43.944	0.501
536.000	340.150	79.997	19.995	103.411	19.341	46.964	0.507
544.000	344.191	80.000	19.996	103.426	19.303	49.527	0.508
552.000	348.211	80.000	19.996	103.436	19.258	52.666	0.517
560.000	352.239	80.000	19.995	103.464	19.211	55.886	0.501
568.000	356.295	79.998	19.995	103.468	19.167	58.931	0.478
576.000	360.363	79.997	19.995	103.471	19.132	61.347	0.516
584.000	364.393	79.997	19.994	103.465	19.126	61.776	0.514
592.000	368.409	79.999	19.995	103.431	19.156	59.671	0.482
600.000	372.503	79.999	19.996	103.373	19.235	54.133	0.482
608.000	376.554	79.999	19.996	103.311	19.368	44.967	0.506
616.000	380.608	79.999	19.996	103.262	19.524	34.269	0.527
624.000	384.675	80.000	19.995	103.233	19.669	24.235	0.536
632.000	388.738	80.001	19.995	103.199	19.771	17.267	0.525
640.000	392.401	79.996	19.996	103.197	19.823	13.668	0.295
648.000	396.711	79.998	19.994	103.197	19.846	12.051	0.534
656.000	400.547	79.998	19.994	103.195	19.858	11.237	0.490
664.000	404.461	79.999	19.995	103.194	19.867	10.631	0.494
672.000	408.369	79.998	19.996	103.193	19.873	10.219	0.490
680.000	412.264	80.001	19.994	103.189	19.878	9.887	0.449
688.000	416.111	80.000	19.993	103.201	19.879	9.848	0.502
696.000	420.089	79.999	19.994	103.197	19.885	9.373	0.502
704.000	424.105	79.999	19.996	103.204	19.887	9.286	0.520
712.000	428.248	80.001	19.996	103.196	19.889	9.138	0.498
720.000	432.490	79.998	19.996	103.192	19.893	8.859	0.524
728.000	436.748	79.996	19.998	103.192	19.893	8.861	0.546
736.000	440.946	79.998	19.996	103.190	19.901	8.288	0.523
744.000	445.060	79.997	19.996	103.189	19.904	8.083	0.534
752.000	449.263	79.999	19.996	103.195	19.910	7.682	0.553
760.000	453.426	79.997	19.994	103.195	19.914	7.432	0.526
768.000	457.564	80.000	19.996	103.190	19.916	7.245	0.485
776.000	461.679	79.997	19.995	103.189	19.919	7.032	0.501
784.000	465.726	79.999	19.996	103.187	19.923	6.759	0.483
792.000	469.834	80.000	19.996	103.186	19.925	6.666	0.513
800.000	473.986	79.998	19.996	103.180	19.931	6.241	0.526
808.000	478.092	79.998	19.996	103.177	19.929	6.363	0.524
816.000	482.205	79.999	19.996	103.179	19.934	6.047	0.508
824.000	486.290	79.999	19.995	103.177	19.938	5.735	0.525
832.000	490.347	79.997	19.995	103.180	19.936	5.862	0.529
840.000	494.433	79.999	19.996	103.171	19.937	5.845	0.498
848.000	498.521	80.000	19.995	103.169	19.937	5.804	0.523
856.000	502.598	79.998	19.994	103.174	19.937	5.824	0.511
864.000	506.728	80.000	19.996	103.186	19.954	4.669	0.507
872.000	510.803	80.002	19.995	103.194	19.965	3.900	0.519
880.000	514.929	80.000	19.997	103.175	19.960	4.255	0.513
888.000	518.995	79.998	19.996	103.189	19.959	4.304	0.491
896.000	523.028	79.997	19.996	103.177	19.955	4.565	0.514
904.000	527.121	79.999	19.996	103.170	19.952	4.823	0.524
912.000	531.267	79.998	19.997	103.165	19.952	4.778	0.497
920.000	535.491	79.997	19.997	103.176	19.950	4.944	0.540
928.000	539.695	80.000	19.995	103.169	19.949	4.998	0.538
936.000	543.806	80.000	19.995	103.157	19.947	5.110	0.531
944.000	547.886	79.998	19.995	103.172	19.951	4.829	0.512
952.000	551.930	80.000	19.995	103.168	19.951	4.866	0.538
960.000	556.044	80.000	19.995	103.164	19.953	4.702	0.526
968.000	559.964	79.998	19.996	103.160	19.950	4.949	0.489
976.000	563.945	79.999	19.996	103.155	19.951	4.847	0.505
984.000	567.806	80.000	19.996	103.165	19.950	4.917	0.504
992.000	571.794	79.999	19.996	103.155	19.950	4.920	0.519
1000.000	575.801	79.998	19.996	103.157	19.951	4.892	0.475
1008.000	579.788	79.998	19.998	103.154	19.948	5.095	0.516
1016.000	583.779	79.998	19.995	103.165	19.950	4.943	0.518
1024.000	587.830	79.999	19.994	103.163	19.947	5.168	0.488
1031.999	591.857	80.001	19.996	103.174	19.946	5.212	0.489
1039.999	595.958	80.002	19.995	103.158	19.944	5.327	0.497
1047.999	599.975	80.000	19.997	103.163	19.948	5.093	0.496
1055.999	604.033	80.000	19.995	103.166	19.951	4.883	0.498
1063.999	608.134	79.999	19.996	103.163	19.948	5.047	0.525
1071.999	612.228	79.999	19.998	103.157	19.943	5.434	0.488
1079.999	616.376	79.998	19.997	103.159	19.947	5.151	0.505
1087.999	620.372	79.999	19.995	103.166	19.945	5.278	0.493
1096.000	624.399	80.000	19.996	103.164	19.949	4.973	0.491
1103.999	628.387	79.999	19.998	103.163	19.945	5.240	0.494
1111.999	632.437	80.001	19.996	103.155	19.945	5.296	0.489
1120.000	636.472	80.002	19.995	103.156	19.941	5.529	0.521
1127.999	640.517	79.999	19.995	103.155	19.940	5.631	0.515
1135.999	644.554	79.999	19.997	103.155	19.939	5.716	0.484
1143.999	648.627	79.999	19.995	103.161	19.939	5.699	0.508
1151.999	652.666	79.998	19.995	103.157	19.942	5.451	0.497
1159.999	656.681	79.998	19.995	103.158	19.941	5.523	0.493
1167.999	660.627	79.998	19.996	103.142	19.938	5.731	0.510
1175.999	664.510	80.000	19.996	103.155	19.938	5.757	0.521
1183.999	668.645	79.999	19.995	103.153	19.938	5.738	0.507
1192.000	672.927	79.999	19.996	103.155	19.937	5.817	0.524
1199.999	677.319	80.000	19.996	103.153	19.937	5.836	0.515
1208.000	681.705	80.000	19.996	103.160	19.940	5.600	0.562
1216.000	686.077	79.999	19.995	103.152	19.939	5.707	0.531
1224.000	690.428	79.998	19.996	103.158	19.937	5.813	0.558
1231.999	694.625	79.999	19.997	103.148	19.940	5.621	0.533
1239.999	698.731	79.998	19.996	103.136	19.941	5.576	0.504
1247.999	702.735	79.999	19.996	103.149	19.943	5.387	0.512
1256.000	706.707	79.998	19.997	103.149	19.936	5.869	0.499
1263.999	710.735	79.998	19.995	103.149	19.938	5.770	0.514
1271.999	714.637	79.999	19.997	103.136	19.942	5.453	0.478
1280.001	718.584	80.001	19.996	103.142	19.934	6.034	0.459
1287.999	722.589	79.999	19.996	103.146	19.938	5.774	0.507
1295.999	726.726	79.998	19.996	103.155	19.936	5.923	0.538
1304.000	730.943	79.998	19.995	103.151	19.932	6.179	0.540
1311.999	735.251	80.000	19.996	103.147	19.935	5.993	0.525
1319.999	739.563	79.998	19.996	103.151	19.935	5.972	0.530
1326.499	743.155	79.999	19.996	103.152	19.930	6.291	0.571