Folder: fsri_materials_database/01_Data/Engineered_Flooring/MCC (part 2)

File: Engineered_Flooring_30K_min_211026_R3.txt
Sample ID:	C:\MCC\MCC Cal\Test\Engineered_Flooring_30K_min_211026_R3.txt
Sample Weight (mg):	5
Heating Rate (C/s):	0.5
Combustor Temp (C):	900
N2 Flow Rate (cc/min):	80
O2 Flow Rate (cc/min):	20
Calibration File:	C:\MCC\MCC Cal\Coeff1 JN10440_30_210304.txt.txt
T Correction Coefficients:	0	1.024463	0
Time Shift (s):	14
*
Time (s)	Temperature (C)	N2 flow rate (cc/min)	O2 flow rate (cc/min)	Flow Rate (cc/min)	Oxygen (%)	HRR (W/g)	Heating rate (C/s)
0.000	107.561	79.994	19.999	102.943	20.175	0.155	0.003
8.000	107.513	79.987	19.996	102.952	20.173	0.267	-0.040
16.000	107.632	79.990	19.997	103.011	20.172	0.329	0.024
24.000	107.901	79.990	19.995	103.093	20.154	1.494	0.039
32.000	108.510	79.981	19.998	103.073	20.159	1.157	0.094
40.000	109.363	80.004	19.997	103.070	20.153	1.578	0.114
48.001	110.461	79.989	19.996	103.138	20.144	2.114	0.128
56.000	111.937	79.997	19.996	103.167	20.142	2.266	0.231
64.000	113.717	79.998	19.998	103.198	20.138	2.512	0.270
72.000	115.876	79.996	19.996	103.188	20.139	2.452	0.261
80.000	118.327	79.994	19.997	103.185	20.136	2.629	0.312
88.000	120.976	79.997	19.997	103.177	20.134	2.775	0.337
96.000	123.789	79.994	19.997	103.214	20.137	2.586	0.348
104.000	126.837	79.995	19.996	103.160	20.135	2.708	0.381
112.000	130.032	79.996	19.997	103.202	20.135	2.725	0.401
120.001	133.323	79.997	19.997	103.182	20.132	2.929	0.398
128.000	136.720	79.994	19.996	103.203	20.134	2.779	0.423
136.000	140.278	79.995	19.996	103.246	20.130	3.043	0.442
144.000	143.920	79.995	19.997	103.212	20.131	2.966	0.471
152.000	147.671	79.991	19.998	103.226	20.129	3.106	0.471
160.000	151.484	79.994	19.997	103.208	20.126	3.274	0.483
168.000	155.286	79.996	19.996	103.212	20.127	3.265	0.473
176.000	159.176	79.997	19.997	103.212	20.121	3.631	0.504
184.000	163.044	79.991	19.998	103.207	20.120	3.703	0.489
192.000	166.996	79.996	19.996	103.208	20.116	3.938	0.450
200.000	170.948	79.997	19.996	103.195	20.111	4.271	0.475
208.000	174.913	79.994	19.996	103.213	20.107	4.521	0.513
216.000	178.858	79.991	19.996	103.219	20.101	4.889	0.506
224.000	182.860	79.995	19.996	103.193	20.093	5.446	0.506
232.000	186.839	79.995	19.996	103.182	20.085	5.927	0.495
240.000	190.766	79.995	19.997	103.186	20.077	6.455	0.506
248.000	194.739	79.996	19.997	103.201	20.069	6.984	0.517
256.000	198.667	79.994	19.995	103.197	20.060	7.580	0.518
264.000	202.615	79.996	19.996	103.202	20.056	7.839	0.510
272.000	206.591	79.996	19.995	103.216	20.053	8.027	0.504
280.000	210.684	79.996	19.995	103.189	20.046	8.478	0.496
288.000	214.675	79.994	19.996	103.181	20.047	8.420	0.519
296.000	218.602	79.997	19.996	103.183	20.041	8.793	0.513
304.000	222.564	79.999	19.996	103.183	20.039	8.875	0.506
312.000	226.529	79.995	19.996	103.177	20.041	8.772	0.490
320.000	230.535	79.996	19.996	103.177	20.041	8.781	0.487
328.000	234.528	79.993	19.997	103.176	20.039	8.930	0.492
336.000	238.448	79.994	19.997	103.178	20.040	8.842	0.503
344.000	242.347	79.993	19.997	103.191	20.038	8.951	0.491
352.000	246.385	79.999	19.995	103.182	20.038	8.983	0.513
360.000	250.365	79.996	19.996	103.182	20.034	9.216	0.531
368.000	254.333	79.994	19.997	103.204	20.030	9.463	0.516
376.000	258.319	79.997	19.996	103.193	20.019	10.181	0.482
384.000	262.328	79.999	19.996	103.209	20.006	11.057	0.490
392.000	266.310	79.994	19.996	103.200	19.984	12.440	0.516
400.000	270.357	79.994	19.996	103.216	19.963	13.795	0.513
408.000	274.445	79.994	19.995	103.222	19.935	15.614	0.519
416.000	278.453	79.994	19.997	103.227	19.911	17.132	0.509
424.000	282.507	79.994	19.998	103.252	19.882	19.007	0.548
432.000	286.524	79.996	19.996	103.257	19.858	20.596	0.505
440.000	290.576	79.996	19.996	103.254	19.832	22.219	0.539
448.000	294.537	79.995	19.997	103.257	19.820	22.992	0.504
456.000	298.573	79.997	19.996	103.215	19.794	24.677	0.478
464.000	302.580	79.998	19.994	103.259	19.778	25.728	0.499
472.000	306.544	79.994	19.996	103.265	19.757	27.072	0.490
480.000	310.524	79.994	19.996	103.258	19.738	28.314	0.507
488.000	314.600	79.996	19.997	103.279	19.722	29.341	0.547
496.000	318.534	79.996	19.998	103.263	19.698	30.863	0.489
504.000	322.543	79.994	19.998	103.277	19.679	32.138	0.490
512.000	326.512	79.996	19.997	103.249	19.646	34.235	0.516
520.000	330.469	79.996	19.996	103.308	19.625	35.582	0.476
528.000	334.586	79.997	19.996	103.299	19.592	37.757	0.522
536.000	338.680	79.994	19.996	103.310	19.554	40.205	0.503
544.000	342.742	79.997	19.995	103.300	19.510	43.037	0.535
552.000	346.778	79.996	19.996	103.344	19.465	45.936	0.494
560.000	350.796	79.994	19.996	103.376	19.421	48.777	0.493
568.000	354.880	79.994	19.997	103.368	19.376	51.699	0.494
576.000	358.947	79.994	19.997	103.377	19.349	53.422	0.512
584.000	362.988	79.996	19.997	103.352	19.334	54.333	0.519
592.000	367.072	79.997	19.996	103.333	19.352	53.174	0.527
600.000	371.179	79.995	19.996	103.301	19.424	48.483	0.554
608.000	375.311	79.995	19.996	103.235	19.543	40.819	0.536
616.000	379.379	79.995	19.996	103.159	19.696	30.945	0.530
624.000	383.400	79.999	19.996	103.135	19.837	21.897	0.471
632.000	387.517	79.994	19.996	103.119	19.952	14.496	0.519
640.000	391.605	79.996	19.996	103.099	20.015	10.445	0.517
648.000	395.719	79.995	19.995	103.099	20.045	8.491	0.497
656.000	399.816	79.996	19.997	103.113	20.059	7.637	0.545
664.000	403.846	79.994	19.997	103.111	20.065	7.230	0.531
672.000	407.806	79.995	19.997	103.093	20.070	6.893	0.523
680.001	411.741	79.996	19.997	103.103	20.079	6.342	0.509
688.000	415.614	79.996	19.998	103.067	20.081	6.214	0.474
696.000	419.565	79.996	19.997	103.090	20.084	5.987	0.500
704.000	423.594	79.997	19.995	103.094	20.086	5.843	0.493
712.000	427.662	79.994	19.997	103.110	20.091	5.526	0.524
720.000	431.814	79.994	19.997	103.117	20.098	5.129	0.512
728.000	435.941	79.995	19.995	103.079	20.102	4.866	0.515
736.000	440.029	79.994	19.996	103.103	20.106	4.605	0.515
744.000	444.048	79.994	19.997	103.107	20.111	4.251	0.515
752.000	448.059	79.997	19.996	103.121	20.112	4.181	0.503
760.000	452.011	79.997	19.996	103.089	20.108	4.425	0.529
768.000	456.062	79.998	19.997	103.061	20.117	3.860	0.492
776.000	460.168	79.996	19.997	103.074	20.123	3.509	0.541
784.000	464.286	79.996	19.997	103.076	20.127	3.242	0.533
792.000	468.329	79.995	19.997	103.087	20.134	2.815	0.486
800.000	472.401	79.996	19.997	103.067	20.134	2.800	0.499
808.000	476.472	79.996	19.996	103.075	20.145	2.050	0.546
816.000	480.452	79.995	19.996	103.073	20.140	2.390	0.458
824.000	484.484	79.996	19.996	103.087	20.148	1.870	0.450
832.000	488.538	79.996	19.997	103.064	20.149	1.842	0.507
840.000	492.570	79.998	19.996	103.060	20.153	1.553	0.500
848.000	496.795	79.997	19.996	103.081	20.149	1.837	0.418
856.000	500.631	79.996	19.997	103.075	20.150	1.757	0.716
864.000	505.013	79.996	19.996	103.073	20.153	1.540	0.553
872.000	509.142	79.993	19.998	103.065	20.155	1.446	0.543
880.000	513.149	79.994	19.996	103.070	20.158	1.236	0.489
888.000	517.128	79.996	19.996	103.065	20.156	1.341	0.482
896.000	521.163	79.995	19.997	103.091	20.157	1.291	0.500
904.000	525.212	79.995	19.997	103.062	20.155	1.427	0.472
912.000	529.276	79.996	19.996	103.097	20.160	1.092	0.528
920.000	533.296	79.996	19.996	103.072	20.157	1.296	0.480
928.000	537.339	79.994	19.996	103.142	20.160	1.125	0.488
936.000	541.320	79.996	19.996	103.059	20.158	1.266	0.465
944.000	545.287	79.998	19.996	103.066	20.154	1.467	0.468
952.000	549.320	79.996	19.998	103.123	20.159	1.195	0.486
960.000	553.464	79.997	19.997	103.058	20.153	1.578	0.519
968.000	557.574	79.995	19.997	103.079	20.154	1.477	0.534
976.000	561.716	79.993	19.996	103.099	20.159	1.188	0.526
984.000	565.806	79.995	19.996	103.070	20.153	1.555	0.520
992.000	569.963	79.995	19.995	103.076	20.154	1.481	0.520
1000.000	574.106	79.998	19.995	103.076	20.156	1.361	0.552
1008.000	578.243	79.996	19.997	103.058	20.154	1.513	0.522
1016.000	582.292	79.998	19.996	103.059	20.155	1.412	0.471
1024.000	586.414	79.996	19.996	103.076	20.157	1.285	0.538
1032.000	590.568	79.995	19.996	103.096	20.154	1.505	0.535
1040.000	594.714	79.994	19.997	103.082	20.156	1.374	0.523
1048.000	598.887	79.995	19.997	103.070	20.157	1.322	0.542
1056.001	602.961	79.993	19.996	103.053	20.153	1.585	0.485
1064.000	607.087	79.996	19.996	103.078	20.149	1.836	0.527
1072.000	611.176	79.995	19.997	103.096	20.155	1.444	0.516
1080.000	615.344	79.997	19.997	103.059	20.153	1.551	0.515
1088.000	619.416	79.998	19.996	103.086	20.152	1.621	0.486
1096.000	623.486	79.997	19.996	103.094	20.154	1.471	0.510
1104.000	627.637	79.996	19.996	103.071	20.152	1.622	0.490
1112.000	631.790	79.993	19.996	103.105	20.157	1.336	0.529
1120.000	636.050	79.995	19.996	103.088	20.150	1.737	0.532
1128.000	640.253	79.996	19.996	103.055	20.149	1.844	0.543
1136.000	644.356	79.996	19.997	103.089	20.152	1.654	0.523
1144.000	648.502	79.994	19.997	103.053	20.151	1.689	0.539
1152.000	652.643	79.996	19.996	103.099	20.153	1.576	0.527
1160.000	656.735	79.996	19.995	103.077	20.154	1.482	0.535
1168.000	660.846	79.996	19.994	103.066	20.154	1.522	0.508
1176.000	664.886	79.997	19.996	103.057	20.155	1.437	0.502
1184.000	668.956	79.996	19.996	103.087	20.159	1.181	0.477
1192.000	672.983	79.995	19.996	103.070	20.155	1.450	0.480
1200.000	677.086	79.993	19.997	103.057	20.156	1.368	0.515
1208.000	681.120	79.995	19.996	103.062	20.154	1.484	0.544
1216.000	685.131	79.995	19.997	103.061	20.153	1.536	0.505
1224.000	689.124	79.994	19.999	103.062	20.152	1.636	0.503
1232.000	693.048	79.996	19.996	103.061	20.151	1.672	0.524
1240.000	697.010	79.994	19.997	103.071	20.154	1.500	0.477
1248.000	700.968	79.996	19.995	103.067	20.155	1.430	0.482
1256.000	705.068	79.998	19.997	103.064	20.153	1.551	0.503
1264.000	709.175	79.996	19.997	103.047	20.154	1.509	0.508
1272.000	713.306	79.996	19.996	103.057	20.153	1.546	0.528
1280.000	717.508	79.996	19.997	103.048	20.151	1.702	0.553
1288.000	721.541	79.995	19.997	103.029	20.159	1.151	0.493
1296.000	725.602	79.994	19.997	103.064	20.157	1.298	0.529
1304.000	729.618	79.995	19.996	103.064	20.152	1.613	0.472
1312.001	733.632	79.997	19.997	103.060	20.158	1.265	0.484
1320.000	737.607	79.996	19.997	103.070	20.158	1.271	0.500
1328.001	741.702	79.996	19.996	103.046	20.151	1.706	0.523
1331.500	743.474	79.997	19.997	103.058	20.153	1.542	0.495