Folder: fsri_materials_database/01_Data/Vinyl_Tile/Cone (part 3)

File: Vinyl_Tile_Cone_HF50Scan_220405_R1.csv
Names,Time,Stack TC,Smoke TC,Exh Press,Smoke Comp,Smoke Meas,CO Meter,CO2 Meter,O2 Meter,Sample Mass,Ext Coeff,Start Test,Flame Verif
Chan Gain,,500,500,1,1,1,1,1,1,1,1,1.0,1.0
Offset,,0,0,0.132686,0,0,0,0,0,0,0,0.0,0.0
Gain,,1,1,25.011,13.1151,13.9355,1,1,1,1.00092,1.01752,1.0,1.0
Units,sec,C,C,Pa,%,%,%,%,%,g,/m,,
Baseline,,32.4506,33.9354,153.054,99.2572,98.2603,0.000821199,0.060544,21.0234,-836.48,0.090175,,
21,5,30.8485,32.5306,159.173,99.3171,98.2897,0.00070907,0.0692722,21.0153,183.599,0.0928126,0.0,0.0
42,10.25,30.6151,32.6383,150.769,99.3495,98.1787,0.000683678,0.0732675,21.0104,183.529,0.105811,0.0,0.0
63,15.5,31.2871,32.679,151.079,99.3515,97.8381,0.000559656,0.070049,21.0139,183.579,0.137012,0.0,0.0
84,20.75,31.2781,32.1326,151.201,99.3884,98.3093,0.000512481,0.0763722,21.0067,183.539,0.0974362,0.0,0.0
105,26,31.1936,32.6291,153.56,99.4072,97.7483,0.00073395,0.0746996,21.0107,183.489,0.1502,0.0,0.0
126,31.25,31.2121,32.7601,148.849,99.4236,96.4032,0.00060414,0.0691986,21.0179,183.519,0.275353,0.0,0.0
147,36.5,31.3965,32.3141,150.529,99.4364,92.0573,0.000964474,0.067952,21.0168,183.409,0.688227,0.0,0.0
168,41.75,31.2324,32.6108,142.637,99.4548,85.1231,0.00536471,0.0932831,20.9551,183.159,1.38886,0.0,1.0
189,47,32.4687,34.0667,144.954,99.4308,84.7493,0.0121009,0.165891,20.8464,182.698,1.42599,0.0,1.0
210,52.25,34.4637,35.6053,141.703,99.4404,86.7966,0.0148756,0.226131,20.7835,182.038,1.2138,0.0,0.0
231,57.5,36.1306,38.3933,140.836,99.454,72.3338,0.0151569,0.24824,20.7578,181.497,2.84194,0.0,0.0
252,62.75,37.4297,39.9893,140.858,99.4452,69.6226,0.0166395,0.263578,20.7327,180.897,3.18212,0.0,0.0
273,68,38.903,41.58,145.263,99.452,73.4922,0.0165297,0.285026,20.7074,180.336,2.69995,0.0,0.0
294,73.25,40.5696,42.5858,139.073,99.448,73.2281,0.0160205,0.296405,20.7009,179.746,2.73172,0.0,0.0
315,78.5,41.6128,44.2629,145.845,99.4332,77.0769,0.0160932,0.305406,20.6934,179.165,2.27319,0.0,0.0
336,83.75,43.0672,45.6311,139.525,99.4376,80.8678,0.0170784,0.325947,20.6695,178.534,1.84505,0.0,0.0
357,89,44.1586,46.83,140.322,99.4628,82.3439,0.0169787,0.345207,20.6441,177.864,1.68585,0.0,0.0
378,94.25,45.5895,48.3647,138.454,99.4292,84.1042,0.0166863,0.358794,20.6289,177.163,1.49405,0.0,0.0
399,99.5,46.4741,49.5315,144.677,99.4256,84.586,0.0162944,0.349882,20.6405,176.573,1.44274,0.0,0.0
420,104.75,47.1393,50.4037,142.501,99.4304,81.8702,0.0156576,0.321087,20.6782,176.002,1.73444,0.0,0.0
441,110,47.4739,50.7064,142.52,99.4272,79.5171,0.0137893,0.291687,20.7122,175.622,1.99445,0.0,0.0
462,115.25,47.5687,51.0272,144.493,99.4224,78.1915,0.0120597,0.27469,20.7305,175.241,2.14407,0.0,0.0
483,120.5,48.0908,50.9615,143.216,99.428,76.8596,0.0113417,0.266998,20.7352,174.831,2.29792,0.0,0.0
504,125.75,48.3007,51.267,142.385,99.4132,75.1631,0.0110511,0.268571,20.7278,174.451,2.4958,0.0,0.0
525,131,47.9198,52.2282,142.55,99.4188,73.8116,0.0110309,0.270387,20.724,174.07,2.65826,0.0,0.0
546,136.25,48.7481,51.7077,141.796,99.4212,72.7233,0.0111002,0.267067,20.7272,173.64,2.79106,0.0,0.0
567,141.5,48.7282,52.0083,140.759,99.4372,71.9667,0.0108692,0.262064,20.7324,173.31,2.88584,0.0,0.0
588,146.75,48.824,52.5099,147.694,99.4068,76.9612,0.010452,0.255763,20.7421,172.929,2.28422,0.0,0.0
609,152,48.6009,52.3522,144.69,99.4236,75.8682,0.0100418,0.246306,20.7601,172.679,2.4134,0.0,0.0
630,157.25,48.4042,52.0641,144.329,99.4192,81.5627,0.00885903,0.233818,20.7815,172.389,1.76702,0.0,0.0
651,162.5,48.3613,52.2845,144.223,99.4072,83.4756,0.00744818,0.219134,20.8066,172.129,1.55903,0.0,0.0
672,167.75,47.8658,51.4507,146.533,99.4056,89.0476,0.00626765,0.204,20.8316,171.878,0.982145,0.0,0.0
693,173,47.6805,50.6925,150.521,99.416,90.1708,0.00535818,0.189752,20.858,171.708,0.871206,0.0,0.0
714,178.25,46.7701,50.5719,145.115,99.3824,93.0197,0.00492802,0.185155,20.8694,171.598,0.590548,0.0,0.0
735,183.5,46.3826,49.5586,150.694,99.3764,93.9868,0.00483626,0.174904,20.8841,171.418,0.497692,0.0,0.0
756,188.75,45.3763,48.5243,150.071,99.3776,95.1622,0.00460848,0.166096,20.8953,171.288,0.386862,0.0,0.0
777,194,45.2232,48.4018,147.357,99.3427,95.9613,0.00460629,0.161088,20.9046,171.158,0.309097,0.0,0.0
798,199.25,44.8034,48.1592,148.145,99.3235,96.4257,0.00477242,0.152674,20.9189,171.048,0.264281,0.0,0.0
819,204.5,43.755,47.1993,147.877,99.3007,96.6537,0.00480409,0.144841,20.9259,170.947,0.241155,0.0,0.0
840,209.75,43.2677,46.8778,149.379,99.2703,96.1961,0.00496288,0.139902,20.932,170.857,0.280778,0.0,0.0
861,215,42.835,45.9067,149.153,99.2115,96.8115,0.00510281,0.136224,20.9361,170.727,0.218571,0.0,0.0
882,220.25,42.4227,45.8039,149.358,99.183,96.6554,0.00479802,0.134519,20.9374,170.667,0.230415,0.0,0.0
903,225.5,41.8969,44.8315,147.022,99.111,96.874,0.00455154,0.133917,20.9387,170.587,0.203766,0.0,0.0
924,230.75,41.6435,44.6439,145.931,99.0534,96.5873,0.00455986,0.131034,20.9425,170.497,0.225023,0.0,0.0
945,236,41.3071,43.9683,149.043,98.9965,96.5801,0.00446011,0.127642,20.946,170.387,0.220569,0.0,0.0
966,241.25,40.7635,43.475,148.433,98.9177,96.9131,0.00468319,0.1264,20.9475,170.307,0.182735,0.0,0.0
987,246.5,40.4806,43.2387,148.359,98.8296,96.3534,0.00451898,0.125182,20.9485,170.217,0.226481,0.0,0.0
1008,251.75,40.4813,42.4469,151.306,98.7472,96.8642,0.00441298,0.123906,20.9509,170.127,0.171842,0.0,0.0
1029,257,40.2094,42.3453,147.852,98.6567,96.6779,0.00422052,0.122122,20.9535,170.087,0.180844,0.0,0.0
1050,262.25,39.8341,42.1759,149.095,98.5591,96.6086,0.00385938,0.121294,20.9554,170.007,0.178406,0.0,0.0
1071,267.5,39.9969,41.672,146.518,98.473,96.3551,0.00401185,0.120873,20.9572,169.927,0.194059,0.0,0.0
1092,272.75,39.7868,41.8609,148.888,98.4182,96.1735,0.00365913,0.118839,20.96,169.867,0.205924,0.0,0.0
1113,278,39.2227,41.5434,148.639,98.3345,96.2369,0.00340319,0.116457,20.9623,169.786,0.192456,0.0,0.0
1134,283.25,39.5127,41.8389,149.159,98.2913,96.8901,0.00356676,0.115443,20.9627,169.726,0.128152,0.0,0.0
1155,288.5,38.8087,41.3561,150.898,98.2417,96.3704,0.0036881,0.115821,20.9607,169.656,0.171647,0.0,0.0
1176,293.75,39.0278,40.7773,149.188,98.1924,96.4423,0.00373561,0.114046,20.9636,169.576,0.160519,0.0,0.0
1197,299,38.4134,41.0663,152.508,98.14,96.7996,0.00337383,0.110017,20.9689,169.446,0.122752,0.0,0.0
1218,304.25,38.5458,40.1962,149.642,98.0988,96.3262,0.00355092,0.110075,20.9695,169.506,0.162753,0.0,0.0
1239,309.5,38.2612,40.3426,148.54,98.038,97.3214,0.00329528,0.115288,20.9657,169.406,0.065479,0.0,0.0
1260,314.75,38.5326,39.7941,147.635,97.9911,96.0047,0.00320236,0.111303,20.9716,169.376,0.182793,0.0,0.0
1281,320,37.9928,39.4919,148.91,97.9547,96.2731,0.00339493,0.104424,20.9807,169.326,0.15456,0.0,0.0
1302,325.25,37.6525,39.8811,153.195,97.9151,96.3828,0.00315645,0.101637,20.9832,169.256,0.140783,0.0,0.0
1323,330.5,38.2318,39.7128,148.934,97.8923,96.3143,0.00300365,0.101682,20.9821,169.226,0.145045,0.0,0.0
1344,335.75,37.1049,39.5671,150.851,97.8807,96.5006,0.00304506,0.101419,20.9839,169.196,0.126742,0.0,0.0
1365,341,37.396,39.3865,150.713,97.8735,96.0213,0.00305629,0.102263,20.983,169.126,0.170527,0.0,0.0
1386,346.25,37.2173,38.9427,149.54,97.845,95.7627,0.00276069,0.100534,20.9865,169.076,0.192002,0.0,0.0
1407,351.5,36.8584,38.6142,153.895,97.8034,96.2331,0.00270979,0.0968275,20.9895,169.036,0.144472,0.0,0.0
1428,356.75,36.7254,38.7887,149.994,97.7926,96.1931,0.00321515,0.0945648,20.9926,168.936,0.147194,0.0,0.0
1449,362,37.2095,38.5963,147.584,97.7814,96.1042,0.00319413,0.0937316,20.9934,168.926,0.154422,0.0,0.0
1470,367.25,36.6661,38.2655,152.277,97.7442,96.1429,0.00298495,0.0933011,20.9927,168.886,0.14743,0.0,0.0
1491,372.5,36.835,38.382,150.801,97.7046,95.8814,0.00261521,0.0933164,20.9933,168.836,0.168125,0.0,0.0
1512,377.75,36.4411,38.402,146.37,97.6669,96.2633,0.00280452,0.0930991,20.9938,168.806,0.129208,0.0,0.0
1533,383,35.7728,37.358,149.081,97.6469,96.1659,0.00254308,0.0923039,20.994,168.735,0.136413,0.0,0.0
1554,388.25,35.7043,37.5314,148.671,97.6189,96.1144,0.0023484,0.0912206,20.995,168.705,0.138629,0.0,0.0
1575,393.5,35.5331,37.4202,152.619,97.5881,96.0719,0.00250182,0.0902921,20.9954,168.695,0.13976,0.0,0.0
1596,398.75,35.7364,37.3649,151.407,97.5845,96.5703,0.00266947,0.0905719,20.9972,168.635,0.0932454,0.0,0.0
1617,404,35.8479,37.5986,147.81,97.5589,95.9949,0.0024857,0.0906921,20.9977,168.585,0.144243,0.0,0.0
1638,409.25,35.505,36.8605,152.192,97.5321,95.7972,0.00257897,0.0900154,20.9987,168.555,0.160195,0.0,0.0
1659,414.5,35.8445,37.2668,149.832,97.5317,95.895,0.00270553,0.089669,20.9999,168.515,0.15105,0.0,0.0
1680,419.75,35.6998,36.8625,154.145,97.526,96.2182,0.00233268,0.0891588,20.9999,168.495,0.120504,0.0,0.0
1701,425,35.4408,37.2788,151.816,97.4924,96.9522,0.00207556,0.0887257,20.9995,168.465,0.0495939,0.0,0.0
1722,430.25,35.8089,37.3029,149.332,97.4904,95.818,0.0018845,0.0886193,20.9995,168.425,0.154443,0.0,0.0
1743,435.5,35.2177,36.5284,153.855,97.4972,96.4032,0.00214949,0.0880815,20.9999,168.395,0.100721,0.0,0.0
1764,440.75,35.5044,36.7943,149.726,97.4756,95.8873,0.00229567,0.0882925,21.0002,168.375,0.146632,0.0,0.0
1785,446,35.6074,36.9524,150.392,97.468,96.8089,0.00224396,0.0887471,20.9988,168.295,0.0605619,0.0,0.0
1806,451.25,35.4192,37.1468,147.837,97.464,95.7223,0.00214874,0.0881738,20.9973,168.275,0.160942,0.0,0.0
1827,456.5,34.7908,36.9825,149.729,97.4384,96.1991,0.00196836,0.0884363,20.9983,168.225,0.114254,0.0,0.0
1848,461.75,35.3258,36.8056,151.458,97.434,96.3607,0.00215447,0.0883585,20.999,168.205,0.0988695,0.0,0.0
1869,467,35.2516,36.7897,151.685,97.444,96.5014,0.00205432,0.0879547,20.9997,168.175,0.0867568,0.0,0.0
1890,472.25,35.2789,36.7917,147.992,97.4188,95.8776,0.00221319,0.0878088,21,168.145,0.142338,0.0,0.0
1911,477.5,35.2496,36.6787,152.987,97.4196,96.5797,0.00205383,0.0881716,21.0001,168.075,0.0772852,0.0,0.0
1932,482.75,35.5427,36.4515,150.479,97.4452,95.9077,0.00199012,0.0880583,21.0001,168.045,0.141947,0.0,0.0
1953,488,34.9499,37.1218,151.316,97.4464,96.3109,0.00240482,0.0881386,21.0001,168.025,0.104615,0.0,0.0
1974,493.25,35.5697,36.7804,153.903,97.4516,96.3726,,,,167.995,0.0993788,0.0,0.0
1995,498.5,35.3478,36.7797,153.934,97.4956,96.1081,,,,167.955,0.127943,0.0,0.0
2004,500.75,35.494,36.6764,152.018,97.498,95.832,,,,167.955,0.153833,0.0,0.0

File: Vinyl_Tile_Cone_HF50Scan_220405_R2.csv
Names,Time,Stack TC,Smoke TC,Exh Press,Smoke Comp,Smoke Meas,CO Meter,CO2 Meter,O2 Meter,Sample Mass,Ext Coeff,Start Test,Flame Verif
Chan Gain,,500,500,1,1,1,1,1,1,1,1,1.0,1.0
Offset,,0,0,0.132686,0,0,0,0,0,0,0,0.0,0.0
Gain,,1,1,25.011,13.1151,13.9355,1,1,1,1.00092,1.01752,1.0,1.0
Units,sec,C,C,Pa,%,%,%,%,%,g,/m,,
Baseline,,32.4135,33.5564,153.069,98.7612,97.7382,0.000580053,0.0594376,21.0292,-836.451,0.0930058,,
19,4.5,31.2063,32.4287,153.115,98.6899,97.3567,0.000506522,0.066132,21.0218,189.154,0.121404,0.0,0.0
38,9.25,31.1812,31.7956,152.238,98.6899,98.1809,0.00060182,0.0690529,21.0196,189.114,0.0461618,0.0,0.0
57,14,31.1096,32.2016,155.408,98.6983,97.5221,0.000698152,0.0660952,21.0215,189.094,0.107011,0.0,0.0
76,18.75,31.2376,32.0186,150.359,98.6867,98.5041,0.000700547,0.063082,21.0254,189.124,0.0165375,0.0,0.0
95,23.5,31.4007,32.3843,151.635,98.6787,98.0082,0.000534682,0.0633435,21.0246,189.084,0.0608589,0.0,0.0
114,28.25,31.1099,32.3054,152.092,98.6739,96.3645,0.000304068,0.0643802,21.024,189.044,0.211385,0.0,0.0
133,33,31.0978,32.5125,152.19,98.6819,94.4473,0.000381284,0.0632031,21.0245,189.014,0.391472,0.0,0.0
152,37.75,31.2034,31.9184,146.426,98.6759,91.3245,0.00364403,0.0740124,20.9897,188.844,0.691034,0.0,1.0
171,42.5,32.2267,33.1266,143.948,98.6723,85.9716,0.0101165,0.138614,20.8889,188.484,1.22984,0.0,1.0
190,47.25,33.3641,34.8156,140.738,98.6575,82.0207,0.0136272,0.193936,20.817,187.993,1.6484,0.0,0.0
209,52,34.4577,37.0138,138.209,98.6535,79.1033,0.0161853,0.235797,20.7735,187.373,1.97129,0.0,0.0
228,56.75,36.6399,38.6809,145.895,98.6571,72.9874,0.0178941,0.262263,20.7395,186.782,2.68984,0.0,0.0
247,61.5,37.5516,40.4471,141.866,98.6499,72.1832,0.0179468,0.271244,20.7295,186.192,2.78808,0.0,0.0
266,66.25,39.8025,41.0685,140.953,98.6447,71.3803,0.0166402,0.269945,20.7291,185.671,2.88745,0.0,0.0
285,71,40.752,42.2564,139.349,98.6267,68.2779,0.0165136,0.279233,20.7182,185.121,3.28244,0.0,0.0
304,75.75,41.8407,43.9142,141.221,98.6163,71.615,0.017707,0.295685,20.6939,184.53,2.85557,0.0,0.0
323,80.5,43.0542,45.5559,140.104,98.6175,71.5083,0.0186963,0.322637,20.6559,183.889,2.869,0.0,0.0
342,85.25,44.7671,47.0196,141.8,98.6171,73.9213,0.0201809,0.339275,20.6321,183.229,2.57274,0.0,0.0
361,90,45.8954,48.0157,138.28,98.6103,73.0129,0.0212277,0.341334,20.626,182.558,2.68249,0.0,0.0
380,94.75,46.5711,49.3473,142.246,98.6103,74.666,0.0200627,0.319218,20.6556,181.998,2.48266,0.0,0.0
399,99.5,46.9336,49.993,146.331,98.5771,77.2717,0.01652,0.293118,20.6965,181.517,2.17348,0.0,0.0
418,104.25,47.098,50.3487,140.953,98.5799,75.8925,0.0139176,0.278733,20.7181,181.167,2.33448,0.0,0.0
437,109,47.7118,50.8242,146.06,98.5835,74.8378,0.0121521,0.26954,20.7282,180.797,2.45972,0.0,0.0
456,113.75,47.4171,51.1405,145.167,98.5799,73.3676,0.0116243,0.265105,20.7308,180.436,2.63648,0.0,0.0
475,118.5,48.2918,51.0544,141.94,98.5799,72.3929,0.0116629,0.264565,20.7293,180.036,2.75586,0.0,0.0
494,123.25,48.0443,51.4309,140.415,98.5523,70.6071,0.0116268,0.271143,20.7177,179.746,2.97629,0.0,0.0
513,128,48.4496,52.1512,139.786,98.5519,70.7883,0.0115244,0.274911,20.7092,179.395,2.95338,0.0,0.0
532,132.75,48.2482,52.0862,141.39,98.5483,67.9674,0.0114132,0.276689,20.7063,179.065,3.31601,0.0,0.0
551,137.5,48.6573,52.85,141.03,98.5447,70.0122,0.0111933,0.272462,20.7154,178.715,3.05113,0.0,0.0
570,142.25,49.1285,52.4787,142.602,98.5387,73.8452,0.0106927,0.263091,20.7335,178.374,2.57483,0.0,0.0
589,147,49.1234,52.5593,143.165,98.5286,77.1709,0.00959256,0.25186,20.7562,178.104,2.18075,0.0,0.0
608,151.75,48.6989,52.3041,148.373,98.5034,80.6492,0.00845168,0.235686,20.7858,177.784,1.78496,0.0,0.0
627,156.5,48.5441,52.1141,147.492,98.4918,85.6488,0.00729345,0.222247,20.8092,177.504,1.24707,0.0,0.0
646,161.25,48.1389,51.8798,145.374,98.4886,88.4318,0.00616727,0.2097,20.8322,177.283,0.961369,0.0,0.0
665,166,47.6545,51.0716,145.292,98.4766,90.1031,0.00578471,0.197904,20.8505,177.093,0.793164,0.0,0.0
684,170.75,46.9046,50.7486,151.016,98.4554,92.4324,0.00563498,0.186925,20.8699,176.913,0.56344,0.0,0.0
703,175.5,46.9211,50.1078,146.041,98.4354,93.0469,0.00539479,0.177186,20.8836,176.723,0.502481,0.0,0.0
722,180.25,46.2199,49.9183,147.673,98.4262,94.4159,0.00561066,0.166614,20.8972,176.553,0.371283,0.0,0.0
741,185,45.1059,49.1314,149.401,98.4134,95.0853,0.00561063,0.15885,20.9073,176.413,0.307065,0.0,0.0
760,189.75,45.1564,48.4759,148.747,98.407,95.374,0.00559603,0.153101,20.9159,176.292,0.279419,0.0,0.0
779,194.5,44.5085,48.0739,150.983,98.3962,95.6556,0.00562311,0.148038,20.9224,176.162,0.252131,0.0,0.0
798,199.25,44.2211,47.1133,152.163,98.3786,96.1191,0.0057595,0.144059,20.9284,176.092,0.207383,0.0,0.0
817,204,43.3049,47.2558,145.586,98.3629,96.1523,0.00590693,0.141403,20.9321,175.982,0.202887,0.0,0.0
836,208.75,42.8773,45.5738,152.01,98.3501,96.5516,0.00581425,0.139217,20.9342,175.872,0.164732,0.0,0.0
855,213.5,42.8665,45.3049,153.735,98.3513,96.6065,0.00538684,0.138341,20.9349,175.812,0.159771,0.0,0.0
874,218.25,42.2501,45.0117,147.865,98.3629,95.8984,0.00532107,0.136404,20.9361,175.702,0.226486,0.0,0.0
893,223,41.6242,44.6485,150.653,98.3978,96.7158,0.00525007,0.135745,20.937,175.622,0.153891,0.0,0.0
912,227.75,41.5831,44.3552,150.398,98.4858,96.6252,0.00539001,0.134213,20.9384,175.532,0.170239,0.0,0.0
931,232.5,41.3277,43.8494,150.274,98.5527,96.9939,0.00559278,0.134111,20.9397,175.452,0.1423,0.0,0.0
950,237.25,40.4993,43.3314,154.806,98.6243,96.4419,0.0052903,0.133716,20.9413,175.372,0.199728,0.0,0.0
969,242,40.7528,42.6187,153.063,98.6759,96.7409,0.00528586,0.132489,20.9436,175.332,0.176773,0.0,0.0
988,246.75,39.8226,43.2364,143.531,98.7216,96.7855,0.00508809,0.132592,20.9405,175.211,0.17678,0.0,0.0
1007,251.5,40.254,42.3007,146.641,98.7464,96.5376,0.0049961,0.132028,20.94,175.141,0.201918,0.0,0.0
1026,256.25,40.1215,42.2353,150.588,98.7996,97.7071,0.00464784,0.13112,20.9423,175.071,0.0992473,0.0,0.0
1045,261,40.2235,42.05,151.768,98.8408,97.2219,0.00483904,0.129722,20.944,175.011,0.147409,0.0,0.0
1064,265.75,39.6686,42.0316,153.064,98.8841,96.692,0.00457217,0.129317,20.9454,174.921,0.200093,0.0,0.0
1083,270.5,39.059,41.7893,151.091,98.9293,97.6527,0.00420836,0.127364,20.9496,174.831,0.115929,0.0,0.0
1102,275.25,39.2179,41.5744,151.477,98.9573,97.5191,0.00401896,0.125238,20.951,174.751,0.13067,0.0,0.0
1121,280,39.1072,40.1044,150.426,98.9841,96.9199,0.00411847,0.124524,20.9525,174.681,0.188102,0.0,0.0
1140,284.75,39.1684,41.1827,148.925,99.0277,97.1976,0.00378211,0.123368,20.9535,174.631,0.166497,0.0,0.0
1159,289.5,38.8197,41.0609,146.407,99.0586,97.8572,0.00387406,0.121363,20.955,174.581,0.108908,0.0,0.0
1178,294.25,39.0101,40.7359,148.669,99.0814,97.3482,0.00384547,0.118946,20.9584,174.521,0.157516,0.0,0.0
1197,299,38.4071,41.0467,148.62,99.0918,97.9006,0.00335348,0.117145,20.9601,174.451,0.107945,0.0,0.0
1216,303.75,38.5118,40.28,144.582,99.1166,98.1094,0.00323645,0.114943,20.9637,174.391,0.0911634,0.0,0.0
1235,308.5,38.3217,40.2805,152.016,99.121,97.3937,0.00379781,0.112959,20.9664,174.341,0.156913,0.0,0.0
1254,313.25,38.1252,40.5644,149.39,99.147,97.2108,0.00352705,0.11171,20.9678,174.281,0.17603,0.0,0.0
1273,318,38.1377,40.2134,154.969,99.1618,97.6131,0.00326554,0.10866,20.9706,174.251,0.1405,0.0,0.0
1292,322.75,38.2039,39.8817,153.211,99.173,97.4502,0.00346437,0.106126,20.9739,174.201,0.156415,0.0,0.0
1311,327.5,38.2039,39.6223,150.349,99.1658,98.285,0.00366194,0.104238,20.9767,174.14,0.0796308,0.0,0.0
1330,332.25,37.8059,39.4335,147.336,99.1738,97.6714,0.00372971,0.102975,20.9783,174.11,0.136256,0.0,0.0
1349,337,37.8618,39.5759,153.366,99.1786,97.6412,0.00348177,0.101563,20.981,174.07,0.139447,0.0,0.0
1368,341.75,37.6181,39.3131,152.325,99.1814,97.6697,0.00341234,0.0987089,20.9847,174,0.137095,0.0,0.0
1387,346.5,37.1939,38.7159,150.532,99.1902,97.9282,0.00345593,0.0963371,20.989,173.92,0.11429,0.0,0.0
1406,351.25,36.5756,38.8783,148.834,99.181,97.5842,0.00363194,0.094135,20.9918,173.88,0.144874,0.0,0.0
1425,356,36.9008,38.4128,147.48,99.1786,97.5127,0.0034577,0.0934704,20.9919,173.86,0.151196,0.0,0.0
1444,360.75,36.6143,38.1923,151.244,99.165,98.3544,0.00335439,0.0926657,20.9917,173.82,0.0732653,0.0,0.0
1463,365.5,36.1688,37.937,151.241,99.1738,97.7807,0.00325574,0.0930092,20.9936,173.76,0.126273,0.0,0.0
1482,370.25,36.1227,38.2088,148.877,99.1742,97.8636,0.00295325,0.0925496,20.9939,173.72,0.118742,0.0,0.0
1501,375,36.4103,37.9081,150.177,99.1486,97.3167,0.00293319,0.0922684,20.9938,173.71,0.166457,0.0,0.0
1520,379.75,36.5057,38.3106,153.012,99.1258,97.6654,0.00291176,0.0920212,20.9938,173.65,0.132476,0.0,0.0
1539,384.5,35.9689,37.9299,149.184,99.1154,98.2642,0.00293782,0.0919744,20.9938,173.59,0.0769824,0.0,0.0
1558,389.25,35.8706,37.896,151.996,99.0998,98.2689,0.0028197,0.0917518,20.9956,173.55,0.075152,0.0,0.0
1577,394,36.5213,37.6996,148.257,99.0734,97.5234,0.00261467,0.0914339,20.9942,173.56,0.140744,0.0,0.0
1596,398.75,35.9703,37.8238,151.532,99.0289,97.5459,0.00247256,0.0915236,20.995,173.5,0.134679,0.0,0.0
1615,403.5,35.6413,37.4119,151.988,98.9913,98.2068,0.0027284,0.0913127,20.9953,173.48,0.0710194,0.0,0.0
1634,408.25,35.8494,37.1355,148.299,98.9341,97.9159,0.00274324,0.0914023,20.9947,173.43,0.0923335,0.0,0.0
1653,413,35.6402,37.2405,151.339,98.8929,97.4137,0.00296513,0.0910052,20.9945,173.4,0.134515,0.0,0.0
1672,417.75,35.7104,37.3077,150.884,98.8496,98.0112,0.00292763,0.0906923,20.9943,173.37,0.0760319,0.0,0.0
1691,422.5,35.7012,37.1129,151.729,98.806,97.8929,0.00267214,0.0904134,20.9945,173.35,0.0828656,0.0,0.0
1710,427.25,35.969,37.0538,151.007,98.7496,97.9393,0.00260965,0.0906957,20.9934,173.32,0.0735397,0.0,0.0
1729,432,35.8014,37.3253,150.382,98.6711,97.6055,0.00278888,0.0905145,20.9927,173.28,0.0969236,0.0,0.0
1748,436.75,35.6182,37.2574,150.2,98.6307,97.2686,0.00273497,0.0905776,20.9926,173.25,0.124119,0.0,0.0
1767,441.5,35.7416,37.488,146.812,98.6319,96.7872,0.00259509,0.0904107,20.9941,173.23,0.168513,0.0,0.0
1786,446.25,35.6046,37.1717,150.854,98.6435,97.4239,0.00248998,0.0900386,20.9955,173.18,0.111047,0.0,0.0
1805,451,35.9262,37.3544,150.902,98.6627,97.3796,0.00255219,0.0901685,20.9964,173.16,0.116837,0.0,0.0
1824,455.75,35.6049,37.044,149.736,98.6651,98.1575,,0.0899423,,173.13,0.0460443,0.0,0.0
1843,460.5,35.5409,36.635,149.365,98.6923,98.0809,,,,173.099,0.0554687,0.0,0.0
1860,464.75,35.5439,37.2549,151.809,98.7088,97.5093,,,,173.069,0.109119,0.0,0.0