Folder: fsri_materials_database/01_Data/Vinyl_Tile/Cone (part 2)

File: Vinyl_Tile_Cone_HF25Scan_220405_R3.csv
Names,Time,Stack TC,Smoke TC,Exh Press,Smoke Comp,Smoke Meas,CO Meter,CO2 Meter,O2 Meter,Sample Mass,Ext Coeff,Start Test,Flame Verif
Chan Gain,,500,500,1,1,1,1,1,1,1,1,1.0,1.0
Offset,,0,0,0.132686,0,0,0,0,0,0,0,0.0,0.0
Gain,,1,1,25.011,13.1151,13.9355,1,1,1,1.00092,1.01752,1.0,1.0
Units,sec,C,C,Pa,%,%,%,%,%,g,/m,,
Baseline,,19.0323,19.6433,160.425,98.6587,99.1552,0.000680336,0.0710297,21.0043,-833.84,-0.0447669,,
18,4.25,18.2678,19.0622,157.697,97.6889,98.1324,0.000567356,0.083002,20.9898,193.418,-0.0404233,0.0,0.0
36,8.75,18.1966,18.7922,161.547,97.7006,98.3931,0.000960082,0.0815131,20.9924,193.408,-0.0630425,0.0,0.0
54,13.25,18.4062,19.155,165.238,97.6685,98.6214,0.00103077,0.0772897,20.9988,193.408,-0.0866613,0.0,0.0
72,17.75,18.2404,18.8907,154.478,97.6825,98.3863,0.000796094,0.0744326,21.0021,193.408,-0.0640707,0.0,0.0
90,22.25,18.4859,18.8171,162.414,97.6737,98.2689,0.000629044,0.0726928,21.0038,193.408,-0.054221,0.0,0.0
108,26.75,18.0407,18.782,161.352,97.6669,98.2978,0.000811184,0.0723128,21.0053,193.408,-0.0574689,0.0,0.0
126,31.25,18.5749,18.8438,159.954,97.6473,98.6618,0.00069181,0.0721678,21.0072,193.408,-0.0922552,0.0,0.0
144,35.75,18.4831,18.7748,161.121,97.6401,98.5096,0.000535005,0.0722611,21.008,193.398,-0.0791303,0.0,0.0
162,40.25,17.7643,18.7809,156.168,97.6157,98.2111,0.000712703,0.0723267,21.0081,193.398,-0.0542713,0.0,0.0
180,44.75,18.5821,18.8464,162.52,97.5705,98.9893,0.000689023,0.072367,21.007,193.398,-0.128858,0.0,0.0
198,49.25,18.3437,19.0106,159.775,97.5625,98.5368,0.000725317,0.0728906,21.006,193.398,-0.0886964,0.0,0.0
216,53.75,18.2592,18.8365,160.476,97.5309,98.4785,0.00090935,0.0734541,21.0045,193.388,-0.0863099,0.0,0.0
234,58.25,18.2699,19.3712,158.921,97.5164,97.8938,0.000771227,0.0734201,21.0041,193.378,-0.0344718,0.0,0.0
252,62.75,18.0869,18.526,160.28,97.5064,98.0622,0.000543648,0.0731938,21.006,193.378,-0.0507291,0.0,0.0
270,67.25,18.5188,19.1735,159.86,97.4984,98.0609,0.000565102,0.0725941,21.0071,193.348,-0.0513466,0.0,0.0
288,71.75,18.273,18.5845,159.635,97.4772,97.85,0.000534279,0.0723184,21.0072,193.338,-0.0340681,0.0,0.0
306,76.25,18.0485,18.6974,157.58,97.4444,97.7658,0.000793152,0.0720954,21.0059,193.358,-0.0293895,0.0,0.0
324,80.75,18.3336,18.8821,158.954,97.4292,97.9929,0.000738199,0.0720882,21.0056,193.328,-0.0514916,0.0,0.0
342,85.25,18.6568,19.4785,163.43,97.4016,97.2261,0.000645733,0.0719302,21.0056,193.318,0.0160936,0.0,0.0
360,89.75,18.7457,19.5491,157.767,97.4024,97.2746,0.000753001,0.0717529,21.0056,193.318,0.0117177,0.0,0.0
378,94.25,18.7517,19.3592,161.933,97.3676,96.4266,0.000888356,0.0720422,21.0056,193.288,0.0866778,0.0,0.0
396,98.75,18.4543,19.1728,160.379,97.3415,95.8401,0.000952238,0.0724851,21.0054,193.268,0.138742,0.0,0.0
414,103.25,18.5273,19.1182,158.313,97.3287,95.8967,0.000981715,0.0779397,20.9979,193.228,0.132301,0.0,1.0
432,107.75,18.5266,18.7681,157.21,97.3219,94.1428,0.00256279,0.105415,20.9589,193.078,0.296428,0.0,1.0
450,112.25,19.0367,19.407,156.095,97.2979,92.5838,0.00420604,0.131709,20.921,192.888,0.443276,0.0,0.0
468,116.75,19.9947,20.7438,155.859,97.2823,92.5293,0.00509269,0.151455,20.8956,192.627,0.447094,0.0,0.0
486,121.25,20.6784,21.5422,152.247,97.2911,91.2765,0.00575891,0.17067,20.8742,192.317,0.569582,0.0,0.0
504,125.75,21.7941,22.5769,151.258,97.2699,90.7313,0.00663294,0.188631,20.8512,192.017,0.621109,0.0,0.0
522,130.25,22.6884,23.7155,147.563,97.2883,89.7872,0.00764733,0.199401,20.8351,191.637,0.71616,0.0,0.0
540,134.75,23.3392,24.2539,152.719,97.2779,88.5143,0.00835377,0.205349,20.8251,191.266,0.842643,0.0,0.0
558,139.25,24.3564,25.3728,150.881,97.2963,87.5834,0.00916966,0.2135,20.8114,190.886,0.938703,0.0,0.0
576,143.75,24.8583,26.0976,149.856,97.2951,87.5893,0.00932756,0.216904,20.8074,190.516,0.937987,0.0,0.0
594,148.25,25.5765,26.6354,152.986,97.3095,86.7915,0.00925908,0.210093,20.8146,190.155,1.02098,0.0,0.0
612,152.75,26.3838,27.6048,155.114,97.3079,85.872,0.0092993,0.206963,20.8168,189.825,1.11589,0.0,0.0
630,157.25,26.4962,27.9475,153.392,97.2983,85.1372,0.00985248,0.205015,20.8165,189.485,1.19172,0.0,0.0
648,161.75,27.6097,29.3001,153.961,97.3231,83.7189,0.0105011,0.205112,20.8129,189.174,1.34395,0.0,0.0
666,166.25,26.8926,28.4887,157.473,97.3035,84.0195,0.0107436,0.206007,20.8098,188.854,1.31015,0.0,0.0
684,170.75,27.6284,29.2385,148.055,97.3279,81.3267,0.0103957,0.208037,20.8074,188.554,1.60314,0.0,0.0
702,175.25,28.2312,29.898,154.615,97.3431,81.8064,0.00992103,0.209229,20.8048,188.253,1.55204,0.0,0.0
720,179.75,28.4913,30.2314,148.539,97.3423,81.9582,0.00923098,0.21083,20.8019,187.993,1.53542,0.0,0.0
738,184.25,28.7854,30.2095,154.803,97.3415,84.5584,0.00844412,0.209692,20.8052,187.733,1.25658,0.0,0.0
756,188.75,29.0426,30.8282,153.385,97.3495,83.4344,0.00785344,0.211263,20.8037,187.473,1.37675,0.0,0.0
774,193.25,28.723,30.5417,152.045,97.3624,83.1447,0.00734943,0.209959,20.8039,187.232,1.40896,0.0,0.0
792,197.75,29.2633,31.0051,150.271,97.3571,83.072,0.00679265,0.209913,20.8065,187.022,1.41629,0.0,0.0
810,202.25,29.5259,31.4369,152.397,97.3696,85.5429,0.00643669,0.207775,20.8109,186.792,1.15582,0.0,0.0
828,206.75,29.935,31.9248,152.392,97.376,84.1093,0.0062452,0.205445,20.8138,186.642,1.30726,0.0,0.0
846,211.25,29.6745,31.5942,154.305,97.3992,86.3063,0.00622851,0.200655,20.822,186.422,1.07924,0.0,0.0
864,215.75,29.8063,31.7558,153.566,97.4052,85.4825,0.00587521,0.19417,20.83,186.222,1.16539,0.0,0.0
882,220.25,29.9039,31.6582,152.811,97.4188,86.7328,0.00579705,0.187935,20.8392,186.061,1.03703,0.0,0.0
900,224.75,29.6773,31.7081,153.6,97.4268,85.6386,0.00532957,0.182574,20.8469,185.871,1.15109,0.0,0.0
918,229.25,29.698,31.6808,152.108,97.4448,86.4402,0.00478376,0.176783,20.8551,185.731,1.06958,0.0,0.0
936,233.75,29.7987,31.6627,158.434,97.47,88.7065,0.00470753,0.171868,20.8616,185.601,0.840892,0.0,0.0
954,238.25,29.23,30.8337,151.479,97.486,89.0778,0.00455331,0.165752,20.8721,185.431,0.805079,0.0,0.0
972,242.75,29.3953,31.3381,154.388,97.5016,89.8195,0.00444198,0.160691,20.8805,185.331,0.732498,0.0,0.0
990,247.25,28.9029,30.8796,154.61,97.5332,90.3519,0.004097,0.155686,20.8879,185.211,0.682638,0.0,0.0
1008,251.75,28.7768,30.6831,152.238,97.5753,90.7636,0.00375927,0.151046,20.8955,185.101,0.645908,0.0,0.0
1026,256.25,28.359,30.2211,154.676,97.6065,91.3458,0.00345738,0.146686,20.902,184.98,0.591693,0.0,0.0
1044,260.75,28.2868,29.9085,157.906,97.6265,92.5774,0.00316333,0.143599,20.9081,184.88,0.473984,0.0,0.0
1062,265.25,27.9778,29.6526,155.589,97.6385,93.0699,0.00300465,0.139643,20.9138,184.81,0.427728,0.0,0.0
1080,269.75,27.8787,29.6484,159.802,97.6677,93.6721,0.00302373,0.135074,20.922,184.69,0.372833,0.0,0.0
1098,274.25,27.2708,29.04,154.276,97.7174,95.0015,0.00312871,0.132105,20.9266,184.64,0.251584,0.0,0.0
1116,278.75,26.8017,28.4964,156.987,97.7306,95.226,0.00297113,0.127968,20.9344,184.55,0.231718,0.0,0.0
1134,283.25,26.8405,28.5892,153.644,97.7642,95.8699,0.00293116,0.124362,20.9362,184.47,0.174641,0.0,0.0
1152,287.75,26.5028,28.2461,155.657,97.7858,96.2913,0.0029289,0.120473,20.9407,184.41,0.137463,0.0,0.0
1170,292.25,26.126,27.7465,158.245,97.8182,96.33,0.00306053,0.117246,20.9465,184.33,0.136834,0.0,0.0
1188,296.75,25.8322,27.3357,157.907,97.8306,96.3807,0.002958,0.113776,20.9502,184.25,0.133278,0.0,0.0
1206,301.25,25.1672,26.7946,157.279,97.8522,96.8246,0.00291465,0.110788,20.9553,184.19,0.0942277,0.0,0.0
1224,305.75,25.4129,26.7903,161.273,97.8546,96.8157,0.00307954,0.107233,20.9593,184.12,0.09527,0.0,0.0
1242,310.25,24.8993,26.0329,160.572,97.8506,96.5469,0.00299607,0.103524,20.9635,184.11,0.119718,0.0,0.0
1260,314.75,24.3389,25.8082,156.395,97.8478,96.8166,0.00315612,0.0998586,20.9703,184.02,0.0945709,0.0,0.0
1278,319.25,23.9143,25.2176,160.298,97.8502,96.4219,0.00298606,0.0965893,20.9757,183.98,0.131249,0.0,0.0
1296,323.75,23.3524,25.0308,159.408,97.833,96.4538,0.00288929,0.0932951,20.9799,183.949,0.126726,0.0,0.0
1314,328.25,23.1075,24.6549,160.061,97.8246,96.1353,0.00262548,0.0925424,20.9813,183.869,0.155484,0.0,0.0
1332,332.75,23.5294,23.5869,158.16,97.8034,96.2752,0.00285858,0.0925736,20.9793,183.819,0.140568,0.0,0.0
1350,337.25,22.5478,23.8014,159.506,97.7958,97.0726,0.00305891,0.093113,20.9782,183.749,0.0662521,0.0,0.0
1368,341.75,22.4997,23.7472,155.598,97.781,96.9722,0.00302549,0.0937877,20.978,183.719,0.0741338,0.0,0.0
1386,346.25,21.7284,24.1423,159.889,97.779,97.5085,0.0031842,0.093922,20.9779,183.669,0.0247274,0.0,0.0
1404,350.75,22.1246,22.7087,158.74,97.7602,97.5765,0.00309679,0.0941635,20.9779,183.609,0.0167828,0.0,0.0
1422,355.25,22.139,23.0316,155.357,97.7602,96.2922,0.00312634,0.0945203,20.9779,183.569,0.135044,0.0,0.0
1440,359.75,21.8135,23.1616,158.543,97.7194,96.7813,0.00329786,0.0947091,20.9773,183.519,0.0860982,0.0,0.0
1458,364.25,21.6887,22.9508,160.712,97.7274,97.7037,0.00312117,0.0952173,20.9771,183.459,0.00216287,0.0,0.0
1476,368.75,21.8626,22.3999,161.204,97.725,96.5197,0.00285956,0.0954468,20.9775,183.419,0.110764,0.0,0.0
1494,373.25,20.8066,22.1705,156.051,97.7278,96.2335,0.00295059,0.0961224,20.9768,183.369,0.137526,0.0,0.0
1512,377.75,21.45,22.2903,157.201,97.6998,97.4064,0.00291924,0.0962019,20.9759,183.319,0.0268376,0.0,0.0
1530,382.25,20.9825,22.0078,160.534,97.6629,97.2138,0.00291104,0.0961041,20.9764,183.269,0.0411429,0.0,0.0
1548,386.75,21.6099,22.441,157.537,97.6377,97.7003,0.0029592,0.0965713,20.9764,183.209,-0.0057193,0.0,0.0
1566,391.25,21.4254,22.022,157.948,97.6045,97.2027,0.00320622,0.0965852,20.9759,183.159,0.0368165,0.0,0.0
1584,395.75,21.0666,22.3385,155.434,97.6025,96.5299,0.00331851,0.096454,20.9756,183.109,0.0986265,0.0,0.0
1602,400.25,20.9817,22.1311,156.345,97.5669,97.2831,0.003393,0.0964812,20.9746,183.069,0.0259985,0.0,0.0
1620,404.75,20.5667,21.4469,159.19,97.5581,97.1576,0.00330816,0.0968591,20.9742,182.999,0.0367105,0.0,0.0
1638,409.25,20.6162,21.1782,162.659,97.5429,97.1291,0.00315328,0.0968871,20.9742,182.959,0.0379364,0.0,0.0
1656,413.75,20.2474,21.6574,160.321,97.5357,97.2146,0.00304171,0.0967582,20.9748,182.919,0.0294267,0.0,0.0
1674,418.25,20.5859,21.6842,159.639,97.5128,97.6829,0.00309646,0.0971829,20.9749,182.858,-0.0155481,0.0,0.0
1692,422.75,20.8774,21.9285,155.46,97.5024,96.6226,0.00317515,0.0973905,20.9749,182.828,0.0809047,0.0,0.0
1710,427.25,20.7461,20.9704,160.038,97.4956,97.6875,,0.0971503,,182.778,-0.0175511,0.0,0.0
1728,431.75,21.091,21.7135,155.332,97.4776,96.6924,,,,182.728,0.072191,0.0,0.0
1746,436.25,21.152,21.561,158.129,97.4856,97.3792,,,,182.678,0.00974954,0.0,0.0
1752,437.75,20.5948,21.6629,154.491,97.4776,97.2372,,,,182.658,0.0220436,0.0,0.0

File: Vinyl_Tile_Cone_HF25Scan_220510_R4.csv
Names,Time,Stack TC,Smoke TC,Exh Press,Smoke Comp,Smoke Meas,CO Meter,CO2 Meter,O2 Meter,Sample Mass,Ext Coeff,Start Test,Flame Verif
Chan Gain,,500,500,1,1,1,1,1,1,1,1,1.0,1.0
Offset,,0,0,0.135316,0,0,0,0,0,0,0,0.0,0.0
Gain,,1,1,25.011,13.8443,15.4071,1,1,1,1.00079,1.02936,1.0,1.0
Units,sec,C,C,Pa,%,%,%,%,%,g,/m,,
Baseline,,19.2954,19.8038,141.806,104.888,103.932,0.000264935,0.0453249,21.0002,-446.498,0.0826347,,
11,2.5,17.1983,18.1277,139.255,104.34,103.386,-0.00014016,0.0485037,20.9959,534.642,0.0828968,0.0,0.0
22,5.25,17.4888,17.9618,141.034,104.328,103.486,6.88527e-05,0.0482822,20.996,534.652,0.0732137,0.0,0.0
33,8,17.0352,18.0832,139.698,104.329,103.415,0.000257758,0.050205,20.9946,534.682,0.0794789,0.0,0.0
44,10.75,17.0678,17.6976,146.404,104.345,103.507,0.000200112,0.0512785,20.9941,534.672,0.0728303,0.0,0.0
55,13.5,17.0935,18.5231,139.84,104.334,103.364,7.99048e-05,0.050255,20.9955,534.642,0.08428,0.0,0.0
66,16.25,17.5749,18.2076,142.19,104.352,103.408,0.000192213,0.0489395,20.9969,534.592,0.0821096,0.0,0.0
77,19,17.6314,17.8367,138.398,104.378,103.391,0.000369329,0.0473429,20.9994,534.592,0.0857408,0.0,0.0
88,21.75,17.6195,18.3569,143.635,104.381,103.429,0.000391775,0.0461941,21.0005,534.602,0.0827112,0.0,0.0
99,24.5,17.6768,18.3733,140.583,104.404,103.466,0.000358063,0.045416,21.0009,534.642,0.0814792,0.0,0.0
110,27.25,17.0602,17.8726,143.923,104.445,103.455,0.000241553,0.0450532,21.001,534.572,0.0859679,0.0,0.0
121,30,16.7902,17.8202,143.036,104.46,103.499,0.000137129,0.0450302,21.001,534.582,0.083462,0.0,0.0
132,32.75,17.1217,18.0756,140.478,104.491,103.456,0.000295959,0.0449589,21.001,534.622,0.0899429,0.0,0.0
143,35.5,17.4448,18.1597,146.801,104.523,103.541,0.000538445,0.0448494,21.001,534.562,0.0852152,0.0,0.0
154,38.25,17.7102,18.6042,140.325,104.547,103.627,0.000539272,0.044993,21.0011,534.562,0.0797584,0.0,0.0
165,41,17.5911,17.9242,141.23,104.582,103.635,0.000463211,0.045491,21.0007,534.592,0.0821672,0.0,0.0
176,43.75,17.4176,18.2678,142.79,104.608,103.696,0.000378167,0.0467671,20.9992,534.582,0.0791044,0.0,0.0
187,46.5,17.6684,18.6127,139.68,104.631,103.498,0.000383718,0.0484328,20.9979,534.602,0.0982901,0.0,0.0
198,49.25,17.4834,18.0963,140.926,104.644,103.738,0.000321586,0.049465,20.9968,534.622,0.0785613,0.0,0.0
209,52,17.4242,17.7908,142.446,104.674,103.483,0.000302965,0.0496739,20.9968,534.592,0.103322,0.0,0.0
220,54.75,17.9379,18.5947,143.961,104.689,103.532,0.000264444,0.0490068,20.9975,534.582,0.100363,0.0,0.0
231,57.5,17.8194,18.3805,141.346,104.689,103.586,0.000350444,0.0484358,20.9986,534.522,0.0956161,0.0,0.0
242,60.25,18.1195,18.1955,146.363,104.696,103.332,0.000492373,0.0480783,20.9989,534.602,0.118396,0.0,0.0
253,63,18.0851,18.5808,145.314,104.697,103.44,0.000346087,0.0473319,21.0002,534.572,0.1091,0.0,0.0
264,65.75,17.238,18.1507,142.971,104.717,103.134,4.24558e-05,0.0465514,21.0015,534.592,0.137531,0.0,0.0
275,68.5,17.8903,18.3616,140.899,104.73,103.229,-6.847e-05,0.0462986,21.0029,534.522,0.130349,0.0,0.0
286,71.25,18.063,18.2257,144.935,104.719,102.911,-6.49401e-05,0.0462426,21.0034,534.532,0.157211,0.0,0.0
297,74,18.2007,18.5702,141.818,104.743,102.948,-0.000159598,0.0460721,21.0036,534.512,0.156028,0.0,0.0
308,76.75,17.9387,18.1835,138.708,104.751,102.1,-0.0001676,0.0459306,21.0036,534.512,0.231461,0.0,0.0
319,79.5,17.8861,18.5079,144.418,104.77,101.853,0.000139662,0.0460679,21.0027,534.512,0.254998,0.0,0.0
330,82.25,18.1647,18.3031,142.385,104.776,99.7006,0.000436858,0.0475769,21.0004,534.512,0.448336,0.0,0.0
341,85,18.0027,18.4329,137.041,104.798,99.2934,0.0008717,0.0500002,20.9989,534.462,0.487218,0.0,0.0
352,87.75,18.0634,18.6243,136.76,104.802,100.46,0.00191228,0.0617054,20.9786,534.342,0.382046,0.0,1.0
363,90.5,18.6731,18.512,141.039,104.828,100.172,0.00323054,0.0810969,20.9505,534.221,0.410209,0.0,1.0
374,93.25,18.7168,19.0632,138.403,104.848,99.363,0.00423744,0.101584,20.9199,534.111,0.485151,0.0,1.0
385,96,19.5934,19.1363,140.41,104.872,99.048,0.00508668,0.116818,20.8969,533.901,0.515934,0.0,0.0
396,98.75,19.6837,20.224,138.658,104.901,98.2515,0.00588268,0.132226,20.8777,533.751,0.591275,0.0,0.0
407,101.5,20.5923,20.7182,138.064,104.927,98.5435,0.00633682,0.145467,20.859,533.591,0.56677,0.0,0.0
418,104.25,21.6031,21.0907,134.373,104.947,98.1335,0.00656345,0.154138,20.8505,533.331,0.60609,0.0,0.0
429,107,22.1442,21.6154,135.858,104.96,98.3564,0.0063523,0.15733,20.8533,533.131,0.586769,0.0,0.0
440,109.75,22.2416,22.3219,133.969,104.981,98.1429,0.00580025,0.155977,20.8635,532.89,0.608169,0.0,0.0
451,112.5,23.0575,22.8683,137.803,105.006,98.4208,0.00536595,0.150205,20.8763,532.71,0.584819,0.0,0.0
462,115.25,23.5193,23.359,134.797,105.031,99.8201,0.00501819,0.14383,20.8866,532.51,0.459492,0.0,0.0
473,118,23.2949,23.587,137.657,105.059,99.4011,0.0047363,0.13836,20.8912,532.27,0.499901,0.0,0.0
484,120.75,24.1187,23.9675,136.461,105.099,97.2824,0.00454952,0.135548,20.8926,532.1,0.697851,0.0,0.0
495,123.5,23.8724,24.4124,135.232,105.104,98.1814,0.00461306,0.136235,20.8915,531.91,0.615227,0.0,0.0
506,126.25,23.6552,24.4566,134.916,105.126,98.5237,0.00488838,0.139048,20.8865,531.729,0.585653,0.0,0.0
517,129,23.967,24.5959,136.938,105.161,96.5842,0.00507016,0.14509,20.8781,531.589,0.76819,0.0,0.0
528,131.75,24.4789,24.3882,132.427,105.178,97.6012,0.00525186,0.158796,20.8632,531.349,0.675096,0.0,0.0
539,134.5,24.6675,24.8519,131.569,105.208,97.5265,0.00529576,0.176849,20.8302,531.129,0.684589,0.0,0.0
550,137.25,25.4394,25.4801,134.121,105.21,97.628,0.0053635,0.19542,20.8019,530.879,0.675337,0.0,0.0
561,140,26.2114,25.8552,133.723,105.218,95.5131,0.00592908,0.212935,20.777,530.619,0.873779,0.0,0.0
572,142.75,26.2552,26.6414,132.066,105.228,95.7609,0.00652149,0.228842,20.7564,530.408,0.851255,0.0,0.0
583,145.5,26.3781,27.1561,134.149,105.243,93.0192,0.00708269,0.242639,20.7344,530.138,1.11481,0.0,0.0
594,148.25,28.3107,28.5486,130.08,105.25,94.0673,0.00745438,0.25743,20.7112,529.878,1.01426,0.0,0.0
605,151,28.5418,28.9752,129.947,105.265,95.2089,0.00793947,0.263357,20.7018,529.558,0.906608,0.0,0.0
616,153.75,29.232,29.3252,131.996,105.271,96.288,0.00863315,0.265124,20.7009,529.298,0.805352,0.0,0.0
627,156.5,29.8326,29.9709,130.783,105.277,96.7098,0.00882745,0.264005,20.7048,528.997,0.766468,0.0,0.0
638,159.25,30.4271,30.4706,132.885,105.286,97.8824,0.00842431,0.257361,20.7159,528.767,0.658329,0.0,0.0
649,162,30.6208,31.1436,131.447,105.299,99.7143,0.00782017,0.247167,20.7322,528.487,0.492065,0.0,0.0
660,164.75,31.7339,31.7354,131.751,105.288,100.484,0.0072623,0.234308,20.7497,528.247,0.421728,0.0,0.0
671,167.5,31.4534,31.9156,134.446,105.304,100.184,0.00672595,0.222079,20.7691,528.067,0.450107,0.0,0.0
682,170.25,31.6059,32.0276,133.807,105.302,100.474,0.0064502,0.20673,20.792,527.886,0.42374,0.0,0.0
693,173,31.7071,31.9427,130.392,105.309,100.077,0.00616538,0.191775,20.8119,527.706,0.460167,0.0,0.0
704,175.75,31.9255,31.9615,132.608,105.316,100.204,0.00586572,0.177042,20.8261,527.526,0.449299,0.0,0.0
715,178.5,31.4373,32.1862,134.551,105.318,100.386,0.00564797,0.165104,20.8426,527.396,0.433093,0.0,0.0
726,181.25,30.9878,32.1601,136.848,105.329,100.576,0.00544332,0.153168,20.8583,527.246,0.416971,0.0,0.0
737,184,30.5468,31.8892,134.969,105.326,100.369,0.00512321,0.144026,20.8712,527.146,0.435304,0.0,0.0
748,186.75,30.5431,31.6979,136.94,105.329,100.576,0.00492633,0.137044,20.8787,527.046,0.416965,0.0,0.0
759,189.5,29.9933,31.2114,137.993,105.32,99.6367,0.00510137,0.13247,20.8831,526.906,0.500868,0.0,0.0
770,192.25,29.366,31.1633,139.123,105.321,99.1881,0.0050935,0.129832,20.8857,526.826,0.541755,0.0,0.0
781,195,29.6649,31.2229,135.415,105.322,97.1104,0.00496892,0.129368,20.8853,526.726,0.732982,0.0,0.0
792,197.75,29.3238,30.8209,139.391,105.332,96.958,0.00496829,0.131719,20.8803,526.625,0.747955,0.0,0.0
803,200.5,29.6426,30.7142,137.718,105.331,97.4282,0.00494562,0.134917,20.8749,526.525,0.704237,0.0,0.0
814,203.25,29.154,30.5179,134.31,105.324,96.8311,0.00508071,0.137951,20.8699,526.425,0.75917,0.0,0.0
825,206,29.2596,30.67,135.829,105.324,96.1944,0.00529242,0.14025,20.8654,526.375,0.818695,0.0,0.0
836,208.75,28.9136,30.5739,136.845,105.338,95.9133,0.00548079,0.143317,20.861,526.245,0.846322,0.0,0.0
847,211.5,28.8169,30.3271,133.673,105.329,95.0542,0.00552696,0.147002,20.8533,526.135,0.926761,0.0,0.0
858,214.25,27.8764,30.0567,134.537,105.329,93.6634,0.00568356,0.152333,20.8451,526.055,1.05993,0.0,0.0
869,217,28.7292,30.3131,135.029,105.34,94.419,0.00601475,0.157994,20.8362,525.945,0.988284,0.0,0.0
880,219.75,27.9634,30.7569,133.519,105.332,92.9139,0.00633125,0.164027,20.8287,525.895,1.13272,0.0,0.0
891,222.5,29.0749,31.1225,133.623,105.332,92.7931,0.00638844,0.169164,20.8208,525.795,1.1444,0.0,0.0
902,225.25,28.6118,30.4464,134.204,105.325,92.7574,0.00630862,0.173089,20.8135,525.645,1.14734,0.0,0.0
913,228,28.9014,30.7342,132.879,105.319,91.8725,0.00628566,0.17602,20.8087,525.565,1.23335,0.0,0.0
924,230.75,29.4844,31.1152,134.666,105.319,91.3454,0.00645412,0.180679,20.8028,525.445,1.28533,0.0,0.0
935,233.5,29.2767,31.0881,134.039,105.311,93.4805,0.00651032,0.184428,20.7978,525.334,1.07602,0.0,0.0
946,236.25,29.5082,31.0234,135.459,105.302,91.7164,,0.187296,,525.234,1.24722,0.0,0.0
957,239,29.5415,31.0311,138.514,105.309,90.8954,,0.189747,,525.094,1.32905,0.0,0.0
968,241.75,29.8274,31.3856,135.658,105.307,92.5538,,,,524.974,1.16565,0.0,0.0
979,244.5,30.1084,31.7967,138.886,105.271,91.8099,,,,524.914,1.23537,0.0,0.0
989,247,29.9654,31.7919,135.436,105.283,94.0433,,,,524.784,1.01939,0.0,0.0

File: Vinyl_Tile_Cone_HF50Scalar_220405_R1.csv
LABORATORY,FSRI
TEST IDENT,Vinyl_Tile_HF50_1
OPERATOR,Dow
MATERIAL,Vinyl Tile
ORIENTATION,Horizontal
HEAT FLUX,50
SURF AREA,0.00884
C FACTOR,0.0386621
SPEC HOLDER DIFF,-566
SPECIMEN MASS,53.42
SCAN TIME,0.25
O2 DELAY TIME,11
CO DELAY TIME,11
CO2 DELAY TIME,8
FLOW FACTOR,1
SCAN COUNT,2004
TIME TO IGN,39.5
END OF TEST SCAN,1524
END OF TEST TIME,381
TEST STATUS,1
PRE TEST CMT,Dimensions: 101.52 x 101.30 x 2.50 mm; with frame and grid

File: Vinyl_Tile_Cone_HF50Scalar_220405_R2.csv
LABORATORY,FSRI
TEST IDENT,Vinyl_Tile_HF50_2
OPERATOR,Dow
MATERIAL,Vinyl Tile
ORIENTATION,Horizontal
HEAT FLUX,50
SURF AREA,0.00884
C FACTOR,0.0386621
SPEC HOLDER DIFF,-566
SPECIMEN MASS,54.14
SCAN TIME,0.25
O2 DELAY TIME,11
CO DELAY TIME,11
CO2 DELAY TIME,8
FLOW FACTOR,1
SCAN COUNT,1860
TIME TO IGN,36.25
END OF TEST SCAN,1380
END OF TEST TIME,345
TEST STATUS,1
PRE TEST CMT,Dimensions: 101.53 x 101.54 x 2.51 mm; with frame and grid

File: Vinyl_Tile_Cone_HF50Scalar_220405_R3.csv
LABORATORY,FSRI
TEST IDENT,Vinyl_Tile_HF50_3
OPERATOR,Dow
MATERIAL,Vinyl Tile
ORIENTATION,Horizontal
HEAT FLUX,50
SURF AREA,0.01
C FACTOR,0.0386621
SPEC HOLDER DIFF,-566
SPECIMEN MASS,54.06
SCAN TIME,0.25
O2 DELAY TIME,11
CO DELAY TIME,11
CO2 DELAY TIME,8
FLOW FACTOR,1
SCAN COUNT,2096
TIME TO IGN,37
END OF TEST SCAN,1616
END OF TEST TIME,404
TEST STATUS,1
PRE TEST CMT,Dimensions: 101.23 x 101.61 x 2.53 mm; with frame and grid

File: Vinyl_Tile_Cone_HF50Scalar_220510_R4.csv
LABORATORY,FSRI
TEST IDENT,Vinyl_Tile_HF50_4
OPERATOR,Dow
MATERIAL,vinyl tile
ORIENTATION,Horizontal
HEAT FLUX,50
SURF AREA,0.01
C FACTOR,0.0414606
SPEC HOLDER DIFF,-566
SPECIMEN MASS,52.86
SCAN TIME,0.25
O2 DELAY TIME,11
CO DELAY TIME,11
CO2 DELAY TIME,8
FLOW FACTOR,1
SCAN COUNT,846
TIME TO IGN,28.75
END OF TEST SCAN,366
END OF TEST TIME,91.5
TEST STATUS,1
PRE TEST CMT,Dimensions: 100.91 x 101.00 x 2.58 mm; with frame; focus on time to ignition
POST TEST CMT,Test ended at 90 seconds. Sample surface became elevated after ignition due to expanding gases between the bottom surface of the sample and the foil pan.