Folder: fsri_materials_database/01_Data/Vinyl_Tile/Cone (part 6)

File: Vinyl_Tile_Cone_HF75Scan_220405_R3.csv
Names,Time,Stack TC,Smoke TC,Exh Press,Smoke Comp,Smoke Meas,CO Meter,CO2 Meter,O2 Meter,Sample Mass,Ext Coeff,Start Test,Flame Verif
Chan Gain,,500,500,1,1,1,1,1,1,1,1,1.0,1.0
Offset,,0,0,0.132686,0,0,0,0,0,0,0,0.0,0.0
Gain,,1,1,25.011,13.1151,13.9355,1,1,1,1.00092,1.01752,1.0,1.0
Units,sec,C,C,Pa,%,%,%,%,%,g,/m,,
Baseline,,42.3432,44.0841,147.571,98.9311,97.9457,0.000645508,0.0628361,21.0201,-836.79,0.0894234,,
17,4,41.6336,43.0794,152.061,98.6219,97.4757,0.00061136,0.0659577,21.0209,190.926,0.104338,0.0,0.0
34,8.25,41.1215,43.1121,144.259,98.6399,97.147,0.000734017,0.0657188,21.0211,190.996,0.136121,0.0,0.0
51,12.5,41.4795,42.411,145.757,98.6627,97.375,0.0010821,0.0651681,21.0211,191.006,0.117266,0.0,0.0
68,16.75,41.4227,42.7974,145.68,98.6707,91.1782,0.00131169,0.0646608,21.019,190.896,0.704872,0.0,0.0
85,21,41.9073,43.4004,142.317,98.6919,84.205,0.00655213,0.092843,20.9713,190.596,1.41693,0.0,1.0
102,25.25,42.3287,44.4947,139.673,98.6988,78.1401,0.0149727,0.160138,20.8594,190.205,2.08474,0.0,0.0
119,29.5,44.4029,46.2127,134.146,98.7228,72.5498,0.0210718,0.240917,20.743,189.575,2.74946,0.0,0.0
136,33.75,46.2959,48.3667,134.704,98.7684,65.5765,0.0212785,0.288651,20.6749,189.004,3.65556,0.0,0.0
153,38,48.4213,51.018,132.134,98.7888,69.3156,0.0209733,0.327036,20.639,188.444,3.16246,0.0,0.0
170,42.25,49.9103,52.5961,133.663,98.8192,66.4879,0.0216197,0.349722,20.6231,187.803,3.53696,0.0,0.0
187,46.5,51.0251,53.6367,136.812,98.8729,72.3793,0.0215906,0.357097,20.6284,187.142,2.78402,0.0,0.0
204,50.75,52.3034,55.3537,136.033,98.9069,72.7854,0.0217717,0.362185,20.6283,186.552,2.73715,0.0,0.0
221,55,53.6104,56.526,131.638,98.9397,68.4769,0.0239716,0.382245,20.5992,185.901,3.28474,0.0,0.0
238,59.25,54.3296,57.8433,130.039,98.9865,66.2327,0.0288517,0.393522,20.5721,185.251,3.58638,0.0,0.0
255,63.5,55.9831,59.6617,127.706,99.0161,64.9688,0.0328295,0.4107,20.5359,184.54,3.76102,0.0,0.0
272,67.75,57.4915,61.203,134.117,99.0434,64.2811,0.0347954,0.429289,20.497,183.789,3.85845,0.0,0.0
289,72,58.3341,62.3998,130.388,99.0806,65.1483,0.0332392,0.424085,20.5028,183.169,3.74221,0.0,0.0
306,76.25,59.4523,63.8571,132.028,99.1026,69.9173,0.0279361,0.381332,20.5654,182.598,3.11362,0.0,0.0
323,80.5,59.6197,64.0654,137.255,99.1166,71.789,0.0221733,0.335208,20.6342,182.128,2.87909,0.0,0.0
340,84.75,59.6189,64.0925,140.05,99.1154,69.5644,0.0184103,0.307077,20.6695,181.747,3.15995,0.0,0.0
357,89,59.8281,64.3352,134.992,99.1442,65.2912,0.0166936,0.301102,20.6743,181.417,3.72838,0.0,0.0
374,93.25,60.3765,64.4276,136.367,99.1454,67.7029,0.0161932,0.312883,20.6549,181.007,3.40474,0.0,0.0
391,97.5,60.1573,64.7149,135.494,99.1638,61.644,0.0161953,0.323291,20.6347,180.626,4.2432,0.0,0.0
408,101.75,60.9205,65.4257,134.057,99.1886,63.1716,0.0160041,0.322267,20.6346,180.236,4.02694,0.0,0.0
425,106,61.1611,65.6428,138.918,99.1942,65.3945,0.015147,0.30967,20.6585,179.866,3.71877,0.0,0.0
442,110.25,61.256,66.0061,135.725,99.1966,72.4686,0.0138424,0.293259,20.6883,179.575,2.8022,0.0,0.0
459,114.5,60.7435,65.7175,138.37,99.2123,77.9347,0.0124867,0.271179,20.723,179.275,2.15455,0.0,0.0
476,118.75,60.8045,65.4936,142.473,99.2175,80.7249,0.0105833,0.251166,20.7594,179.005,1.84105,0.0,0.0
493,123,60.5675,65.116,139.498,99.2299,86.8455,0.00894529,0.233175,20.7946,178.785,1.18985,0.0,0.0
510,127.25,59.646,64.2635,143.781,99.2447,90.0683,0.00749334,0.21775,20.8239,178.615,0.865964,0.0,0.0
527,131.5,59.3156,64.0893,143.985,99.2571,92.6263,0.00647917,0.206131,20.8441,178.464,0.617116,0.0,0.0
544,135.75,58.8738,63.5616,143.957,99.2683,93.4148,0.00568131,0.196109,20.8607,178.274,0.542467,0.0,0.0
561,140,58.0014,62.6846,143.661,99.2855,93.7886,0.00517574,0.188261,20.8733,178.104,0.508368,0.0,0.0
578,144.25,56.9987,61.156,140.268,99.3135,94.865,0.00510684,0.183451,20.8821,177.994,0.409035,0.0,0.0
595,148.5,57.2716,61.2142,140.673,99.3179,95.6951,0.00476234,0.179056,20.8898,177.864,0.331664,0.0,0.0
612,152.75,56.0276,60.1636,141.956,99.3283,95.5399,0.00465829,0.175328,20.8966,177.744,0.34709,0.0,0.0
629,157,55.5876,59.4847,145.816,99.3587,96.2118,0.00460169,0.171726,20.901,177.634,0.287268,0.0,0.0
646,161.25,54.7049,58.6699,143.424,99.3732,95.9128,0.00469585,0.167936,20.9059,177.453,0.316341,0.0,0.0
663,165.5,55.5897,58.6423,142.163,99.3632,96.3373,0.00497089,0.1654,20.9084,177.373,0.276032,0.0,0.0
680,169.75,54.3656,58.2871,141.273,99.3824,96.5363,0.00476676,0.16234,20.9112,177.273,0.259337,0.0,0.0
697,174,53.976,57.52,145.478,99.3792,96.7396,0.00485363,0.15812,20.9168,177.163,0.240273,0.0,0.0
714,178.25,53.4221,57.1762,141.31,99.3824,96.3649,0.00502326,0.155271,20.9201,177.053,0.275198,0.0,0.0
731,182.5,53.1695,56.6309,144.123,99.3916,96.857,0.00542321,0.152705,20.9232,176.983,0.230565,0.0,0.0
748,186.75,52.9524,56.619,142.299,99.39,96.8319,0.00554535,0.14934,20.9264,176.893,0.232733,0.0,0.0
765,191,52.2274,55.7541,144.582,99.3816,96.6983,0.00526936,0.145536,20.9305,176.823,0.244296,0.0,0.0
782,195.25,51.8915,55.1742,141.83,99.3643,97.3456,0.00520141,0.142275,20.9344,176.703,0.183205,0.0,0.0
799,199.5,51.4023,54.745,145.535,99.3716,96.9684,0.00530261,0.140409,20.9369,176.603,0.218505,0.0,0.0
816,203.75,51.3582,54.7068,145.469,99.3323,97.0815,0.00547397,0.137789,20.9401,176.533,0.204575,0.0,0.0
833,208,50.926,54.2046,141.66,99.3291,96.4823,0.00552377,0.135123,20.9418,176.453,0.259549,0.0,0.0
850,212.25,50.9929,54.1373,145.248,99.3199,97.3681,0.00543898,0.132508,20.9449,176.383,0.177146,0.0,0.0
867,216.5,50.2745,53.4202,147.46,99.3043,97.5008,0.00554686,0.129206,20.9498,176.282,0.163588,0.0,0.0
884,220.75,50.2054,53.0665,145.454,99.2707,97.0734,0.00548426,0.127565,20.9507,176.222,0.199778,0.0,0.0
901,225,49.697,52.9413,149.728,99.2727,98.1872,0.00536819,0.126042,20.954,176.122,0.0981308,0.0,0.0
918,229.25,49.6416,52.6277,145.265,99.2371,97.975,0.00566343,0.124272,20.9552,176.052,0.11424,0.0,0.0
935,233.5,49.5139,52.2552,145.411,99.2079,97.6399,0.00586229,0.122795,20.9594,175.992,0.142193,0.0,0.0
952,237.75,49.3458,52.173,144.867,99.1918,97.3286,0.00599893,0.120367,20.9641,175.982,0.169256,0.0,0.0
969,242,48.5032,51.5989,145.799,99.1766,97.2053,0.00613568,0.118424,20.9658,175.902,0.179204,0.0,0.0
986,246.25,48.1689,51.2226,141.762,99.1306,97.173,0.00599888,0.116496,20.969,175.862,0.178029,0.0,0.0
1003,250.5,48.5072,51.3611,144.488,99.1034,97.585,0.00628715,0.115327,20.9699,175.752,0.137806,0.0,0.0
1020,254.75,48.3156,51.2807,137.621,99.0702,97.8304,0.0063961,0.11333,20.9714,175.682,0.112398,0.0,0.0
1037,259,48.4205,50.9495,147.418,99.0193,97.9716,0.00643746,0.111988,20.9734,175.602,0.0949447,0.0,0.0
1054,263.25,47.9426,50.6838,145.374,98.9857,97.7373,0.00638951,0.111338,20.9739,175.542,0.113288,0.0,0.0
1071,267.5,47.8796,50.5012,146.151,98.9665,97.5808,0.00623435,0.110917,20.9758,175.522,0.125858,0.0,0.0
1088,271.75,47.9534,50.5409,142.617,98.9249,97.2839,0.00603836,0.110111,20.9763,175.412,0.149298,0.0,0.0
1105,276,47.5515,50.2609,143.865,98.8821,96.9982,0.00616576,0.10984,20.9764,175.392,0.17169,0.0,0.0
1122,280.25,47.6837,50.0069,147.159,98.8448,97.5191,0.00631939,0.109543,20.9751,175.342,0.12052,0.0,0.0
1139,284.5,47.5804,50.0178,147.489,98.794,96.635,0.00631017,0.109033,20.9749,175.241,0.197222,0.0,0.0
1156,288.75,47.5494,50.1805,146.49,98.7376,97.2223,0.006282,0.109867,20.9741,175.191,0.138039,0.0,0.0
1173,293,46.8144,49.4668,143.629,98.6947,97.173,0.00589825,0.110348,20.9747,175.121,0.138698,0.0,0.0
1190,297.25,46.8086,48.8338,143.446,98.6551,97.497,0.00587547,0.109347,20.9748,175.131,0.105398,0.0,0.0
1207,301.5,46.6409,49.0924,143.964,98.5983,97.3299,0.00590271,0.108405,20.9763,175.011,0.115568,0.0,0.0
1224,305.75,46.6689,48.9607,142.765,98.5587,97.3567,0.00613428,0.107951,20.977,175.021,0.109523,0.0,0.0
1241,310,46.6165,48.7826,141.579,98.5411,96.976,0.00637226,0.107072,20.9772,174.921,0.142892,0.0,0.0
1258,314.25,46.811,48.7223,143.578,98.4878,97.2257,0.00633443,0.106617,20.9772,174.881,0.115122,0.0,0.0
1275,318.5,46.2772,49.2663,145.588,98.4502,97.3112,0.00601444,0.106377,20.9788,174.761,0.103869,0.0,0.0
1292,322.75,46.5032,48.8426,140.806,98.4134,97.3452,0.00590688,0.106236,20.9795,174.711,0.0974088,0.0,0.0
1309,327,46.2681,48.9925,145.759,98.3485,97.0751,0.00579538,0.105524,20.9801,174.671,0.116323,0.0,0.0
1326,331.25,46.6794,48.4933,148.349,98.2901,96.49,0.00601326,0.105004,20.9792,174.621,0.164985,0.0,0.0
1343,335.5,46.2437,48.2905,140.124,98.2273,97.2895,0.00603383,0.105475,20.98,174.601,0.0856229,0.0,0.0
1360,339.75,46.1145,48.3746,143.344,98.1708,97.0688,0.00585152,0.105743,20.9802,174.491,0.100767,0.0,0.0
1377,344,46.2068,48.671,143.202,98.1128,96.8961,0.00574309,0.105571,20.9802,174.521,0.111379,0.0,0.0
1394,348.25,46.0126,48.5866,142.691,98.0632,96.4032,0.00592887,0.104848,20.9834,174.441,0.152382,0.0,0.0
1411,352.5,45.8558,48.5116,149.494,98.0384,96.285,0.00599235,0.104899,20.9829,174.381,0.161076,0.0,0.0
1428,356.75,46.2182,48.496,144.663,98.0011,96.7668,0.00589394,0.104745,20.9818,174.341,0.113131,0.0,0.0
1445,361,46.2357,48.5001,145.563,98.2377,97.0951,0.0059002,0.104488,20.9826,174.261,0.104417,0.0,0.0
1462,365.25,46.1488,48.0344,147.952,98.2189,96.4806,0.0060624,0.103795,20.9841,174.201,0.159378,0.0,0.0
1479,369.5,46.1933,48.221,148.001,98.152,96.5465,0.00591403,0.103648,20.9839,174.15,0.147206,0.0,0.0
1496,373.75,45.9998,48.3667,143.175,98.0928,96.3934,0.00567418,0.103566,20.9828,174.11,0.155983,0.0,0.0
1513,378,45.9811,48.0387,145.127,98.0356,96.1421,0.00546666,0.102951,20.9826,174.07,0.174077,0.0,0.0
1530,382.25,46.2084,48.421,144.239,97.9583,96.2105,0.00531148,0.103642,20.983,174.01,0.160688,0.0,0.0
1547,386.5,45.6537,48.0316,144.78,97.8991,96.8604,0.00557241,0.102895,20.9845,173.97,0.0952058,0.0,0.0
1564,390.75,46.0066,48.4682,146.344,97.8587,95.9401,0.00576728,0.103088,20.9838,173.92,0.17673,0.0,0.0
1581,395,45.5659,48.8733,144.444,97.8194,96.3938,0.0057561,0.102887,20.9841,173.89,0.131035,0.0,0.0
1598,399.25,46.2273,48.3586,141.315,97.7498,96.7562,0.00588682,0.102181,20.9844,173.8,0.0911908,0.0,0.0
1615,403.5,46.4063,48.1051,144.602,97.7438,96.9646,,0.102287,,173.75,0.0714395,0.0,0.0
1632,407.75,45.4872,48.3154,144.1,97.717,96.2327,,,,173.74,0.136618,0.0,0.0
1649,412,45.9138,48.1254,145.153,97.6897,96.3373,,,,173.69,0.124433,0.0,0.0

File: Vinyl_Tile_Cone_HF75Scan_220510_R4.csv
Names,Time,Stack TC,Smoke TC,Exh Press,Smoke Comp,Smoke Meas,CO Meter,CO2 Meter,O2 Meter,Sample Mass,Ext Coeff,Start Test,Flame Verif
Chan Gain,,500,500,1,1,1,1,1,1,1,1,1.0,1.0
Offset,,0,0,0.135316,0,0,0,0,0,0,0,0.0,0.0
Gain,,1,1,25.011,13.8443,15.4071,1,1,1,1.00079,1.02936,1.0,1.0
Units,sec,C,C,Pa,%,%,%,%,%,g,/m,,
Baseline,,42.5519,44.0722,131.502,105.404,107.563,7.87567e-05,0.0420182,21.0004,-447.809,-0.183009,,
8,1.75,39.5145,41.2991,129.768,105.486,107.605,0.000162568,0.0471179,20.9914,533.861,-0.179641,0.0,0.0
16,3.75,40.0137,41.2271,130.105,105.481,107.263,0.000113181,0.046725,20.9921,533.891,-0.15127,0.0,0.0
24,5.75,39.8335,41.129,128.991,105.483,108.082,0.0001487,0.0464811,20.9949,533.881,-0.219776,0.0,0.0
32,7.75,39.813,41.5005,130.252,105.471,107.385,0.000135498,0.04642,20.9957,533.841,-0.16242,0.0,0.0
40,9.75,39.7656,41.5886,132.354,105.469,107.315,0.000321679,0.0466235,20.9957,533.861,-0.156671,0.0,0.0
48,11.75,39.9897,41.4773,135.539,105.452,106.004,0.00184233,0.0474637,20.9906,533.851,-0.0471062,0.0,0.0
56,13.75,39.7833,42.0575,126.38,105.46,87.6779,0.00625299,0.0563413,20.9577,533.601,1.66736,0.0,0.0
64,15.75,40.7584,41.8445,125.216,105.446,82.0488,0.0109845,0.079098,20.8946,533.351,2.26532,0.0,1.0
72,17.75,41.8442,43.0186,120.283,105.433,80.8381,0.0154907,0.106146,20.8288,533.171,2.3985,0.0,1.0
80,19.75,42.2176,42.8898,121.304,105.421,82.2378,0.0192728,0.130439,20.7841,532.84,2.24241,0.0,1.0
88,21.75,43.3624,43.5972,120.315,105.404,79.0532,0.0233456,0.158475,20.738,532.4,2.59757,0.0,1.0
96,23.75,44.2314,44.8922,119.409,105.391,75.5602,0.0267131,0.191498,20.6913,532.04,3.0045,0.0,1.0
104,25.75,45.5129,45.9639,120.652,105.371,60.9345,0.0276552,0.223341,20.66,531.629,4.94534,0.0,0.0
112,27.75,47.4045,47.5422,116.987,105.359,53.5413,0.0259893,0.256526,20.614,531.349,6.11222,0.0,0.0
120,29.75,48.4814,48.4903,120.234,105.344,58.7867,0.0234207,0.285801,20.5735,531.059,5.26704,0.0,0.0
128,31.75,49.2773,49.4326,118.924,105.321,64.7811,0.0214745,0.312826,20.5527,530.779,4.38826,0.0,0.0
136,33.75,50.3813,50.8943,116.242,105.292,69.4299,0.0201792,0.334592,20.545,530.479,3.76003,0.0,0.0
144,35.75,51.4264,51.7662,118.307,105.272,79.2912,0.0193389,0.349464,20.5417,530.098,2.55913,0.0,0.0
152,37.75,52.1757,52.7604,120.514,105.255,87.2905,0.0186132,0.363443,20.5438,529.768,1.68979,0.0,0.0
160,39.75,53.4158,53.8275,119.791,105.239,91.7018,0.0183717,0.376315,20.5451,529.458,1.24329,0.0,0.0
168,41.75,54.0077,54.4089,117.143,105.219,92.4583,0.0185589,0.383331,20.5507,529.147,1.1674,0.0,0.0
176,43.75,54.5233,55.1235,121.213,105.198,90.6551,0.0188504,0.384672,20.5603,528.857,1.34342,0.0,0.0
184,45.75,54.8945,55.325,120.857,105.174,91.1954,0.0189227,0.383628,20.5653,528.537,1.2877,0.0,0.0
192,47.75,55.4814,56.0828,118.159,105.152,87.4264,0.0187274,0.383746,20.5675,528.247,1.66689,0.0,0.0
200,49.75,55.1936,56.6054,120.149,105.136,87.9196,0.0182249,0.385018,20.5687,527.987,1.61472,0.0,0.0
208,51.75,55.8295,57.0376,120.713,105.123,86.138,0.0173188,0.384862,20.5707,527.726,1.79851,0.0,0.0
216,53.75,57.3464,58.1165,120.352,105.099,87.3493,0.0164498,0.383697,20.5716,527.446,1.67032,0.0,0.0
224,55.75,57.2875,58.4388,120.624,105.081,85.1577,0.0157495,0.384201,20.5701,527.136,1.89827,0.0,0.0
232,57.75,57.691,58.8731,118.132,105.059,85.642,0.0153237,0.38739,20.5619,526.826,1.84514,0.0,0.0
240,59.75,58.1096,59.646,119.013,105.059,82.8505,0.015293,0.394728,20.5428,526.525,2.14436,0.0,0.0
248,61.75,58.6325,59.7714,120.029,105.056,83.1161,0.0157216,0.40451,20.5267,526.205,2.1152,0.0,0.0
256,63.75,59.8601,60.4528,116.342,105.028,82.7376,0.0164741,0.415525,20.5071,525.915,2.15398,0.0,0.0
264,65.75,60.0746,61.3023,117.38,105.019,82.3638,0.0171762,0.423672,20.4945,525.625,2.19407,0.0,0.0
272,67.75,60.4546,61.8835,118.866,104.991,81.4352,0.0176678,0.430017,20.4876,525.244,2.29412,0.0,0.0
280,69.75,61.4932,62.3662,118.976,104.972,82.9567,0.0179048,0.434237,20.4822,524.964,2.12534,0.0,0.0
288,71.75,61.6569,63.5802,120.068,104.958,80.815,0.0179423,0.43657,20.4803,524.654,2.36028,0.0,0.0
296,73.75,62.7562,63.9549,114.225,104.929,81.0078,0.0178674,0.434892,20.4835,524.364,2.33629,0.0,0.0
304,75.75,62.4419,64.162,119.067,104.911,83.316,0.0177446,0.430007,20.4947,524.033,2.08105,0.0,0.0
312,77.75,62.7834,64.7707,119.043,104.892,83.3592,0.0175224,0.420706,20.5097,523.773,2.07469,0.0,0.0
320,79.75,62.973,64.5578,120.817,104.87,85.6049,0.0171745,0.411691,20.5251,523.503,1.83281,0.0,0.0
328,81.75,63.3427,65.1858,121.249,104.86,83.9681,0.0169057,0.400743,20.5388,523.253,2.00621,0.0,0.0
336,83.75,63.6264,65.5368,119.407,104.834,82.4236,0.0163657,0.388403,20.554,523.033,2.17167,0.0,0.0
344,85.75,63.6427,65.8481,120.126,104.828,84.7952,0.0152524,0.375192,20.5739,522.862,1.91502,0.0,0.0
352,87.75,63.2154,65.4181,118.111,104.799,83.4589,0.0139395,0.361619,20.5921,522.662,2.05593,0.0,0.0
360,89.75,63.7584,64.9993,124.931,104.794,81.4404,0.0124708,0.349754,20.6055,522.452,2.27657,0.0,0.0
368,91.75,63.0617,65.5787,122.531,104.771,83.7871,0.0112002,0.339064,20.6153,522.322,2.01809,0.0,0.0
376,93.75,62.8591,65.3689,123.765,104.752,82.1358,0.0103298,0.331591,20.6195,522.152,2.19615,0.0,0.0
384,95.75,63.2149,66.0049,122.928,104.754,82.7644,0.00975086,0.326472,20.6213,522.062,2.12752,0.0,0.0
392,97.75,62.864,65.7262,123.261,104.734,83.4862,0.00940097,0.322205,20.6254,521.962,2.04738,0.0,0.0
400,99.75,62.4249,65.547,120.488,104.716,84.6391,0.0091934,0.318961,20.6264,521.842,1.92193,0.0,0.0
408,101.75,63.0196,66.1458,123.259,104.704,83.3052,0.00913483,0.317038,20.6247,521.662,2.06435,0.0,0.0
416,103.75,62.7027,65.5604,121.577,104.688,79.4675,0.00927238,0.315983,20.6211,521.491,2.48882,0.0,0.0
424,105.75,63.5174,66.1119,118.787,104.683,81.6388,0.00945201,0.31567,20.615,521.361,2.24501,0.0,0.0
432,107.75,62.1264,65.9389,122.328,104.664,80.4196,0.00955242,0.317688,20.6051,521.261,2.37927,0.0,0.0
440,109.75,62.8695,66.1339,122.885,104.666,82.1833,0.00943994,0.320039,20.6001,521.091,2.18353,0.0,0.0
448,111.75,63.3158,66.3744,121.019,104.642,77.6168,0.00933625,0.320186,20.6002,520.981,2.69765,0.0,0.0
456,113.75,63.2857,65.9391,120.668,104.637,81.47,0.00927337,0.317465,20.6082,520.861,2.25977,0.0,0.0
464,115.75,63.3925,66.5405,122.552,104.621,83.2802,0.00912092,0.313464,20.6166,520.751,2.05987,0.0,0.0
472,117.75,62.6409,66.5411,119.622,104.669,81.9416,0.00887212,0.309532,20.6245,520.631,2.21035,0.0,0.0
480,119.75,63.1185,66.3342,119.15,104.706,81.2029,0.00855581,0.30508,20.6318,520.471,2.29532,0.0,0.0
488,121.75,63.084,66.2821,121.507,104.741,87.0055,0.0081641,0.299757,20.6419,520.391,1.67509,0.0,0.0
496,123.75,62.9038,66.6069,120.729,104.791,88.0465,0.00764838,0.290797,20.6599,520.31,1.57203,0.0,0.0
504,125.75,62.7267,66.3465,121.416,104.822,90.587,0.00703103,0.282763,20.6807,520.15,1.31792,0.0,0.0
512,127.75,62.2555,66.156,123.043,104.838,89.8328,0.00636863,0.271735,20.7036,520.1,1.39475,0.0,0.0
520,129.75,62.0932,65.8296,123.991,104.87,93.0385,0.00582422,0.261283,20.7264,520.02,1.08088,0.0,0.0
528,131.75,61.7174,65.209,125.472,104.899,97.2707,0.00540607,0.251098,20.7442,519.93,0.681757,0.0,0.0
536,133.75,61.3766,65.4955,127.435,104.926,97.7178,0.00511382,0.241559,20.7619,519.89,0.642598,0.0,0.0
544,135.75,61.1387,65.2124,128.19,104.947,101.876,0.0048899,0.231092,20.78,519.82,0.268122,0.0,0.0
552,137.75,60.4964,64.3051,124.148,104.97,102.364,0.00476283,0.22174,20.7957,519.66,0.227045,0.0,0.0
560,139.75,59.3136,64.0713,124.47,105.005,104.372,0.00470839,0.213816,20.8094,519.61,0.0546358,0.0,0.0
568,141.75,58.8921,63.5051,127.718,105.024,104.516,0.00475739,0.206856,20.8216,519.55,0.0437547,0.0,0.0
576,143.75,58.5904,63.0821,128.191,105.039,105.357,0.00487711,0.200284,20.8288,519.52,-0.0273533,0.0,0.0
584,145.75,58.2855,62.6939,124.053,105.067,106.613,0.00504541,0.195427,20.838,519.42,-0.131876,0.0,0.0
592,147.75,57.8504,62.1994,129.793,105.087,106.185,0.00515251,0.189407,20.8469,519.36,-0.0939346,0.0,0.0
600,149.75,57.3589,61.7966,129.113,105.101,106.738,0.00526653,0.183757,20.8572,519.36,-0.139522,0.0,0.0
608,151.75,57.1012,61.0781,130.641,105.112,107.068,0.00538335,0.178281,20.8639,519.27,-0.166534,0.0,0.0
616,153.75,56.2726,61.2404,128.576,105.127,107.08,0.00546473,0.173723,20.8693,519.26,-0.166179,0.0,0.0
624,155.75,56.3523,60.6319,124.995,105.13,107.653,0.00559716,0.16967,20.8746,519.21,-0.214131,0.0,0.0
632,157.75,56.1248,60.4196,128.373,105.139,107.975,0.0058526,0.166005,20.8785,519.089,-0.240264,0.0,0.0
640,159.75,55.3484,59.983,128.462,105.147,107.145,0.00603003,0.162694,20.8827,519.029,-0.169906,0.0,0.0
648,161.75,54.213,59.5196,128.932,105.136,107.527,0.00605242,0.159737,20.8882,519.039,-0.203044,0.0,0.0
656,163.75,54.7706,59.7361,129.696,105.132,108.108,0.00600303,0.156921,20.8929,518.969,-0.252041,0.0,0.0
664,165.75,54.2302,58.8894,131.978,105.114,107.614,0.00596767,0.154028,20.8962,518.869,-0.212308,0.0,0.0
672,167.75,54.1983,57.7347,128.466,105.112,107.852,0.00603517,0.15148,20.8994,518.869,-0.232394,0.0,0.0
680,169.75,53.2114,57.9378,127.437,105.086,107.998,0.0061134,0.1489,20.9026,518.819,-0.246839,0.0,0.0
688,171.75,53.1215,57.2371,125.672,105.065,108.364,,0.146686,,518.729,-0.279226,0.0,0.0
696,173.75,52.7563,57.2703,130.789,105.046,107.751,,,,518.629,-0.229626,0.0,0.0
704,175.75,52.515,56.9,128.653,105.01,106.696,,,,518.639,-0.143789,0.0,0.0
712,177.75,51.9396,56.4734,128.113,104.987,109.142,,,,518.639,-0.350518,0.0,0.0
720,179.75,51.6275,56.2622,129.102,104.951,107.212,,,,518.559,-0.192462,0.0,0.0
725,181,51.4992,55.6877,128.098,104.929,108.248,,,,518.499,-0.281168,0.0,0.0