Folder: fsri_materials_database/01_Data/Vinyl_Tile/Cone

Note: 01_Data/README.md
# Materials and Products Database
## 01_Data

Raw data generated from each apparatus are included here in plain-text format. The data is organized first by material, next by the short name of test apparatus used, and where applicable additional filtering by test settings.

### material.json

Each material directory contains a json file of the same name as the material. This file links the data stored in the repository as well as data and graphs produced by the accompanying scripts (__02_Scripts__) to the respective landing page for the material on the front-end website.

File: Vinyl_Tile_Cone_HF25Scalar_220405_R1.csv
LABORATORY,FSRI
TEST IDENT,Vinyl_Tile_HF25_1
OPERATOR,Dow
MATERIAL,Vinyl Tile
ORIENTATION,Horizontal
HEAT FLUX,25
SURF AREA,0.00884
C FACTOR,0.0386621
SPEC HOLDER DIFF,-566
SPECIMEN MASS,57.92
SCAN TIME,0.25
O2 DELAY TIME,11
CO DELAY TIME,11
CO2 DELAY TIME,8
FLOW FACTOR,1
SCAN COUNT,1880
TIME TO IGN,103
END OF TEST SCAN,1400
END OF TEST TIME,350
TEST STATUS,1
PRE TEST CMT,Dimensions: 101.30 x 101.26 x 2.61 mm; with frame and grid
POST TEST CMT,Flames extinguished quickly after spark ignitor was removed. The spark ignitor was reinserted and the sample reignited immediately. The spark ignitor remained in place for the duration of the test.

File: Vinyl_Tile_Cone_HF25Scalar_220405_R2.csv
LABORATORY,FSRI
TEST IDENT,Vinyl_Tile_HF25_2
OPERATOR,Dow
MATERIAL,Vinyl Tile
ORIENTATION,Horizontal
HEAT FLUX,25
SURF AREA,0.00884
C FACTOR,0.0386621
SPEC HOLDER DIFF,-566
SPECIMEN MASS,53.84
SCAN TIME,0.25
O2 DELAY TIME,11
CO DELAY TIME,11
CO2 DELAY TIME,8
FLOW FACTOR,1
SCAN COUNT,1878
TIME TO IGN,103.25
END OF TEST SCAN,1398
END OF TEST TIME,349.5
TEST STATUS,1
PRE TEST CMT,Dimensions: 101.37 x 101.14 x 2.52 mm; with frame and grid
POST TEST CMT,Gases beneath the sample created bubbles that pushed the sample upwards against the grid. See test pictures.

File: Vinyl_Tile_Cone_HF25Scalar_220405_R3.csv
LABORATORY,FSRI
TEST IDENT,Vinyl_Tile_HF25_3
OPERATOR,Dow
MATERIAL,Vinyl Tile
ORIENTATION,Horizontal
HEAT FLUX,25
SURF AREA,0.00884
C FACTOR,0.0386621
SPEC HOLDER DIFF,-566
SPECIMEN MASS,53.08
SCAN TIME,0.25
O2 DELAY TIME,11
CO DELAY TIME,11
CO2 DELAY TIME,8
FLOW FACTOR,1
SCAN COUNT,1752
TIME TO IGN,102.5
END OF TEST SCAN,1272
END OF TEST TIME,318
TEST STATUS,1
PRE TEST CMT,Dimensions: 101.31 x 101.32 x 2.54 mm; with frame and grid
POST TEST CMT,Gases beneath the sample created bubbles that pushed the sample upwards against the grid.

File: Vinyl_Tile_Cone_HF25Scalar_220510_R4.csv
LABORATORY,FSRI
TEST IDENT,Vinyl_Tile_HF25_4
OPERATOR,Dow
MATERIAL,vinyl tile
ORIENTATION,Horizontal
HEAT FLUX,25
SURF AREA,0.01
C FACTOR,0.0414606
SPEC HOLDER DIFF,-566
SPECIMEN MASS,52.69
SCAN TIME,0.25
O2 DELAY TIME,11
CO DELAY TIME,11
CO2 DELAY TIME,8
FLOW FACTOR,1
SCAN COUNT,989
TIME TO IGN,86.75
END OF TEST SCAN,509
END OF TEST TIME,127.25
TEST STATUS,1
PRE TEST CMT,Dimensions: 100.95 x 100.65 x 2.54 mm; with frame; focus on time to ignition
POST TEST CMT,Test ended at 2 minutes. Sample surface became elevated after ignition due to expanding gases between the bottom surface of the sample and the foil pan.

File: Vinyl_Tile_Cone_HF25Scan_220405_R1.csv
Names,Time,Stack TC,Smoke TC,Exh Press,Smoke Comp,Smoke Meas,CO Meter,CO2 Meter,O2 Meter,Sample Mass,Ext Coeff,Start Test,Flame Verif
Chan Gain,,500,500,1,1,1,1,1,1,1,1,1.0,1.0
Offset,,0,0,0.132686,0,0,0,0,0,0,0,0.0,0.0
Gain,,1,1,25.011,13.1151,13.9355,1,1,1,1.00092,1.01752,1.0,1.0
Units,sec,C,C,Pa,%,%,%,%,%,g,/m,,
Baseline,,17.6858,18.2307,161.457,98.9257,97.6961,0.000581346,0.0700889,21.0052,-833.719,0.111649,,
20,4.75,17.1308,17.8013,157.529,98.6511,97.2512,0.000418289,0.0718845,21.002,186.952,0.127568,0.0,0.0
40,9.75,17.2822,17.4495,161.251,98.6635,97.392,0.000480123,0.0706626,21.0032,186.972,0.11578,0.0,0.0
60,14.75,16.8587,17.9945,161.359,98.6847,97.4851,0.000590171,0.0704603,21.0017,186.972,0.109167,0.0,0.0
80,19.75,17.4036,17.7943,158.311,98.6939,97.9993,0.000953795,0.0725326,21,186.962,0.0630472,0.0,0.0
100,24.75,17.3557,17.3344,162.499,98.7132,97.8789,0.000594398,0.0767874,20.9962,186.952,0.0757534,0.0,0.0
120,29.75,16.9742,17.9473,162.037,98.7304,97.7866,0.000593656,0.0786457,20.9948,186.952,0.0857283,0.0,0.0
140,34.75,17.7744,17.9218,164.722,98.736,97.8389,0.000896051,0.0756542,20.9993,186.962,0.0814614,0.0,0.0
160,39.75,17.0845,17.5452,160.347,98.7236,97.6463,0.000667479,0.0720235,21.0028,186.942,0.0979329,0.0,0.0
180,44.75,17.3525,17.576,167.134,98.6955,97.5212,0.000642369,0.0703585,21.0033,186.932,0.106835,0.0,0.0
200,49.75,17.3577,17.8047,163.402,98.6535,97.0756,0.000586571,0.0702232,21.0034,186.922,0.143919,0.0,0.0
220,54.75,17.2597,17.851,161.889,98.5967,97.8542,0.000455653,0.0701122,21.0034,186.912,0.0674656,0.0,0.0
240,59.75,17.5418,17.6376,166.26,98.5375,96.7728,0.000732495,0.0701672,21.0034,186.922,0.161296,0.0,0.0
260,64.75,17.3863,18.1813,162.379,98.4786,97.3226,0.000523015,0.0700926,21.0034,186.882,0.10539,0.0,0.0
280,69.75,17.5419,17.7943,159.47,98.4254,97.0998,0.000583913,0.0702559,21.0034,186.892,0.121025,0.0,0.0
300,74.75,17.5679,18.1926,160.382,98.3545,96.8242,0.000925214,0.0699671,21.0043,186.902,0.139968,0.0,0.0
320,79.75,17.3694,18.4607,163.622,98.2741,96.868,0.00070297,0.0704741,21.0048,186.882,0.128626,0.0,0.0
340,84.75,17.596,18.444,162.913,98.2113,96.3883,0.000536777,0.070794,21.0024,186.872,0.167229,0.0,0.0
360,89.75,17.656,18.2366,162.759,98.1148,95.8261,0.000565744,0.0705703,21.0011,186.802,0.210672,0.0,0.0
380,94.75,17.4873,17.9449,163.815,98.0436,95.4085,0.000663721,0.0714643,21.0009,186.832,0.243173,0.0,0.0
400,99.75,18.3602,18.3571,162.622,97.9587,94.9194,0.000694365,0.0722474,21.0043,186.792,0.281316,0.0,0.0
420,104.75,18.098,18.4262,153.133,97.8695,94.5592,0.00190189,0.0824032,20.9902,186.702,0.307116,0.0,1.0
440,109.75,18.1801,18.7572,159.445,97.783,91.9897,0.00234875,0.097431,20.9698,186.622,0.545126,0.0,0.0
460,114.75,18.2314,18.9785,153.527,97.6921,93.4675,0.00293749,0.11037,20.9485,186.302,0.394576,0.0,0.0
480,119.75,19.0545,19.9664,155.163,97.6225,92.7199,0.00397433,0.137175,20.9159,186.101,0.459894,0.0,0.0
500,124.75,19.8746,20.5949,158.739,97.5569,91.9663,0.00500834,0.157156,20.8896,185.771,0.52673,0.0,0.0
520,129.75,20.7499,21.7438,153.437,97.5092,90.7015,0.00607161,0.173258,20.8658,185.431,0.645973,0.0,0.0
540,134.75,21.2434,22.7181,150.215,97.45,89.6511,0.00692122,0.183198,20.8542,185.101,0.744522,0.0,0.0
560,139.75,21.9257,23.3949,155.998,97.412,87.8377,0.00693344,0.188662,20.8488,184.67,0.923429,0.0,0.0
580,144.75,22.83,24.3282,155.446,97.3892,85.747,0.00695724,0.187175,20.8547,184.3,1.13635,0.0,0.0
600,149.75,23.7436,25.0111,156.144,97.3668,87.261,0.00731337,0.184929,20.8561,183.909,0.978075,0.0,0.0
620,154.75,24.5403,25.6123,156.256,97.3615,87.8504,0.00790082,0.185364,20.8526,183.549,0.91751,0.0,0.0
640,159.75,24.9508,26.523,153.091,97.3611,86.6422,0.00852251,0.190653,20.84,183.189,1.04108,0.0,0.0
660,164.75,25.3646,26.7583,153.428,97.368,87.0318,0.00876085,0.190572,20.8377,182.858,1.00166,0.0,0.0
680,169.75,26.2415,26.9968,152.981,97.3864,87.8806,0.00858587,0.185965,20.8421,182.508,0.916717,0.0,0.0
700,174.75,26.2433,27.1839,150.632,97.4208,87.395,0.00826399,0.18394,20.8428,182.188,0.969335,0.0,0.0
720,179.75,26.2167,28.0023,150.112,97.4464,84.4121,0.00806053,0.186071,20.8376,181.898,1.28164,0.0,0.0
740,184.75,26.6141,28.0779,151.155,97.4856,86.0413,0.00839139,0.189375,20.8314,181.587,1.1146,0.0,0.0
760,189.75,26.9543,29.0562,151.226,97.5365,84.2194,0.00791353,0.192023,20.8287,181.317,1.31028,0.0,0.0
780,194.75,27.4445,28.3025,153.774,97.5913,84.464,0.00743253,0.191894,20.8284,181.097,1.28942,0.0,0.0
800,199.75,27.4175,29.5169,156.317,97.6537,84.3993,0.00708529,0.192389,20.8261,180.807,1.30196,0.0,0.0
820,204.75,27.4874,29.2664,153.995,97.7278,82.7161,0.00678574,0.193354,20.824,180.626,1.48854,0.0,0.0
840,209.75,27.6516,29.8378,152.788,97.835,83.5033,0.0062854,0.193967,20.8221,180.366,1.41379,0.0,0.0
860,214.75,27.9391,29.8692,153.585,97.9111,83.6334,0.00646896,0.197044,20.8204,180.156,1.40682,0.0,0.0
880,219.75,27.5382,29.6284,155.067,98.0259,83.2409,0.0061169,0.195106,20.8215,179.956,1.45928,0.0,0.0
900,224.75,27.8871,30.4304,155.675,98.1348,83.6721,0.00593779,0.192639,20.8261,179.746,1.42306,0.0,0.0
920,229.75,28.4996,29.7389,151.669,98.2317,83.189,0.00609074,0.190035,20.8287,179.505,1.48355,0.0,0.0
940,234.75,28.3654,29.9596,158.913,98.3349,83.7691,0.00600234,0.186376,20.8335,179.335,1.43091,0.0,0.0
960,239.75,28.1906,30.2104,149.279,98.4358,82.4664,0.00581664,0.1863,20.8351,179.145,1.57995,0.0,0.0
980,244.75,28.2012,30.5845,154.775,98.5383,85.9201,0.00541303,0.186674,20.8363,178.945,1.22305,0.0,0.0
1000,249.75,28.3474,30.4675,156.352,98.6411,85.326,0.00530177,0.185147,20.8401,178.765,1.29429,0.0,0.0
1020,254.75,28.0108,30.4214,150.213,98.7248,86.7052,0.00533512,0.18372,20.8416,178.575,1.15874,0.0,0.0
1040,259.75,27.6967,29.8938,151.716,98.8028,86.1149,0.00479357,0.179492,20.8492,178.404,1.22677,0.0,0.0
1060,264.75,28.2827,29.841,154.938,98.8717,87.5859,0.00465712,0.17531,20.8571,178.224,1.0818,0.0,0.0
1080,269.75,28.0589,30.0339,154.465,98.9409,89.1246,0.00466775,0.172982,20.8629,178.044,0.932612,0.0,0.0
1100,274.75,28.059,30.2203,154.275,99.0117,90.0491,0.00419091,0.170664,20.8662,177.884,0.846886,0.0,0.0
1120,279.75,27.8772,29.7819,155.659,99.0722,91.3033,0.00391075,0.167718,20.8726,177.734,0.728881,0.0,0.0
1140,284.75,27.7418,30.0991,153.457,99.1166,92.0518,0.00382757,0.164375,20.8803,177.624,0.660011,0.0,0.0
1160,289.75,27.7616,29.4169,154.205,99.173,93.3029,0.00401446,0.160633,20.8868,177.474,0.544591,0.0,0.0
1180,294.75,27.0368,28.7452,154.78,99.2038,94.4244,0.00431176,0.158274,20.8913,177.353,0.440724,0.0,0.0
1200,299.75,27.2005,29.1185,157.992,99.2539,96.0617,0.00413663,0.154674,20.8967,177.223,0.29178,0.0,0.0
1220,304.75,27.3272,29.0028,154.744,99.2907,95.3961,0.00371674,0.149493,20.9031,177.103,0.357146,0.0,0.0
1240,309.75,26.7457,28.7036,156.462,99.3227,95.898,0.00392557,0.14533,20.9094,176.993,0.313195,0.0,0.0
1260,314.75,26.769,28.599,157.265,99.3451,96.4746,0.0038268,0.141345,20.916,176.853,0.261697,0.0,0.0
1280,319.75,26.6384,28.1841,159.355,99.3639,96.5006,0.00393515,0.135151,20.9238,176.723,0.260986,0.0,0.0
1300,324.75,26.4572,27.7125,157.451,99.388,96.3245,0.00385619,0.131005,20.9285,176.623,0.279443,0.0,0.0
1320,329.75,25.235,27.2461,157.246,99.3976,96.6388,0.00420463,0.125614,20.9339,176.533,0.251231,0.0,0.0
1340,334.75,25.812,27.6843,158.896,99.4008,96.774,0.00402843,0.120201,20.9417,176.423,0.239036,0.0,0.0
1360,339.75,25.6319,27.4202,159.58,99.402,95.6721,0.00395624,0.114057,20.9522,176.332,0.341357,0.0,0.0
1380,344.75,25.4234,26.591,156.453,99.4164,96.4857,0.00362893,0.103365,20.9653,176.212,0.267072,0.0,0.0
1400,349.75,24.8054,26.2934,159.94,99.3992,95.741,0.00358187,0.0998105,20.9687,176.162,0.33468,0.0,0.0
1420,354.75,23.773,24.8997,158.912,99.3888,96.2705,0.00345822,0.0978943,20.9721,176.102,0.284521,0.0,0.0
1440,359.75,22.7918,24.9584,159.974,99.3768,95.5862,0.00329136,0.0957993,20.9757,175.992,0.34711,0.0,0.0
1460,364.75,22.9059,24.6693,158.788,99.3599,95.8695,0.00322581,0.0929141,20.9783,175.922,0.319192,0.0,0.0
1480,369.75,22.1091,22.9165,158.005,99.3351,96.2879,0.00299405,0.0911308,20.9805,175.842,0.278086,0.0,0.0
1500,374.75,22.2228,23.6731,158.974,99.3043,96.6558,0.00305248,0.0909794,20.9795,175.792,0.241283,0.0,0.0
1520,379.75,22.0993,23.8897,155.699,99.2663,96.3824,0.00296815,0.0906329,20.979,175.732,0.263151,0.0,0.0
1540,384.75,21.8377,23.0163,159.739,99.2255,96.9939,0.00283957,0.0905288,20.9789,175.672,0.203027,0.0,0.0
1560,389.75,22.0994,23.4833,162.03,99.1858,97.1797,0.00306281,0.0908177,20.9789,175.632,0.182376,0.0,0.0
1580,394.75,21.9397,23.2966,162.757,99.1322,97.1857,0.00314985,0.0906805,20.9789,175.592,0.177001,0.0,0.0
1600,399.75,21.642,23.025,162.346,99.0962,97.1011,0.0031319,0.0908277,20.9777,175.502,0.181533,0.0,0.0
1620,404.75,21.0595,22.1068,159.367,99.0197,96.6873,0.00318259,0.0911029,20.9776,175.472,0.212763,0.0,0.0
1640,409.75,21.0165,22.3881,152.591,98.9917,97.5557,0.00317868,0.0916215,20.9776,175.412,0.130428,0.0,0.0
1660,414.75,21.2869,22.0469,157.828,98.9169,96.7213,0.00317715,0.0915748,20.9776,175.362,0.200345,0.0,0.0
1680,419.75,21.089,21.7674,160.144,98.8652,97.551,0.00343855,0.0915595,20.9779,175.332,0.119444,0.0,0.0
1700,424.75,21.051,22.0367,160.379,98.8156,96.8374,0.00337608,0.0921047,20.9767,175.261,0.180497,0.0,0.0
1720,429.75,20.7865,21.8874,158.114,98.7628,97.1062,0.00327128,0.0921978,20.9766,175.221,0.150984,0.0,0.0
1740,434.75,20.6085,21.6899,157.55,98.7196,96.8463,0.0031453,0.0926125,20.978,175.191,0.170993,0.0,0.0
1760,439.75,20.2289,21.2633,159.003,98.6763,96.9518,0.00309751,0.0927612,20.9769,175.151,0.157369,0.0,0.0
1780,444.75,20.7953,21.3588,157.655,98.6363,97.3745,0.00307768,0.0931011,20.9774,175.121,0.114915,0.0,0.0
1800,449.75,20.3259,21.4319,156.617,98.6167,97.2878,0.00328686,0.0931211,20.9775,175.071,0.121096,0.0,0.0
1820,454.75,20.8455,21.0757,157.881,98.7372,97.3248,0.00325947,0.0936265,20.978,175.001,0.1286,0.0,0.0
1840,459.75,20.4838,21.0111,158.249,98.8456,97.4111,,0.0935644,,174.981,0.130484,0.0,0.0
1860,464.75,20.7098,21.1477,158.974,98.9157,97.292,,,,174.921,0.147725,0.0,0.0
1880,469.75,20.4269,21.2254,159.132,98.9853,97.688,,,,174.911,0.117757,0.0,0.0

File: Vinyl_Tile_Cone_HF25Scan_220405_R2.csv
Names,Time,Stack TC,Smoke TC,Exh Press,Smoke Comp,Smoke Meas,CO Meter,CO2 Meter,O2 Meter,Sample Mass,Ext Coeff,Start Test,Flame Verif
Chan Gain,,500,500,1,1,1,1,1,1,1,1,1.0,1.0
Offset,,0,0,0.132686,0,0,0,0,0,0,0,0.0,0.0
Gain,,1,1,25.011,13.1151,13.9355,1,1,1,1.00092,1.01752,1.0,1.0
Units,sec,C,C,Pa,%,%,%,%,%,g,/m,,
Baseline,,18.7451,19.2229,160.945,98.4564,98.3237,0.000769371,0.0696658,21.0041,-833.785,0.0120638,,
20,4.75,17.7063,18.2398,160.142,98.4806,98.5011,0.000717595,0.0708403,21.0045,191.426,-0.00185477,0.0,0.0
40,9.75,17.6626,18.4453,164.69,98.4842,98.4973,0.000661689,0.0708867,21.0043,191.416,-0.00118166,0.0,0.0
60,14.75,18.4295,19.0569,161.071,98.4734,98.5844,0.000398437,0.0709278,21.0024,191.436,-0.0100579,0.0,0.0
80,19.75,18.1214,18.4678,166.589,98.4838,97.9559,0.000630073,0.0752023,20.9979,191.436,0.0479748,0.0,0.0
100,24.75,17.5327,18.2424,160.427,98.497,98.1524,0.000803808,0.0776676,20.994,191.436,0.0312888,0.0,0.0
120,29.75,17.9395,18.3407,162.903,98.4946,97.8177,0.000927927,0.0746244,20.9998,191.426,0.0615585,0.0,0.0
140,34.75,17.9698,18.6308,158.88,98.5082,98.6427,0.000767243,0.0720287,21.0024,191.426,-0.0121753,0.0,0.0
160,39.75,18.3345,18.4515,163.974,98.4986,98.5581,0.000471924,0.0705457,21.004,191.406,-0.00538553,0.0,0.0
180,44.75,18.2024,18.4775,160.513,98.5074,98.4824,0.000881571,0.0697889,21.0055,191.396,0.00227138,0.0,0.0
200,49.75,18.7911,18.6027,162.92,98.519,98.5844,0.00104761,0.0696407,21.0062,191.396,-0.00592319,0.0,0.0
220,54.75,18.4194,18.8584,157.155,98.5202,98.5623,0.00102667,0.0693923,21.0066,191.416,-0.00381264,0.0,0.0
240,59.75,17.7018,18.5587,159.835,98.5266,98.2544,0.000982482,0.0694714,21.0085,191.396,0.0246956,0.0,0.0
260,64.75,18.4197,18.4623,160.564,98.5178,98.2255,0.000695129,0.0694228,21.0087,191.386,0.0265247,0.0,0.0
280,69.75,18.3884,18.917,160.234,98.5126,98.362,0.000932336,0.069507,21.008,191.396,0.0136568,0.0,0.0
300,74.75,18.0549,18.6368,158.138,98.5138,97.7836,0.000633809,0.0695728,21.0084,191.366,0.0664032,0.0,0.0
320,79.75,18.5057,18.3599,161.678,98.507,98.5215,0.000612799,0.0696355,21.0087,191.356,-0.00131043,0.0,0.0
340,84.75,17.9038,18.9659,159.048,98.5094,97.7207,0.000633864,0.0696511,21.0092,191.346,0.0717519,0.0,0.0
360,89.75,18.5276,19.047,161.13,98.5138,97.7113,0.000624576,0.0696688,21.0098,191.326,0.0730057,0.0,0.0
380,94.75,18.6337,19.1714,162.773,98.513,96.868,0.000613663,0.070136,21.0103,191.286,0.150301,0.0,0.0
400,99.75,18.2121,18.6223,163.828,98.5166,97.4103,0.000674939,0.0712622,21.0093,191.276,0.100806,0.0,0.0
420,104.75,18.5652,19.191,158.681,98.5303,95.7691,0.00147488,0.0813902,20.9939,191.196,0.253696,0.0,1.0
440,109.75,18.7576,18.8882,162.049,98.5286,95.6632,0.00251057,0.103256,20.965,191.056,0.263425,0.0,0.0
460,114.75,18.9654,19.2705,155.654,98.5395,93.9391,0.00353635,0.125145,20.9346,190.816,0.426731,0.0,0.0
480,119.75,19.4671,20.6244,153.697,98.5298,94.0774,0.00471067,0.145054,20.9083,190.656,0.412738,0.0,0.0
500,124.75,20.9013,21.3772,156.368,98.535,92.5361,0.00567228,0.163901,20.8817,190.245,0.560642,0.0,0.0
520,129.75,21.4922,22.596,156.457,98.5399,90.6335,0.00649405,0.179962,20.8585,189.895,0.746515,0.0,0.0
540,134.75,22.487,23.4038,153.486,98.5423,89.606,0.00733602,0.192633,20.8379,189.505,0.848495,0.0,0.0
560,139.75,23.7014,24.7078,149.1,98.5423,88.6831,0.00853245,0.205646,20.8225,189.104,0.940897,0.0,0.0
580,144.75,24.504,25.6002,148.678,98.5523,86.0536,0.00961202,0.211076,20.8148,188.644,1.21045,0.0,0.0
600,149.75,25.1805,26.4463,151.726,98.5443,85.6586,0.0101257,0.209989,20.8147,188.213,1.2508,0.0,0.0
620,154.75,25.9964,27.3488,151.809,98.5411,86.5342,0.0103449,0.206636,20.8182,187.823,1.15973,0.0,0.0
640,159.75,26.4576,27.841,153.028,98.5439,85.0283,0.0100381,0.204612,20.8165,187.413,1.31668,0.0,0.0
660,164.75,26.5792,28.1245,152.431,98.5427,85.5025,0.0100484,0.204008,20.8171,187.042,1.26693,0.0,0.0
680,169.75,27.2434,28.7296,157.305,98.5407,83.7682,0.0102121,0.203793,20.8166,186.682,1.44966,0.0,0.0
700,174.75,27.557,29.1782,152.148,98.5415,81.5125,0.0105588,0.201414,20.8199,186.372,1.69337,0.0,0.0
720,179.75,27.3281,29.0715,150.036,98.5407,81.3594,0.010126,0.201311,20.8176,186.061,1.71007,0.0,0.0
740,184.75,28.3468,30.0284,154.529,98.5334,81.7809,0.00966702,0.203632,20.8142,185.731,1.66331,0.0,0.0
760,189.75,28.5865,30.4254,149.307,98.5198,83.3944,0.00873301,0.205226,20.8118,185.451,1.48769,0.0,0.0
780,194.75,28.6837,30.6292,153.304,98.511,83.172,0.00805482,0.206673,20.8105,185.161,1.51073,0.0,0.0
800,199.75,29.3701,30.6746,150.215,98.5062,82.8573,0.00734445,0.208115,20.8092,184.88,1.54413,0.0,0.0
820,204.75,29.6437,31.4298,152.509,98.5154,83.4692,0.00686797,0.20751,20.8117,184.62,1.47928,0.0,0.0
840,209.75,29.3037,30.8712,155.108,98.5166,84.1556,0.00667229,0.205837,20.8143,184.4,1.40629,0.0,0.0
860,214.75,29.6398,31.5204,155.742,98.5138,86.1179,0.00629278,0.201505,20.8208,184.17,1.20031,0.0,0.0
880,219.75,29.8497,31.7946,151.93,98.5214,85.3872,0.00608197,0.19775,20.8259,183.919,1.27705,0.0,0.0
900,224.75,29.3824,31.4031,151.336,98.509,87.6165,0.0057716,0.192346,20.8337,183.699,1.04589,0.0,0.0
920,229.75,29.9604,31.86,153.343,98.5206,88.1741,0.00525867,0.18552,20.8448,183.499,0.990322,0.0,0.0
940,234.75,29.4646,31.4656,153.263,98.5214,87.7309,0.00510419,0.18225,20.8491,183.329,1.03536,0.0,0.0
960,239.75,29.749,31.7045,153.392,98.527,87.8504,0.00478641,0.179137,20.8541,183.149,1.02372,0.0,0.0
980,244.75,29.4765,31.2704,152.737,98.527,89.6302,0.00458602,0.172242,20.8639,183.009,0.844703,0.0,0.0
1000,249.75,29.0332,31.0936,155.449,98.5331,89.2823,0.00425057,0.16612,20.8734,182.868,0.879957,0.0,0.0
1020,254.75,29.4382,31.4557,155.585,98.5395,90.6977,0.00439523,0.161117,20.8802,182.688,0.740157,0.0,0.0
1040,259.75,28.8959,30.9641,156.214,98.5555,91.2518,0.00424193,0.15793,20.8849,182.558,0.687241,0.0,0.0
1060,264.75,29.0069,31.0358,154.536,98.5475,91.8693,0.00391672,0.155534,20.8904,182.418,0.62632,0.0,0.0
1080,269.75,28.852,30.5988,155.967,98.5499,92.7479,0.00386005,0.152133,20.8953,182.268,0.541579,0.0,0.0
1100,274.75,28.3705,30.3346,158.57,98.5407,93.8622,0.00400175,0.149337,20.8993,182.158,0.434158,0.0,0.0
1120,279.75,27.7907,29.7814,154.427,98.5559,94.2683,0.00367321,0.14743,20.903,182.018,0.396997,0.0,0.0
1140,284.75,27.7916,29.6259,152.208,98.5639,94.9177,0.00360853,0.145311,20.9073,181.898,0.336446,0.0,0.0
1160,289.75,27.8784,29.3908,160.154,98.5675,96.3279,0.00330839,0.14484,20.9097,181.787,0.205138,0.0,0.0
1180,294.75,27.0062,28.7435,153.879,98.5691,96.0264,0.00314043,0.141078,20.9134,181.667,0.233265,0.0,0.0
1200,299.75,27.4303,29.1976,156.207,98.5751,96.0417,0.00310589,0.137509,20.9195,181.587,0.232386,0.0,0.0
1220,304.75,27.1527,28.9461,153.634,98.5855,96.4091,0.00326189,0.134539,20.9257,181.467,0.199245,0.0,0.0
1240,309.75,26.6975,28.463,156.772,98.5867,96.6222,0.00359688,0.131617,20.9305,181.347,0.17965,0.0,0.0
1260,314.75,26.6505,28.2926,159.844,98.5999,96.8591,0.00387769,0.1297,20.9327,181.247,0.15899,0.0,0.0
1280,319.75,26.4329,27.8254,157.047,98.6027,96.0217,0.00430562,0.126029,20.9381,181.147,0.236744,0.0,0.0
1300,324.75,26.0931,27.5689,157.649,98.6171,96.8157,0.00401333,0.121235,20.9436,181.047,0.164547,0.0,0.0
1320,329.75,25.6896,27.2398,156.481,98.6187,96.5184,0.00385994,0.117477,20.9488,180.917,0.19214,0.0,0.0
1340,334.75,25.6036,27.1087,158.521,98.6403,96.0366,0.00373389,0.112174,20.9574,180.857,0.238765,0.0,0.0
1360,339.75,25.3392,26.8749,156.207,98.6183,95.6917,0.00344155,0.106912,20.9627,180.777,0.268885,0.0,0.0
1380,344.75,24.8854,26.5378,157.641,98.6351,95.303,0.00342397,0.101976,20.9702,180.686,0.306736,0.0,0.0
1400,349.75,24.2252,25.0632,155.082,98.6139,95.1184,0.00329063,0.0963451,20.9774,180.636,0.32212,0.0,0.0
1420,354.75,23.8686,24.5861,160.844,98.6223,95.1809,0.003132,0.0926544,20.9819,180.546,0.317016,0.0,0.0
1440,359.75,23.534,24.6943,158.484,98.6143,95.4353,0.00318513,0.0914542,20.9832,180.466,0.292474,0.0,0.0
1460,364.75,22.9828,24.4261,155.156,98.6139,95.8078,0.00318839,0.0912662,20.9833,180.386,0.257664,0.0,0.0
1480,369.75,22.988,23.3975,158.093,98.6151,96.1582,0.00348022,0.0914129,20.9832,180.326,0.225186,0.0,0.0
1500,374.75,22.8422,23.8248,156.823,98.6271,97.019,0.00344347,0.0913905,20.9819,180.266,0.146731,0.0,0.0
1520,379.75,22.6675,23.6579,156.888,98.6575,96.1608,0.0036964,0.0914706,20.9824,180.186,0.228788,0.0,0.0
1540,384.75,22.2037,23.6752,158.771,98.6507,96.7396,0.00351331,0.0916529,20.9821,180.136,0.174609,0.0,0.0
1560,389.75,21.9076,23.0362,161.779,98.6623,97.3112,0.00375233,0.0920209,20.9798,180.086,0.123079,0.0,0.0
1580,394.75,21.8473,23.0184,158.377,98.6631,97.0713,0.00378928,0.0922048,20.9796,180.026,0.145179,0.0,0.0
1600,399.75,21.9817,22.764,158.479,98.6679,96.945,0.00345178,0.0924341,20.9797,179.976,0.157234,0.0,0.0
1620,404.75,21.1845,22.1107,157.232,98.6683,97.1113,0.00332376,0.0928018,20.9797,179.926,0.141974,0.0,0.0
1640,409.75,21.7736,22.5666,161.868,98.6651,97.2448,0.00338508,0.0932626,20.9804,179.856,0.12942,0.0,0.0
1660,414.75,21.5595,22.4177,156.271,98.6643,97.9185,0.0036199,0.0934096,20.9805,179.806,0.0677306,0.0,0.0
1680,419.75,21.4987,22.2072,161.252,98.6643,97.5804,0.00337021,0.0936856,20.9799,179.766,0.0986033,0.0,0.0
1700,424.75,21.1119,22.3292,157.985,98.6699,97.6412,0.00334936,0.094072,20.9797,179.726,0.0935476,0.0,0.0
1720,429.75,21.2611,22.1059,158.859,98.6699,98.0745,0.00347987,0.0943409,20.9792,179.666,0.0540221,0.0,0.0
1740,434.75,20.7683,22.266,157.964,98.6699,97.8296,0.00331521,0.0946149,20.9778,179.626,0.0763432,0.0,0.0
1760,439.75,20.4302,21.6022,157.696,98.6871,98.3459,0.0033965,0.0964837,20.9745,179.575,0.0309198,0.0,0.0
1780,444.75,20.9459,21.4776,160.461,98.6899,98.2676,0.00343958,0.102361,20.971,179.555,0.0382776,0.0,0.0
1800,449.75,20.8929,21.6487,153.703,98.6855,98.4484,0.00319139,0.100543,20.971,179.515,0.0214778,0.0,0.0
1820,454.75,20.6181,21.6497,157.189,98.6835,98.1664,0.00313835,0.0975622,20.9739,179.455,0.0468963,0.0,0.0
1840,459.75,20.9581,21.7078,159.06,98.6931,98.2281,,0.0963321,,179.435,0.0421607,0.0,0.0
1860,464.75,21.1633,21.392,158.768,98.6959,98.6338,,,,179.395,0.00562472,0.0,0.0
1878,469.25,20.8835,21.9239,162.543,98.6779,98.4862,,,,179.345,0.0173595,0.0,0.0