Folder: fsri_materials_database/01_Data/Vinyl_Tile/Cone (part 5)

File: Vinyl_Tile_Cone_HF75Scan_220405_R1.csv
Names,Time,Stack TC,Smoke TC,Exh Press,Smoke Comp,Smoke Meas,CO Meter,CO2 Meter,O2 Meter,Sample Mass,Ext Coeff,Start Test,Flame Verif
Chan Gain,,500,500,1,1,1,1,1,1,1,1,1.0,1.0
Offset,,0,0,0.132686,0,0,0,0,0,0,0,0.0,0.0
Gain,,1,1,25.011,13.1151,13.9355,1,1,1,1.00092,1.01752,1.0,1.0
Units,sec,C,C,Pa,%,%,%,%,%,g,/m,,
Baseline,,40.6322,42.7578,147.911,98.865,97.7564,0.00071009,0.059651,21.0256,-836.739,0.100725,,
15,3.5,39.5421,42.0944,150.641,99.081,97.7207,0.000549657,0.0715376,21.013,183.019,0.123388,0.0,0.0
30,7.25,39.6773,41.7369,148.432,99.0686,97.6607,0.000702559,0.0703406,21.013,183.029,0.127748,0.0,0.0
45,11,40.0412,42.3173,148.424,99.0638,97.6969,0.000726866,0.0671952,21.0178,182.969,0.124012,0.0,0.0
60,14.75,40.0293,41.9485,148.636,99.0686,94.4503,0.000678697,0.0638504,21.0196,182.979,0.426093,0.0,0.0
75,18.5,39.9024,41.7698,149.401,99.0618,91.7936,0.00188832,0.0637783,21.0127,182.868,0.680137,0.0,0.0
90,22.25,40.7271,42.6913,145.734,99.0341,85.9584,0.00673249,0.098371,20.9582,182.658,1.26388,0.0,1.0
105,26,41.2439,43.4813,140.336,99.035,76.5572,0.0145975,0.159044,20.8757,182.248,2.29776,0.0,0.0
120,29.75,42.7618,45.1271,138.222,99.0189,75.1665,0.0219017,0.225894,20.7634,181.687,2.45993,0.0,0.0
135,33.5,44.1802,46.7045,137.025,99.0177,63.8035,0.0241537,0.272078,20.7009,181.197,3.92271,0.0,0.0
150,37.25,46.0687,48.0774,138.497,99.0221,68.431,0.0235235,0.29898,20.6713,180.656,3.29816,0.0,0.0
165,41,47.0928,49.9769,138.474,98.9957,70.0959,0.0225573,0.317075,20.6598,180.146,3.08121,0.0,0.0
180,44.75,48.4231,51.3992,136.607,98.9897,69.6792,0.0215734,0.331253,20.6568,179.656,3.1339,0.0,0.0
195,48.5,49.813,52.894,132.623,98.9737,74.8165,0.0211098,0.353004,20.6382,179.165,2.49752,0.0,0.0
210,52.25,51.3789,54.5058,132.247,98.9685,76.356,0.0210774,0.379871,20.6094,178.685,2.31525,0.0,0.0
225,56,52.3125,56.3909,134.411,98.9725,75.2456,0.0216259,0.398943,20.5893,178.074,2.44636,0.0,0.0
240,59.75,53.7494,57.8747,128.702,98.9513,74.4746,0.0239458,0.419841,20.5607,177.484,2.53638,0.0,0.0
255,63.5,55.824,59.432,132.824,98.9465,71.228,0.0274643,0.435482,20.5329,176.843,2.93377,0.0,0.0
270,67.25,56.3013,60.8789,132.453,98.9445,71.5279,0.0300584,0.425301,20.5358,176.182,2.8961,0.0,0.0
285,71,57.8708,60.7745,132.65,98.9601,70.9457,0.0303668,0.409241,20.5492,175.602,2.97046,0.0,0.0
300,74.75,58.8626,62.3646,137.989,98.9737,72.7731,0.0281895,0.396951,20.5637,175.021,2.74469,0.0,0.0
315,78.5,59.3672,63.1932,135.814,98.9641,73.5811,0.0255123,0.381219,20.5789,174.581,2.64527,0.0,0.0
330,82.25,59.5133,64.0396,138.156,98.9605,73.5245,0.0227526,0.360935,20.6115,174.14,2.6518,0.0,0.0
345,86,59.626,64.9084,138.035,98.9565,71.5848,0.0198993,0.336474,20.6409,173.78,2.89008,0.0,0.0
360,89.75,60.2267,64.7153,138.238,98.9489,71.2799,0.0177774,0.322291,20.6532,173.42,2.92749,0.0,0.0
375,93.5,60.1637,64.8316,133.274,98.9489,68.1486,0.0171487,0.320474,20.6504,173.019,3.32846,0.0,0.0
390,97.25,60.8436,64.8278,133.912,98.9325,63.3885,0.0168459,0.328168,20.6339,172.669,3.97327,0.0,0.0
405,101,61.0668,65.7084,138.944,98.9329,67.4856,0.0165881,0.334514,20.6237,172.329,3.41428,0.0,0.0
420,104.75,61.0399,66.0206,133.887,98.9405,64.1697,0.0161672,0.328429,20.6309,171.998,3.86466,0.0,0.0
435,108.5,61.5884,66.5125,137.351,98.9397,68.2651,0.0152608,0.316902,20.6462,171.658,3.31239,0.0,0.0
450,112.25,61.2503,66.5932,143.011,98.9353,69.5894,0.0133722,0.299352,20.6784,171.378,3.14049,0.0,0.0
465,116,61.4112,65.44,140.446,98.9377,74.464,0.0111782,0.281438,20.7113,171.158,2.53643,0.0,0.0
480,119.75,60.7178,65.9442,140.667,98.9137,80.5671,0.0091647,0.264109,20.7399,170.947,1.83114,0.0,0.0
495,123.5,60.4284,65.8255,142.394,98.9201,83.4603,0.00741456,0.24771,20.773,170.787,1.51682,0.0,0.0
510,127.25,59.9826,65.0648,136.859,98.9157,85.8589,0.00639248,0.233766,20.798,170.547,1.26353,0.0,0.0
525,131,59.7848,64.4914,137.25,98.9129,89.0063,0.0054795,0.223441,20.8175,170.427,0.941933,0.0,0.0
540,134.75,59.1715,63.7881,143.341,98.8993,90.8686,0.00482896,0.212747,20.8368,170.287,0.755881,0.0,0.0
555,138.5,58.6044,63.4541,141.3,98.8977,92.5332,0.0044574,0.204034,20.8501,170.147,0.593716,0.0,0.0
570,142.25,58.0831,62.894,144.187,98.8997,93.2991,0.00389025,0.197986,20.8615,170.017,0.520321,0.0,0.0
585,146,57.2824,61.9392,140.397,98.9049,93.4237,0.00360032,0.191633,20.8713,169.897,0.508879,0.0,0.0
600,149.75,56.4566,61.9924,137.945,98.9137,94.3317,0.00361576,0.187534,20.8772,169.786,0.423346,0.0,0.0
615,153.5,56.985,60.9352,142.815,98.9041,93.7962,0.00381399,0.183221,20.884,169.676,0.473285,0.0,0.0
630,157.25,56.1361,60.6187,141.634,98.9149,95.0138,0.00414564,0.180163,20.8902,169.546,0.359142,0.0,0.0
645,161,55.702,60.4648,141.25,98.9129,94.6774,0.0042411,0.175869,20.8971,169.456,0.390618,0.0,0.0
660,164.75,55.5743,59.7065,143.319,98.9173,95.1227,0.00439215,0.17139,20.9029,169.376,0.349137,0.0,0.0
675,168.5,54.9731,59.2742,143.674,98.9373,95.7768,0.00468927,0.166498,20.91,169.286,0.289779,0.0,0.0
690,172.25,53.9677,59.0006,143.822,98.9413,95.5807,0.00490031,0.162285,20.9162,169.196,0.308429,0.0,0.0
705,176,53.9094,58.3687,143.929,98.9625,95.869,0.00521894,0.157751,20.9227,169.076,0.283458,0.0,0.0
720,179.75,53.4454,57.5171,148.781,98.9801,96.0111,0.00543628,0.15354,20.929,169.016,0.271832,0.0,0.0
735,183.5,53.0388,56.8788,144.338,98.9733,96.4385,0.00552961,0.149472,20.9331,168.896,0.231573,0.0,0.0
750,187.25,52.7774,56.263,143.505,98.9941,97.053,0.0059062,0.144191,20.9393,168.816,0.176754,0.0,0.0
765,191,52.2687,55.5637,145.554,99.0133,96.8472,0.00621824,0.139802,20.9449,168.725,0.197436,0.0,0.0
780,194.75,51.8634,55.7531,146.444,99.0257,97.6561,0.00634445,0.135161,20.9495,168.645,0.124318,0.0,0.0
795,198.5,51.3261,54.981,141.527,99.039,96.6601,0.00647814,0.131432,20.9542,168.605,0.217007,0.0,0.0
810,202.25,50.9549,54.7817,146.513,99.0522,97.1287,0.006501,0.1276,20.9585,168.565,0.175026,0.0,0.0
825,206,50.8633,54.1123,145.488,99.0806,96.951,0.0064713,0.12472,20.9614,168.525,0.193938,0.0,0.0
840,209.75,50.4709,53.3091,144.676,99.0822,97.5595,0.00660067,0.121549,20.9661,168.435,0.138229,0.0,0.0
855,213.5,50.122,53.6203,142.458,99.0798,97.6195,0.00679189,0.119432,20.9699,168.385,0.132529,0.0,0.0
870,217.25,49.7315,52.8308,147.066,99.0798,97.5234,0.00650705,0.117667,20.9732,168.295,0.141321,0.0,0.0
885,221,49.4595,52.8619,144.232,99.0834,97.4443,0.00638641,0.115743,20.9741,168.215,0.148888,0.0,0.0
900,224.75,49.0062,52.2778,144.574,99.0718,97.9346,0.00645583,0.11474,20.9758,168.165,0.103042,0.0,0.0
915,228.5,48.8379,51.9415,146.771,99.0678,98.2591,0.00651216,0.113579,20.9765,168.095,0.0731556,0.0,0.0
930,232.25,48.5561,52.0698,144.98,99.0606,97.9708,0.00634608,0.112375,20.9783,168.035,0.0987369,0.0,0.0
945,236,47.9488,50.9001,145.153,99.0798,97.9993,0.00629275,0.110613,20.9807,167.955,0.097873,0.0,0.0
960,239.75,48.08,50.7904,147.518,99.0706,97.6395,0.00629378,0.108861,20.9815,167.895,0.129872,0.0,0.0
975,243.5,47.2828,50.9535,142.543,99.0738,97.5906,0.0061491,0.107324,20.9833,167.875,0.134633,0.0,0.0
990,247.25,47.7924,50.2299,143.484,99.081,97.4268,0.0061136,0.106194,20.9844,167.785,0.150269,0.0,0.0
1005,251,47.2666,49.8262,144.32,99.0766,98.2446,0.00610323,0.105823,20.9857,167.735,0.0752628,0.0,0.0
1020,254.75,47.2413,49.9975,143.513,99.0882,97.8513,0.00607048,0.105302,20.9845,167.695,0.112119,0.0,0.0
1035,258.5,46.6593,49.7019,144.706,99.081,97.8028,0.00600229,0.104422,20.9855,167.654,0.115894,0.0,0.0
1050,262.25,46.5021,49.5643,144.77,99.1086,97.2997,0.00578824,0.104457,20.9841,167.624,0.164413,0.0,0.0
1065,266,46.9351,49.3843,146.808,99.1146,97.5719,0.00581476,0.104808,20.9835,167.534,0.140021,0.0,0.0
1080,269.75,46.6641,49.5529,148.369,99.1078,97.8466,0.00561627,0.104649,20.983,167.464,0.114312,0.0,0.0
1095,273.5,46.236,49.2352,144.894,99.1086,98.3344,0.00573041,0.104149,20.9841,167.424,0.0699985,0.0,0.0
1110,277.25,46.3339,49.3077,145.184,99.143,98.1285,0.00600807,0.104527,20.9849,167.394,0.0917995,0.0,0.0
1125,281,46.2002,49.266,145.49,99.1418,98.1166,0.00619,0.104525,20.9865,167.344,0.0927757,0.0,0.0
1140,284.75,46.4951,49.4095,151.282,99.1518,97.9091,0.00628742,0.104831,20.9868,167.284,0.112576,0.0,0.0
1155,288.5,46.4948,48.8649,145.422,99.1534,98.5568,0.00616909,0.104901,20.9869,167.224,0.0538687,0.0,0.0
1170,292.25,45.9705,49.0929,147.738,99.1682,97.8428,0.00606915,0.104972,20.9871,167.154,0.120103,0.0,0.0
1185,296,45.8526,48.885,145.321,99.1978,98.2583,0.00594893,0.10435,20.9882,167.144,0.0849453,0.0,0.0
1200,299.75,46.714,48.4269,147.49,99.2255,97.648,0.00599263,0.104547,20.9866,167.064,0.143038,0.0,0.0
1215,303.5,46.2126,49.1008,138.56,99.2563,97.91,0.00607172,0.104635,20.9862,167.014,0.121898,0.0,0.0
1230,307.25,46.1782,48.9127,149.139,99.2571,97.9125,0.00579782,0.104179,20.9875,166.974,0.121736,0.0,0.0
1245,311,46.2595,48.3859,142.501,99.2763,98.4454,0.00566247,0.104256,20.9867,166.934,0.0750191,0.0,0.0
1260,314.75,46.2343,48.7616,142.976,99.2939,97.8891,0.00572333,0.10422,20.987,166.884,0.12718,0.0,0.0
1275,318.5,46.1407,49.0202,137.962,99.3195,97.6748,0.00560714,0.104051,20.9869,166.824,0.149047,0.0,0.0
1290,322.25,46.144,48.9584,143.412,99.3259,98.5904,0.0059808,0.104434,20.9869,166.774,0.0663419,0.0,0.0
1305,326,45.8113,48.1647,143.79,99.3295,97.8479,0.0060081,0.103967,20.9867,166.734,0.134143,0.0,0.0
1320,329.75,45.8137,48.1487,141.027,99.3499,98.2808,0.00598087,0.103669,20.9863,166.664,0.0965721,0.0,0.0
1335,333.5,45.9555,48.5972,142.681,99.3624,98.6686,0.0060391,0.103508,20.9873,166.644,0.0625327,0.0,0.0
1350,337.25,46.2881,47.8387,144.453,99.3744,98.5717,0.00607851,0.103653,20.987,166.634,0.0723862,0.0,0.0
1365,341,45.702,48.4389,146.923,99.3792,98.1081,0.00625869,0.104084,20.9861,166.553,0.114891,0.0,0.0
1380,344.75,45.8435,48.2665,141.926,99.3728,97.776,,0.10369,,166.493,0.144585,0.0,0.0
1395,348.5,45.5623,48.628,146.98,99.3792,98.388,,,,166.423,0.0894697,0.0,0.0
1410,352.25,45.8284,48.5547,145.819,99.3964,97.622,,,,166.393,0.16077,0.0,0.0
1414,353.25,46.0827,48.4771,147.347,99.3884,98.2344,,,,166.373,0.104235,0.0,0.0

File: Vinyl_Tile_Cone_HF75Scan_220405_R2.csv
Names,Time,Stack TC,Smoke TC,Exh Press,Smoke Comp,Smoke Meas,CO Meter,CO2 Meter,O2 Meter,Sample Mass,Ext Coeff,Start Test,Flame Verif
Chan Gain,,500,500,1,1,1,1,1,1,1,1,1.0,1.0
Offset,,0,0,0.132686,0,0,0,0,0,0,0,0.0,0.0
Gain,,1,1,25.011,13.1151,13.9355,1,1,1,1.00092,1.01752,1.0,1.0
Units,sec,C,C,Pa,%,%,%,%,%,g,/m,,
Baseline,,42.0838,43.8693,147.49,98.0947,97.0635,0.000413487,0.0610548,21.0218,-836.798,0.0943967,,
19,4.5,40.7106,42.5457,143.765,97.8062,96.6022,0.000403669,0.0642234,21.0165,188.514,0.110555,0.0,0.0
38,9.25,40.8114,42.8515,144.826,97.7442,96.1506,0.000817996,0.0657946,21.017,188.464,0.14672,0.0,0.0
57,14,41.2548,42.9508,150.154,97.7198,94.4397,0.000687817,0.0643314,21.0187,188.424,0.304741,0.0,0.0
76,18.75,41.0798,42.4786,151.58,97.7086,89.358,0.00275597,0.0686416,21.0083,188.303,0.797392,0.0,1.0
95,23.5,41.3966,43.5301,137.465,97.6765,79.6247,0.0106371,0.124371,20.8983,188.003,1.82382,0.0,1.0
114,28.25,42.9138,44.5772,133.726,97.6517,77.2976,0.0187104,0.201502,20.7866,187.363,2.0863,0.0,0.0
133,33,44.7039,47.0941,134.472,97.6121,62.4435,0.0209592,0.257178,20.7267,186.662,3.98741,0.0,0.0
152,37.75,46.9942,49.2517,138.695,97.6161,60.1117,0.0217066,0.299233,20.6682,185.981,4.32746,0.0,0.0
171,42.5,48.939,51.5436,132.354,97.5897,63.9958,0.0218572,0.328582,20.6401,185.261,3.76619,0.0,0.0
190,47.25,50.6715,53.3721,128.721,97.5877,66.971,0.0216095,0.339863,20.6381,184.63,3.3604,0.0,0.0
209,52,52.0223,54.9699,133.36,97.5785,70.0628,0.0222777,0.357692,20.6235,183.959,2.95674,0.0,0.0
228,56.75,53.5325,56.7824,131.685,97.5645,72.0539,0.0252163,0.381757,20.598,183.169,2.70533,0.0,0.0
247,61.5,55.5702,58.9875,132.151,97.5537,65.8564,0.0305411,0.4284,20.5139,182.258,3.5071,0.0,0.0
266,66.25,57.3544,61.4967,132.486,97.5489,61.9208,0.035601,0.445818,20.4706,181.347,4.05665,0.0,0.0
285,71,59.0469,62.5709,135.097,97.5369,62.5133,0.0339669,0.415067,20.5103,180.626,3.97056,0.0,0.0
304,75.75,59.7917,63.4969,132.992,97.5232,62.6859,0.0284188,0.371497,20.5649,179.996,3.9447,0.0,0.0
323,80.5,59.9546,64.1853,130.641,97.498,60.7033,0.0233568,0.340702,20.6054,179.455,4.22925,0.0,0.0
342,85.25,60.8051,64.7571,137.29,97.478,60.6897,0.0209403,0.329075,20.6152,178.955,4.22942,0.0,0.0
361,90,61.2632,65.4363,128.582,97.4588,55.0875,0.0199861,0.32857,20.6099,178.514,5.09211,0.0,0.0
380,94.75,61.3884,66.0517,135.772,97.4496,56.7575,0.0187499,0.330169,20.6053,178.024,4.82469,0.0,0.0
399,99.5,61.6953,66.6076,134.982,97.4588,60.0594,0.0170769,0.322752,20.6196,177.604,4.32084,0.0,0.0
418,104.25,61.905,66.4384,137.891,97.4472,63.2898,0.0147206,0.309079,20.6571,177.143,3.85216,0.0,0.0
437,109,61.793,66.1944,137.011,97.4432,71.0979,0.0123832,0.286993,20.7001,176.833,2.81345,0.0,0.0
456,113.75,61.5098,66.2845,135.755,97.4476,77.1794,0.0103397,0.26704,20.7415,176.523,2.08129,0.0,0.0
475,118.5,60.7316,65.4483,139.372,97.4564,81.9335,0.00879518,0.248699,20.7756,176.202,1.54856,0.0,0.0
494,123.25,60.6409,65.1173,139.603,97.4644,85.7508,0.00759267,0.232057,20.8037,175.942,1.14284,0.0,0.0
513,128,59.8909,64.5329,137.635,97.474,89.2011,0.00647984,0.215355,20.8308,175.712,0.79163,0.0,0.0
532,132.75,59.339,63.4414,140.876,97.4876,90.0257,0.00581681,0.203951,20.8505,175.492,0.710743,0.0,0.0
551,137.5,58.4576,62.9668,140.025,97.4936,91.5023,0.0054501,0.196952,20.8614,175.281,0.566086,0.0,0.0
570,142.25,58.1525,62.627,146.829,97.524,92.9482,0.00525105,0.188128,20.8752,175.161,0.428929,0.0,0.0
589,147,56.908,61.082,142.081,97.5473,93.4348,0.00491889,0.180632,20.8849,174.971,0.384456,0.0,0.0
608,151.75,56.3251,60.9588,138.839,97.5849,93.5479,0.00474602,0.178021,20.889,174.841,0.377098,0.0,0.0
627,156.5,56.1196,60.4597,143.13,97.6037,93.897,0.0048864,0.173176,20.8961,174.691,0.345568,0.0,0.0
646,161.25,55.6073,59.4821,138.385,97.6301,94.3155,0.0046674,0.169768,20.8996,174.561,0.308293,0.0,0.0
665,166,55.0295,58.9536,143.488,97.6701,94.0812,0.00472973,0.167507,20.9011,174.411,0.334154,0.0,0.0
684,170.75,54.4904,58.5012,140.397,97.7074,93.9493,0.00511253,0.164734,20.9043,174.301,0.350071,0.0,0.0
703,175.5,54.4332,58.4118,142.267,97.7546,94.0774,0.00528041,0.162163,20.9092,174.18,0.342231,0.0,0.0
722,180.25,53.9962,57.9713,141.994,97.7882,94.617,0.00498327,0.15817,20.913,174.06,0.294245,0.0,0.0
741,185,53.8075,57.1055,141.254,97.813,94.5673,0.0050197,0.154838,20.9161,173.92,0.301205,0.0,0.0
760,189.75,53.4076,56.9392,140.98,97.8514,94.3653,0.0048205,0.15171,20.9208,173.83,0.323797,0.0,0.0
779,194.5,53.0975,56.8344,142.986,97.8699,94.9747,0.00494981,0.147714,20.9256,173.76,0.268018,0.0,0.0
798,199.25,52.3645,55.988,144.361,97.9507,94.549,0.00538272,0.145109,20.9304,173.62,0.315485,0.0,0.0
817,204,51.8908,55.4932,141.13,98.0075,95.2911,0.00564539,0.143249,20.9338,173.52,0.250881,0.0,0.0
836,208.75,51.8026,54.8451,147.575,98.0307,96.0145,0.00558912,0.14062,20.937,173.44,0.185492,0.0,0.0
855,213.5,51.1916,54.505,141.653,98.06,95.9443,0.00551695,0.136898,20.942,173.36,0.194677,0.0,0.0
874,218.25,51.1267,54.6334,143.661,98.1104,95.8784,0.00563288,0.13396,20.9461,173.27,0.205401,0.0,0.0
893,223,51.3322,54.3386,147.509,98.1764,96.4155,0.00578042,0.131028,20.951,173.23,0.161544,0.0,0.0
912,227.75,50.6294,53.8583,148.94,98.2353,97.1121,0.00590934,0.128883,20.9525,173.109,0.102636,0.0,0.0
931,232.5,50.1902,53.3861,144.717,98.2941,96.7583,0.00591635,0.127998,20.9538,173.039,0.14056,0.0,0.0
950,237.25,49.8299,52.4907,146.763,98.3317,96.8561,0.00598486,0.124925,20.9564,172.919,0.134957,0.0,0.0
969,242,49.5335,52.7085,141.424,98.397,96.1323,0.00620668,0.124285,20.957,172.819,0.207829,0.0,0.0
988,246.75,49.4196,52.496,147.201,98.457,96.9986,0.00645952,0.127108,20.9536,172.799,0.133202,0.0,0.0
1007,251.5,49.7416,52.6654,141.554,98.507,96.5856,0.00634618,0.127546,20.9537,172.709,0.175815,0.0,0.0
1026,256.25,49.1374,52.1021,145.41,98.5671,97.486,0.00665935,0.124453,20.9575,172.599,0.0984391,0.0,0.0
1045,261,49.0685,51.8429,142.592,98.6083,97.3707,0.00688373,0.121158,20.9627,172.539,0.11273,0.0,0.0
1064,265.75,48.8009,51.5728,147.692,98.6367,97.8883,0.00658824,0.119591,20.9646,172.469,0.067984,0.0,0.0
1083,270.5,48.5883,51.2409,147.898,98.6843,97.483,0.0066604,0.118371,20.9671,172.399,0.109325,0.0,0.0
1102,275.25,48.7092,51.0972,144.612,98.6795,97.7628,0.00700631,0.117102,20.968,172.309,0.0833052,0.0,0.0
1121,280,48.2392,50.9855,144.854,98.716,97.3941,0.00706834,0.117445,20.9664,172.259,0.120326,0.0,0.0
1140,284.75,48.4109,50.8939,144.625,98.7336,97.6378,0.00703619,0.117998,20.9658,172.159,0.0996145,0.0,0.0
1159,289.5,48.4858,50.7397,146.299,98.732,97.8968,0.00714026,0.118134,20.9669,172.069,0.0758252,0.0,0.0
1178,294.25,48.0499,50.6591,144.738,98.7348,97.6093,0.00686305,0.118648,20.967,172.018,0.102328,0.0,0.0
1197,299,47.5424,50.5468,141.759,98.7412,97.3613,0.00659297,0.117466,20.969,171.968,0.125607,0.0,0.0
1216,303.75,47.5852,50.1432,141.701,98.7432,97.3035,0.00680346,0.116069,20.971,171.898,0.131092,0.0,0.0
1235,308.5,47.5959,50.2562,141.736,98.7408,97.2882,0.00688767,0.115132,20.9716,171.838,0.132279,0.0,0.0
1254,313.25,47.6505,50.3358,142.62,98.7196,97.9644,0.0068323,0.11451,20.971,171.758,0.0685405,0.0,0.0
1273,318,47.7157,50.1261,143.058,98.706,98.297,0.0069323,0.113839,20.9729,171.678,0.0370612,0.0,0.0
1292,322.75,47.4927,49.8147,144.512,98.6919,97.5157,0.00667566,0.112935,20.9738,171.648,0.107015,0.0,0.0
1311,327.5,47.1665,49.6066,149.06,98.6843,97.901,0.00666088,0.113159,20.974,171.618,0.0711302,0.0,0.0
1330,332.25,46.9475,49.3968,143.791,98.6759,97.2967,0.00679122,0.113496,20.9735,171.498,0.125636,0.0,0.0
1349,337,47.0032,49.451,146.229,98.6615,97.1827,0.00708268,0.112104,20.9746,171.418,0.134795,0.0,0.0
1368,341.75,46.867,49.4097,145.49,98.6335,97.1496,0.00678143,0.110094,20.977,171.388,0.135307,0.0,0.0
1387,346.5,47.2306,49.3689,143.345,98.6215,97.4928,0.00685884,0.109095,20.9793,171.278,0.102744,0.0,0.0
1406,351.25,46.9113,49.3681,147.914,98.6071,97.4745,0.00671069,0.108302,20.9809,171.258,0.103115,0.0,0.0
1425,356,47.1422,49.2763,145.738,98.5899,97.7075,0.00638304,0.107029,20.9817,171.188,0.0802425,0.0,0.0
1444,360.75,46.9424,48.9702,146.64,98.5927,97.5974,0.00658582,0.106322,20.9821,171.128,0.0905642,0.0,0.0
1463,365.5,46.1735,48.8854,138.957,98.5587,97.3681,0.0065388,0.106891,20.9818,171.118,0.108471,0.0,0.0
1482,370.25,46.87,49.1494,147.837,98.5375,97.2095,0.00652434,0.106559,20.982,171.018,0.121103,0.0,0.0
1501,375,46.423,49.0271,145.31,98.5254,96.9692,0.00636918,0.105893,20.9832,170.978,0.142104,0.0,0.0
1520,379.75,46.737,49.2355,144.604,98.513,97.7981,0.00614389,0.105477,20.9845,170.897,0.0650111,0.0,0.0
1539,384.5,46.4203,49.233,143.52,98.511,98.0694,0.00611753,0.104893,20.9849,170.857,0.0401018,0.0,0.0
1558,389.25,46.7041,48.8773,148.495,98.4894,96.7196,0.00632092,0.104607,20.9861,170.817,0.161848,0.0,0.0
1577,394,46.0623,48.3445,145.306,98.467,97.5617,0.00614172,0.103942,20.987,170.767,0.0824461,0.0,0.0
1596,398.75,46.0558,48.5127,148.153,98.455,96.5078,0.00614642,0.103939,20.9884,170.697,0.178295,0.0,0.0
1615,403.5,46.2971,48.4651,141.194,98.4374,97.1661,0.00589415,0.103537,20.987,170.617,0.116018,0.0,0.0
1634,408.25,46.3342,48.7418,147.771,98.423,97.1593,0.00584074,0.102944,20.9871,170.557,0.115336,0.0,0.0
1653,413,46.2268,48.8535,140.851,98.4162,97.6403,0.00616973,0.102644,20.9882,170.517,0.0706425,0.0,0.0
1672,417.75,46.2332,48.604,144.281,98.3814,97.4949,0.00604068,0.103065,20.9884,170.497,0.0807897,0.0,0.0
1691,422.5,46.3743,48.7315,144.042,98.3786,96.6235,0.00591274,0.102217,20.9884,170.417,0.160669,0.0,0.0
1710,427.25,46.1653,48.3498,146.715,98.3738,97.4086,0.00555203,0.101811,20.9859,170.377,0.0880064,0.0,0.0
1729,432,46.1619,48.3635,146.758,98.365,97.3329,0.00537609,0.101334,20.9863,170.307,0.0941467,0.0,0.0
1748,436.75,46.0018,48.4864,143.714,98.3497,96.9386,,,,170.277,0.128991,0.0,0.0
1767,441.5,45.8467,48.8381,150.133,98.3429,97.1019,,,,170.157,0.11335,0.0,0.0
1778,444.25,46.5981,48.7774,146.995,98.3285,97.3869,,,,170.177,0.0858896,0.0,0.0