Folder: fsri_materials_database/01_Data/Vinyl_Tile/MCC (part 2)

File: Vinyl_Tile_MCC_30K_min_211104_R3.txt
Sample ID:	C:\MCC\MCC Cal\Test\Vinyl_Tile_MCC_30K_min_211104_R4.txt
Sample Weight (mg):	4.68
Heating Rate (C/s):	0.5
Combustor Temp (C):	900
N2 Flow Rate (cc/min):	80
O2 Flow Rate (cc/min):	20
Calibration File:	C:\MCC\MCC Cal\Coeff1 JN10440_30_210304.txt.txt
T Correction Coefficients:	0	1.024463	0
Time Shift (s):	14
*
Time (s)	Temperature (C)	N2 flow rate (cc/min)	O2 flow rate (cc/min)	Flow Rate (cc/min)	Oxygen (%)	HRR (W/g)	Heating rate (C/s)
-0.001	106.498	80.015	19.998	103.056	20.176	0.206	0.001
8.000	106.452	79.999	19.999	103.055	20.170	0.652	-0.024
16.000	106.543	80.010	19.994	103.093	20.164	1.028	0.052
24.000	106.788	80.024	19.991	103.142	20.156	1.615	0.044
32.000	107.364	80.009	19.995	103.224	20.140	2.709	0.090
39.999	108.397	80.006	19.995	103.255	20.138	2.841	0.145
47.999	109.930	80.011	19.995	103.280	20.128	3.512	0.238
55.999	111.820	80.015	19.993	103.290	20.122	3.929	0.250
64.000	114.159	79.999	19.995	103.286	20.131	3.329	0.306
72.000	116.750	80.006	19.994	103.279	20.129	3.477	0.355
79.999	119.630	80.018	19.994	103.275	20.130	3.416	0.340
87.999	122.702	80.010	19.994	103.284	20.128	3.540	0.388
95.999	126.009	80.006	19.994	103.278	20.128	3.536	0.454
103.999	129.486	80.011	19.994	103.294	20.123	3.839	0.453
111.999	133.037	80.009	19.995	103.290	20.127	3.626	0.444
119.999	136.797	80.011	19.995	103.288	20.127	3.571	0.507
127.999	140.649	80.008	19.995	103.272	20.125	3.736	0.504
136.000	144.602	80.007	19.995	103.268	20.127	3.606	0.532
144.000	148.631	80.002	19.997	103.262	20.121	3.990	0.615
152.000	152.595	80.005	19.995	103.269	20.125	3.704	0.486
160.000	156.602	80.002	19.995	103.259	20.127	3.630	0.506
168.000	160.713	80.006	19.995	103.255	20.125	3.705	0.503
176.000	164.733	80.008	19.994	103.254	20.127	3.624	0.534
184.000	168.756	80.006	19.996	103.246	20.126	3.699	0.516
192.000	172.739	80.011	19.994	103.252	20.119	4.126	0.516
200.000	176.719	80.007	19.995	103.230	20.117	4.306	0.511
208.000	180.643	80.026	20.002	103.256	20.114	4.504	0.525
216.000	184.580	80.007	19.995	103.227	20.106	5.015	0.515
224.000	188.529	80.006	19.995	103.237	20.103	5.232	0.496
232.000	192.462	80.007	19.996	103.225	20.093	5.947	0.524
240.000	196.387	80.006	19.996	103.233	20.088	6.278	0.485
248.000	200.293	80.008	19.995	103.224	20.078	6.990	0.495
256.000	204.209	80.009	19.994	103.226	20.069	7.614	0.490
264.000	208.218	80.009	19.995	103.221	20.054	8.604	0.529
272.000	212.162	80.008	19.996	103.220	20.039	9.645	0.477
280.000	216.170	80.010	19.995	103.224	20.024	10.665	0.527
288.000	220.080	80.008	19.994	103.218	20.012	11.518	0.488
296.000	224.060	80.008	19.995	103.224	19.993	12.804	0.515
304.000	228.077	80.008	19.996	103.220	19.976	14.014	0.518
312.000	232.102	80.009	19.994	103.216	19.960	15.087	0.477
320.000	236.115	80.009	19.996	103.215	19.940	16.481	0.521
328.000	240.084	80.007	19.996	103.215	19.926	17.414	0.481
336.000	244.087	80.008	19.995	103.225	19.920	17.845	0.490
344.000	248.138	80.009	19.995	103.219	19.916	18.095	0.538
352.000	252.237	80.009	19.994	103.226	19.918	17.980	0.507
360.000	256.210	80.010	19.995	103.223	19.928	17.278	0.508
368.000	260.204	80.007	19.994	103.244	19.958	15.223	0.479
376.000	264.144	80.008	19.995	103.247	19.987	13.213	0.494
384.000	268.165	80.008	19.995	103.257	20.023	10.750	0.506
392.000	272.194	80.008	19.995	103.270	20.048	9.043	0.476
400.000	276.208	80.008	19.996	103.287	20.072	7.411	0.482
408.000	280.224	80.007	19.995	103.294	20.086	6.450	0.472
416.000	284.207	80.007	19.994	103.293	20.097	5.690	0.494
424.000	288.263	80.009	19.996	103.277	20.100	5.482	0.496
432.000	292.290	80.008	19.995	103.247	20.113	4.553	0.479
440.000	296.341	80.009	19.995	103.219	20.114	4.478	0.489
448.000	300.409	80.010	19.994	103.203	20.119	4.117	0.522
456.000	304.393	80.008	19.995	103.200	20.124	3.808	0.512
464.000	308.406	80.008	19.996	103.195	20.126	3.695	0.505
472.000	312.454	80.008	19.995	103.193	20.131	3.310	0.519
480.000	316.485	80.009	19.995	103.198	20.132	3.219	0.489
488.000	320.528	80.007	19.996	103.198	20.130	3.408	0.506
496.000	324.535	80.007	19.996	103.197	20.130	3.362	0.480
504.000	328.513	80.008	19.995	103.194	20.130	3.368	0.504
512.000	332.529	80.008	19.995	103.186	20.133	3.154	0.522
520.000	336.568	80.007	19.997	103.174	20.132	3.240	0.498
528.000	340.508	80.010	19.995	103.173	20.131	3.324	0.514
536.000	344.545	80.008	19.995	103.175	20.135	3.078	0.527
544.000	348.511	80.007	19.995	103.176	20.131	3.313	0.482
552.000	352.603	80.008	19.994	103.169	20.132	3.281	0.517
560.000	356.634	80.008	19.995	103.178	20.131	3.289	0.507
568.000	360.641	80.009	19.994	103.161	20.133	3.195	0.502
576.000	364.675	80.009	19.995	103.170	20.129	3.485	0.502
584.000	368.709	80.009	19.995	103.163	20.130	3.391	0.522
592.000	372.762	80.008	19.995	103.160	20.128	3.530	0.488
600.000	376.882	80.008	19.994	103.149	20.124	3.767	0.491
608.000	381.005	80.010	19.996	103.148	20.120	4.049	0.522
616.000	385.094	80.009	19.995	103.150	20.120	4.093	0.522
624.000	389.142	80.007	19.995	103.152	20.108	4.893	0.511
632.000	393.159	80.007	19.995	103.159	20.113	4.579	0.452
640.000	397.286	80.009	19.995	103.152	20.104	5.188	0.423
648.000	401.322	80.007	19.995	103.144	20.100	5.476	0.501
656.000	405.354	80.007	19.995	103.149	20.094	5.843	0.520
664.000	409.365	80.010	19.995	103.138	20.083	6.608	0.515
672.000	413.400	80.009	19.995	103.145	20.078	6.965	0.473
680.000	417.431	80.009	19.994	103.146	20.066	7.762	0.538
688.000	421.418	80.011	19.995	103.148	20.054	8.638	0.489
696.000	425.460	80.010	19.994	103.138	20.037	9.764	0.494
704.000	429.500	80.008	19.995	103.146	20.019	11.051	0.505
712.000	433.463	80.009	19.996	103.140	20.000	12.349	0.486
720.000	437.512	80.009	19.995	103.135	19.974	14.141	0.508
728.000	441.475	80.008	19.995	103.137	19.946	16.070	0.493
736.000	445.463	80.007	19.996	103.147	19.928	17.293	0.488
744.000	449.423	80.007	19.996	103.150	19.902	19.077	0.493
752.000	453.494	80.009	19.994	103.160	19.892	19.721	0.558
760.000	457.456	80.009	19.995	103.143	19.882	20.427	0.499
768.000	461.515	80.008	19.995	103.147	19.890	19.862	0.510
776.000	465.560	80.010	19.995	103.140	19.895	19.551	0.525
784.000	469.578	80.009	19.995	103.141	19.913	18.280	0.510
792.000	473.559	80.007	19.995	103.153	19.933	16.935	0.528
800.000	477.654	80.007	19.996	103.157	19.960	15.076	0.546
808.000	481.772	80.008	19.996	103.165	19.987	13.228	0.525
816.000	485.871	80.008	19.995	103.162	20.013	11.425	0.510
824.000	490.019	80.007	19.994	103.153	20.034	9.956	0.499
832.000	494.054	80.010	19.995	103.150	20.056	8.455	0.536
840.000	498.014	80.010	19.995	103.144	20.074	7.246	0.446
848.000	501.984	80.011	19.994	103.150	20.090	6.121	0.500
856.000	505.927	80.011	19.995	103.162	20.099	5.543	0.506
864.000	509.785	80.010	19.994	103.170	20.107	4.971	0.509
872.000	513.752	80.009	19.995	103.173	20.115	4.419	0.487
880.000	517.812	80.008	19.995	103.168	20.113	4.591	0.510
888.000	521.858	80.008	19.995	103.177	20.114	4.516	0.533
896.000	525.883	80.007	19.995	103.178	20.118	4.239	0.488
904.000	529.955	80.006	19.996	103.179	20.123	3.863	0.492
912.000	534.058	80.009	19.995	103.175	20.125	3.710	0.525
920.000	538.178	80.010	19.995	103.174	20.124	3.833	0.506
928.000	542.193	80.010	19.995	103.178	20.125	3.714	0.494
936.000	546.202	80.011	19.995	103.178	20.126	3.675	0.499
944.000	550.294	80.010	19.995	103.182	20.125	3.721	0.470
952.000	554.362	80.009	19.995	103.177	20.123	3.845	0.530
960.000	558.335	80.007	19.994	103.194	20.122	3.961	0.495
968.000	562.375	80.007	19.996	103.200	20.122	3.927	0.490
976.000	566.333	80.010	19.995	103.211	20.118	4.181	0.500
984.000	570.406	80.007	19.994	103.216	20.120	4.076	0.514
992.000	574.608	80.009	19.995	103.226	20.116	4.370	0.561
1000.000	578.776	80.009	19.996	103.214	20.120	4.044	0.513
1008.000	582.993	80.010	19.995	103.214	20.121	3.989	0.510
1016.000	587.159	80.010	19.995	103.196	20.123	3.852	0.538
1024.000	591.256	80.011	19.994	103.175	20.128	3.500	0.493
1031.999	595.340	80.008	19.994	103.175	20.131	3.311	0.465
1039.999	599.380	80.008	19.995	103.174	20.128	3.512	0.533
1047.999	603.308	80.007	19.994	103.166	20.130	3.412	0.486
1055.999	607.290	80.010	19.994	103.166	20.127	3.570	0.504
1063.999	611.258	80.008	19.997	103.174	20.120	4.071	0.519
1071.999	615.294	80.008	19.996	103.177	20.122	3.939	0.494
1079.999	619.302	80.009	19.994	103.179	20.116	4.351	0.493
1087.999	623.367	80.007	19.995	103.193	20.115	4.396	0.505
1095.999	627.374	80.008	19.997	103.198	20.117	4.285	0.500
1104.000	631.413	80.011	19.995	103.204	20.118	4.249	0.519
1111.999	635.486	80.012	19.995	103.212	20.115	4.395	0.512
1119.999	639.583	80.008	19.994	103.225	20.114	4.459	0.517
1127.999	643.672	80.009	19.996	103.221	20.115	4.448	0.487
1136.000	647.778	80.008	19.995	103.240	20.113	4.531	0.526
1143.999	651.896	80.008	19.994	103.246	20.109	4.861	0.489
1151.999	656.071	80.010	19.995	103.270	20.110	4.787	0.515
1160.000	660.146	80.009	19.995	103.265	20.112	4.643	0.508
1168.000	664.264	80.010	19.995	103.289	20.109	4.828	0.502
1175.999	668.351	80.010	19.996	103.301	20.102	5.288	0.518
1183.999	672.432	80.009	19.996	103.330	20.095	5.790	0.495
1191.999	676.506	80.010	19.996	103.347	20.093	5.973	0.458
1199.999	680.512	80.008	19.996	103.371	20.083	6.631	0.485
1207.999	684.633	80.009	19.994	103.408	20.078	6.995	0.484
1215.999	688.691	80.009	19.994	103.411	20.073	7.306	0.492
1223.999	692.731	80.008	19.995	103.419	20.070	7.551	0.502
1231.999	696.763	80.008	19.995	103.446	20.073	7.334	0.490
1240.000	700.797	80.009	19.995	103.465	20.065	7.905	0.523
1247.999	704.823	80.011	19.994	103.483	20.056	8.471	0.509
1255.999	708.808	80.009	19.995	103.483	20.055	8.565	0.504
1263.999	712.814	80.010	19.994	103.488	20.052	8.752	0.497
1271.999	716.890	80.010	19.992	103.495	20.052	8.764	0.492
1280.000	720.960	80.008	19.995	103.452	20.055	8.559	0.504
1287.999	725.086	80.007	19.996	103.385	20.064	7.939	0.498
1295.999	729.260	80.008	19.994	103.297	20.076	7.101	0.521
1303.999	733.448	80.009	19.994	103.210	20.103	5.276	0.536
1311.999	737.587	80.008	19.995	103.148	20.107	4.943	0.525
1319.999	741.729	80.007	19.995	103.141	20.110	4.730	0.500
1323.999	743.788	80.010	19.995	103.143	20.112	4.601	0.518