Folder: fsri_materials_database/01_Data/Vinyl_Tile/MCC

Note: 01_Data/README.md
# Materials and Products Database
## 01_Data

Raw data generated from each apparatus are included here in plain-text format. The data is organized first by material, next by the short name of test apparatus used, and where applicable additional filtering by test settings.

### material.json

Each material directory contains a json file of the same name as the material. This file links the data stored in the repository as well as data and graphs produced by the accompanying scripts (__02_Scripts__) to the respective landing page for the material on the front-end website.

File: Vinyl_Tile_MCC_30K_min_211103_R1.txt
Sample ID:	C:\MCC\MCC Cal\Test\Vinyl_Tile_MCC_30K_min_211103_R1.txt
Sample Weight (mg):	4.81
Heating Rate (C/s):	0.5
Combustor Temp (C):	900
N2 Flow Rate (cc/min):	80
O2 Flow Rate (cc/min):	20
Calibration File:	C:\MCC\MCC Cal\Coeff1 JN10440_30_210304.txt.txt
T Correction Coefficients:	0	1.024463	0
Time Shift (s):	14
*
Time (s)	Temperature (C)	N2 flow rate (cc/min)	O2 flow rate (cc/min)	Flow Rate (cc/min)	Oxygen (%)	HRR (W/g)	Heating rate (C/s)
0.000	105.845	80.008	19.995	103.060	20.148	-0.339	0.008
8.000	105.842	80.008	19.995	103.076	20.144	-0.067	0.013
16.000	105.880	80.007	19.995	103.111	20.137	0.414	0.038
24.000	106.158	80.009	19.996	103.174	20.124	1.271	0.044
32.000	106.768	80.009	19.995	103.249	20.110	2.189	0.063
40.000	107.891	80.008	19.995	103.285	20.102	2.721	0.142
48.000	109.423	80.010	19.993	103.294	20.099	2.901	0.243
56.000	111.385	80.009	19.994	103.290	20.096	3.141	0.225
64.000	113.597	80.008	19.994	103.294	20.096	3.137	0.269
72.001	116.078	80.008	19.995	103.316	20.095	3.216	0.329
80.000	118.806	80.009	19.994	103.325	20.091	3.485	0.316
88.001	121.746	80.007	19.995	103.328	20.089	3.638	0.389
96.000	124.855	80.007	19.995	103.329	20.087	3.716	0.377
104.001	128.135	80.009	19.996	103.325	20.084	3.972	0.443
112.001	131.545	80.009	19.994	103.323	20.085	3.841	0.416
120.001	135.023	80.008	19.996	103.313	20.086	3.809	0.411
128.000	138.596	80.009	19.995	103.328	20.087	3.760	0.442
136.000	142.331	80.010	19.994	103.336	20.084	3.917	0.471
144.000	146.179	80.008	19.993	103.331	20.086	3.778	0.475
152.000	150.089	80.009	19.994	103.322	20.086	3.782	0.514
160.000	153.993	80.009	19.995	103.339	20.082	4.059	0.497
168.000	157.948	80.010	19.994	103.335	20.082	4.052	0.504
176.000	161.991	80.008	19.995	103.327	20.077	4.437	0.504
184.000	166.100	80.007	19.995	103.315	20.077	4.423	0.456
192.001	170.198	80.010	19.996	103.308	20.076	4.466	0.561
200.000	174.211	80.008	19.994	103.319	20.073	4.676	0.490
208.000	178.373	80.008	19.994	103.303	20.069	4.970	0.537
216.000	182.465	80.008	19.995	103.294	20.066	5.115	0.593
224.000	186.512	80.010	19.995	103.285	20.060	5.524	0.511
232.000	190.397	80.011	19.994	103.283	20.057	5.751	0.500
240.000	194.434	80.010	19.994	103.284	20.053	5.999	0.483
248.000	198.321	80.008	19.994	103.282	20.044	6.649	0.511
256.000	202.112	80.007	19.994	103.279	20.031	7.480	0.499
264.000	206.001	80.008	19.994	103.278	20.019	8.298	0.483
272.000	209.785	80.009	19.994	103.273	20.007	9.103	0.482
280.001	213.708	80.009	19.995	103.285	19.988	10.369	0.486
288.000	217.488	80.008	19.994	103.276	19.976	11.196	0.474
296.000	221.444	80.010	19.994	103.271	19.964	11.983	0.507
304.000	225.321	80.010	19.995	103.273	19.949	12.988	0.490
312.000	229.262	80.006	19.998	103.269	19.930	14.223	0.498
320.000	233.217	80.008	19.995	103.280	19.923	14.711	0.495
328.000	237.197	80.008	19.995	103.285	19.905	15.950	0.523
336.000	241.165	80.008	19.995	103.279	19.892	16.807	0.473
344.000	245.178	80.006	19.995	103.275	19.882	17.442	0.495
352.000	249.190	80.008	19.995	103.274	19.878	17.771	0.497
360.000	253.258	80.010	19.994	103.275	19.887	17.147	0.516
368.000	257.234	80.009	19.994	103.264	19.890	16.955	0.445
376.000	261.265	80.009	19.995	103.285	19.907	15.811	0.603
384.000	265.158	80.011	19.995	103.281	19.929	14.351	0.501
392.000	268.940	80.007	19.995	103.345	19.956	12.540	0.472
400.000	272.982	80.007	19.995	103.319	19.984	10.662	0.552
408.000	276.875	80.008	19.995	103.329	20.004	9.308	0.514
416.000	280.755	80.009	19.996	103.332	20.028	7.672	0.518
424.000	284.611	80.008	19.995	103.327	20.041	6.812	0.500
432.000	288.570	80.008	19.995	103.304	20.058	5.671	0.467
440.000	292.514	80.010	19.995	103.288	20.059	5.596	0.503
448.000	296.563	80.010	19.995	103.270	20.058	5.656	0.467
456.000	300.474	80.009	19.994	103.253	20.071	4.828	0.499
464.000	304.539	80.010	19.994	103.252	20.073	4.663	0.532
472.000	308.568	80.009	19.995	103.250	20.076	4.439	0.557
480.000	312.623	80.008	19.995	103.253	20.077	4.414	0.529
488.000	316.692	80.010	19.994	103.249	20.078	4.342	0.518
496.000	320.798	80.008	19.995	103.249	20.084	3.929	0.544
504.000	324.811	80.006	19.996	103.247	20.080	4.200	0.482
512.000	328.884	80.009	19.996	103.245	20.079	4.280	0.490
520.000	332.986	80.009	19.995	103.249	20.081	4.145	0.530
528.000	337.044	80.010	19.995	103.258	20.082	4.051	0.529
536.000	341.109	80.008	19.995	103.250	20.081	4.111	0.526
544.000	345.099	80.009	19.994	103.252	20.082	4.038	0.405
552.000	349.200	80.012	19.994	103.251	20.083	4.000	0.496
560.000	353.330	80.007	19.994	103.250	20.078	4.328	0.522
568.000	357.495	80.008	19.995	103.248	20.079	4.270	0.542
576.000	361.535	80.009	19.995	103.248	20.080	4.238	0.571
584.000	365.508	80.007	19.995	103.236	20.076	4.467	0.472
592.000	369.534	80.009	19.995	103.251	20.072	4.720	0.494
600.000	373.606	80.008	19.996	103.235	20.071	4.814	0.522
608.000	377.610	80.008	19.995	103.232	20.070	4.882	0.483
616.000	381.681	80.009	19.994	103.247	20.068	4.989	0.532
624.000	385.724	80.009	19.994	103.202	20.065	5.178	0.490
632.000	389.711	80.011	19.994	103.233	20.057	5.754	0.480
640.000	393.785	80.010	19.994	103.234	20.057	5.755	0.502
648.000	397.840	80.007	19.993	103.218	20.051	6.176	0.520
656.000	401.890	80.009	19.994	103.245	20.044	6.613	0.513
664.000	405.933	80.007	19.994	103.223	20.038	6.985	0.479
672.000	409.946	80.007	19.995	103.238	20.027	7.737	0.497
680.000	414.010	80.007	19.995	103.224	20.018	8.334	0.478
688.000	417.983	80.010	19.995	103.230	20.008	9.054	0.498
696.000	422.056	80.009	19.997	103.221	19.994	9.975	0.506
704.000	426.124	80.010	19.995	103.217	19.979	10.957	0.507
712.000	430.157	80.010	19.994	103.228	19.959	12.331	0.480
720.000	434.282	80.009	19.994	103.220	19.935	13.893	0.536
728.000	438.336	80.007	19.994	103.218	19.911	15.547	0.507
736.000	442.396	80.007	19.995	103.226	19.886	17.168	0.517
744.000	446.472	80.008	19.994	103.228	19.861	18.844	0.521
752.000	450.488	80.009	19.995	103.224	19.839	20.309	0.492
760.000	454.596	80.007	19.995	103.218	19.826	21.198	0.536
768.000	458.696	80.010	19.995	103.218	19.822	21.490	0.459
776.000	462.686	80.010	19.995	103.209	19.826	21.217	0.518
784.001	466.677	80.008	19.995	103.212	19.836	20.545	0.502
792.000	470.724	80.008	19.996	103.219	19.855	19.240	0.492
800.001	474.792	80.011	19.995	103.216	19.877	17.824	0.529
808.000	478.784	80.008	19.993	103.226	19.906	15.839	0.477
816.000	482.948	80.009	19.995	103.226	19.933	14.052	0.508
824.000	486.994	80.010	19.996	103.220	19.965	11.882	0.452
832.000	491.174	80.009	19.995	103.219	19.984	10.633	0.569
840.000	495.205	80.007	19.995	103.222	20.009	8.968	0.525
848.000	499.415	80.008	19.994	103.224	20.026	7.833	0.546
856.000	503.543	80.010	19.995	103.217	20.043	6.678	0.537
864.000	507.602	80.008	19.995	103.227	20.055	5.859	0.498
872.000	511.751	80.008	19.995	103.226	20.060	5.520	0.497
880.000	515.899	80.010	19.995	103.232	20.065	5.214	0.511
888.001	519.960	80.006	19.996	103.231	20.070	4.904	0.496
896.000	524.031	80.007	19.995	103.222	20.067	5.106	0.483
904.000	528.127	80.008	19.995	103.235	20.074	4.620	0.511
912.000	532.233	80.007	19.994	103.244	20.073	4.659	0.549
920.000	536.338	80.007	19.995	103.226	20.072	4.726	0.541
928.000	540.370	80.006	19.995	103.238	20.075	4.547	0.506
936.000	544.397	80.010	19.994	103.250	20.077	4.389	0.502
944.000	548.410	80.007	19.994	103.252	20.079	4.271	0.491
952.000	552.437	80.008	19.995	103.249	20.076	4.454	0.497
960.000	556.641	80.010	19.995	103.247	20.079	4.246	0.538
968.000	560.906	80.008	19.995	103.249	20.079	4.240	0.574
976.000	565.140	80.006	19.996	103.253	20.078	4.345	0.529
984.000	569.329	80.007	19.995	103.276	20.082	4.083	0.532
992.000	573.536	80.007	19.995	103.284	20.079	4.252	0.527
1000.000	577.811	80.007	19.994	103.291	20.080	4.190	0.522
1008.000	582.031	80.006	19.995	103.290	20.083	4.004	0.542
1016.000	586.187	80.009	19.995	103.265	20.079	4.277	0.533
1024.001	590.311	80.010	19.995	103.242	20.084	3.919	0.493
1032.000	594.467	80.008	19.995	103.219	20.087	3.723	0.538
1040.000	598.437	80.010	19.994	103.218	20.088	3.696	0.492
1048.000	602.387	80.008	19.996	103.211	20.090	3.520	0.516
1056.000	606.231	80.007	19.995	103.215	20.088	3.681	0.473
1064.000	610.193	80.008	19.995	103.219	20.088	3.691	0.463
1072.000	614.105	80.006	19.995	103.231	20.088	3.653	0.512
1080.000	618.087	80.007	19.997	103.226	20.087	3.733	0.487
1088.000	622.122	80.009	19.995	103.243	20.088	3.681	0.498
1096.001	626.116	80.009	19.995	103.255	20.080	4.207	0.491
1104.000	630.102	80.009	19.994	103.252	20.078	4.328	0.490
1112.000	634.223	80.008	19.994	103.280	20.085	3.845	0.518
1120.000	638.315	80.009	19.994	103.286	20.079	4.276	0.514
1128.001	642.395	80.010	19.994	103.289	20.080	4.240	0.516
1136.000	646.377	80.008	19.995	103.289	20.076	4.442	0.489
1144.000	650.545	80.007	19.996	103.298	20.078	4.344	0.566
1152.000	654.549	80.009	19.995	103.294	20.077	4.439	0.488
1160.000	658.561	80.006	19.995	103.306	20.075	4.576	0.501
1168.000	662.584	80.006	19.996	103.329	20.078	4.340	0.489
1176.000	666.604	80.007	19.995	103.343	20.075	4.538	0.479
1184.000	670.655	80.009	19.994	103.369	20.070	4.883	0.507
1192.000	674.612	80.007	19.994	103.391	20.062	5.387	0.530
1200.000	678.627	80.009	19.994	103.430	20.062	5.399	0.463
1208.000	682.705	80.011	19.994	103.447	20.055	5.919	0.551
1216.000	686.747	80.008	19.995	103.454	20.049	6.300	0.480
1224.000	690.797	80.008	19.994	103.470	20.050	6.248	0.462
1232.000	694.881	80.009	19.995	103.483	20.044	6.651	0.476
1240.000	698.942	80.007	19.995	103.484	20.042	6.769	0.530
1248.001	702.933	80.005	19.994	103.507	20.043	6.720	0.472
1256.000	707.067	80.007	19.995	103.525	20.040	6.909	0.562
1264.000	711.068	80.008	19.996	103.525	20.036	7.142	0.542
1272.001	715.165	80.007	19.996	103.524	20.030	7.587	0.551
1280.000	719.340	80.008	19.994	103.523	20.037	7.112	0.534
1288.000	723.532	80.011	19.994	103.488	20.035	7.242	0.581
1296.000	727.548	80.007	19.995	103.450	20.038	7.025	0.540
1304.000	731.619	80.007	19.994	103.411	20.041	6.803	0.530
1312.001	735.814	80.007	19.994	103.361	20.059	5.614	0.502
1320.000	739.855	80.007	19.995	103.252	20.076	4.442	0.540
1327.001	743.400	80.007	19.994	103.215	20.095	3.192	0.437

File: Vinyl_Tile_MCC_30K_min_211103_R2.txt
Sample ID:	C:\MCC\MCC Cal\Test\Vinyl_Tile_MCC_30K_min_211103_R2.txt
Sample Weight (mg):	4.87
Heating Rate (C/s):	0.5
Combustor Temp (C):	900
N2 Flow Rate (cc/min):	80
O2 Flow Rate (cc/min):	20
Calibration File:	C:\MCC\MCC Cal\Coeff1 JN10440_30_210304.txt.txt
T Correction Coefficients:	0	1.024463	0
Time Shift (s):	14
*
Time (s)	Temperature (C)	N2 flow rate (cc/min)	O2 flow rate (cc/min)	Flow Rate (cc/min)	Oxygen (%)	HRR (W/g)	Heating rate (C/s)
0.000	107.327	80.008	19.993	103.099	20.228	0.061	0.034
7.999	107.312	80.006	19.993	103.124	20.226	0.156	-0.005
16.000	107.422	80.005	19.996	103.137	20.225	0.258	0.030
24.000	107.669	80.005	19.996	103.153	20.218	0.665	0.069
32.000	108.017	80.006	19.996	103.168	20.218	0.717	0.044
39.999	108.582	80.006	19.995	103.206	20.210	1.223	0.118
47.999	109.384	80.005	19.995	103.279	20.203	1.684	0.118
55.999	110.537	80.006	19.994	103.263	20.197	2.067	0.168
63.999	111.958	80.006	19.994	103.273	20.191	2.489	0.202
71.999	113.623	80.005	19.995	103.321	20.187	2.780	0.221
79.999	115.600	80.007	19.995	103.329	20.182	3.078	0.253
88.000	117.900	80.007	19.994	103.329	20.178	3.316	0.293
95.999	120.508	80.005	19.994	103.337	20.181	3.167	0.334
103.999	123.329	80.005	19.995	103.346	20.178	3.378	0.348
111.999	126.393	80.005	19.994	103.352	20.174	3.625	0.382
119.999	129.551	80.004	19.995	103.362	20.180	3.210	0.394
128.000	132.845	80.004	19.994	103.361	20.179	3.311	0.414
136.000	136.307	80.005	19.995	103.365	20.173	3.673	0.405
144.000	139.902	80.004	19.996	103.367	20.175	3.530	0.461
152.000	143.570	80.004	19.995	103.361	20.175	3.538	0.472
160.000	147.311	80.006	19.994	103.344	20.169	3.915	0.489
168.000	151.136	80.008	19.994	103.353	20.172	3.739	0.491
176.000	154.948	80.006	19.994	103.343	20.171	3.818	0.460
184.000	158.808	80.005	19.994	103.348	20.166	4.159	0.500
192.000	162.728	80.004	19.994	103.343	20.167	4.057	0.456
200.000	166.718	80.004	19.995	103.333	20.166	4.119	0.508
208.000	170.650	80.003	19.995	103.331	20.167	4.101	0.462
216.000	174.605	80.004	19.995	103.328	20.164	4.273	0.481
224.000	178.612	80.006	19.995	103.323	20.158	4.641	0.491
232.000	182.580	80.005	19.996	103.322	20.151	5.106	0.483
240.000	186.625	80.005	19.995	103.318	20.147	5.375	0.520
248.000	190.619	80.006	19.993	103.317	20.150	5.217	0.522
256.000	194.613	80.007	19.994	103.314	20.135	6.164	0.498
264.000	198.521	80.004	19.995	103.313	20.125	6.832	0.499
272.000	202.501	80.004	19.994	103.326	20.114	7.598	0.502
280.000	206.449	80.005	19.994	103.308	20.101	8.443	0.509
288.000	210.391	80.004	19.995	103.306	20.093	8.986	0.508
296.000	214.414	80.004	19.994	103.306	20.083	9.639	0.540
304.000	218.399	80.006	19.995	103.310	20.064	10.879	0.485
312.000	222.396	80.006	19.994	103.303	20.047	11.982	0.506
320.000	226.365	80.005	19.995	103.304	20.032	12.980	0.500
328.000	230.387	80.006	19.994	103.290	20.015	14.120	0.509
336.000	234.363	80.007	19.996	103.287	20.004	14.877	0.511
344.000	238.240	80.004	19.995	103.286	19.988	15.948	0.512
352.000	242.162	80.006	19.995	103.288	19.971	17.055	0.497
360.000	246.137	80.006	19.994	103.289	19.956	18.004	0.508
368.000	250.145	80.005	19.994	103.297	19.950	18.410	0.484
376.000	254.177	80.004	19.994	103.297	19.958	17.873	0.469
384.000	258.267	80.006	19.995	103.305	19.976	16.711	0.519
392.000	262.292	80.008	19.994	103.307	19.994	15.503	0.510
400.000	266.360	80.006	19.994	103.318	20.027	13.357	0.531
408.000	270.265	80.007	19.995	103.325	20.064	10.914	0.498
416.000	274.498	80.008	19.994	103.336	20.092	9.024	0.467
424.000	278.525	80.004	19.996	103.357	20.118	7.299	0.483
432.000	282.559	80.005	19.995	103.364	20.134	6.276	0.495
440.000	286.547	80.006	19.994	103.361	20.148	5.357	0.489
448.000	290.514	80.005	19.993	103.326	20.152	5.034	0.473
456.000	294.521	80.004	19.995	103.293	20.163	4.322	0.524
464.000	298.459	80.004	19.994	103.273	20.169	3.928	0.465
472.000	302.329	80.007	19.994	103.250	20.174	3.630	0.526
480.000	306.178	80.006	19.994	103.248	20.176	3.490	0.468
488.000	310.040	80.005	19.994	103.249	20.177	3.404	0.505
496.000	313.966	80.007	19.994	103.248	20.177	3.422	0.515
504.000	317.854	80.007	19.994	103.253	20.179	3.247	0.500
512.000	321.900	80.004	19.997	103.276	20.182	3.096	0.518
520.000	325.983	80.004	19.996	103.273	20.182	3.078	0.524
528.000	330.093	80.005	19.994	103.267	20.181	3.146	0.508
536.000	334.232	80.004	19.994	103.266	20.183	3.026	0.550
544.000	338.393	80.006	19.994	103.254	20.184	2.947	0.525
552.000	342.460	80.007	19.995	103.253	20.181	3.164	0.490
560.000	346.576	80.008	19.996	103.258	20.179	3.250	0.502
568.000	350.632	80.006	19.994	103.251	20.174	3.580	0.503
576.000	354.636	80.006	19.994	103.248	20.178	3.351	0.494
584.000	358.596	80.007	19.994	103.248	20.179	3.287	0.509
592.000	362.472	80.004	19.996	103.250	20.182	3.050	0.470
600.000	366.336	80.004	19.995	103.241	20.176	3.479	0.495
608.000	370.176	80.005	19.995	103.248	20.174	3.599	0.465
616.000	374.098	80.003	19.996	103.232	20.177	3.389	0.472
624.000	377.960	80.004	19.995	103.238	20.175	3.574	0.469
632.000	381.870	80.006	19.995	103.244	20.166	4.123	0.477
640.000	385.696	80.006	19.994	103.238	20.170	3.892	0.489
648.000	389.638	80.007	19.995	103.236	20.163	4.338	0.512
656.000	393.613	80.005	19.995	103.254	20.160	4.503	0.495
664.000	397.610	80.010	19.994	103.245	20.158	4.675	0.489
672.000	401.664	80.006	19.995	103.240	20.150	5.209	0.546
680.000	405.747	80.004	19.995	103.238	20.140	5.888	0.516
688.000	409.810	80.006	19.995	103.244	20.138	6.020	0.499
696.000	413.933	80.005	19.995	103.226	20.128	6.680	0.494
704.000	418.009	80.004	19.996	103.241	20.113	7.612	0.505
712.000	422.133	80.004	19.996	103.234	20.096	8.734	0.522
720.000	426.209	80.007	19.994	103.222	20.086	9.429	0.531
728.000	430.243	80.005	19.994	103.220	20.071	10.441	0.490
736.000	434.316	80.006	19.996	103.220	20.051	11.771	0.513
744.001	438.362	80.008	19.994	103.220	20.022	13.659	0.502
752.000	442.379	80.006	19.993	103.228	19.999	15.198	0.454
760.000	446.496	80.006	19.995	103.221	19.975	16.768	0.514
768.000	450.544	80.005	19.995	103.227	19.958	17.862	0.500
776.000	454.526	80.006	19.995	103.223	19.938	19.214	0.485
784.000	458.544	80.004	19.995	103.220	19.924	20.119	0.474
792.000	462.586	80.006	19.994	103.220	19.935	19.429	0.517
800.000	466.574	80.006	19.995	103.228	19.936	19.328	0.518
808.000	470.637	80.007	19.996	103.213	19.955	18.112	0.508
816.000	474.798	80.007	19.995	103.215	19.969	17.181	0.532
824.000	478.764	80.007	19.994	103.225	20.000	15.114	0.513
832.000	482.847	80.010	19.994	103.219	20.023	13.586	0.519
840.000	486.875	80.004	19.993	103.220	20.053	11.634	0.538
848.000	490.864	80.004	19.994	103.230	20.083	9.653	0.474
856.000	495.010	80.007	19.994	103.227	20.102	8.388	0.512
864.000	499.018	80.006	19.994	103.215	20.128	6.639	0.496
872.000	503.093	80.003	19.996	103.225	20.142	5.702	0.509
880.000	507.176	80.006	19.995	103.223	20.155	4.851	0.530
888.000	511.222	80.007	19.995	103.222	20.161	4.452	0.502
896.000	515.252	80.006	19.995	103.222	20.168	3.993	0.503
904.000	519.311	80.006	19.994	103.225	20.176	3.454	0.480
912.000	523.462	80.008	19.993	103.242	20.179	3.305	0.511
920.000	527.507	80.007	19.993	103.234	20.177	3.380	0.524
928.000	531.574	80.005	19.995	103.240	20.177	3.393	0.481
936.000	535.713	80.006	19.996	103.247	20.175	3.565	0.519
944.000	539.847	80.007	19.995	103.247	20.177	3.406	0.546
952.000	543.927	80.005	19.995	103.250	20.182	3.079	0.520
960.000	547.995	80.005	19.994	103.252	20.181	3.149	0.553
968.000	551.986	80.006	19.994	103.247	20.179	3.302	0.509
976.000	556.050	80.006	19.995	103.245	20.183	2.987	0.488
984.000	560.161	80.006	19.995	103.261	20.179	3.304	0.505
992.000	564.446	80.008	19.996	103.278	20.175	3.574	0.542
1000.000	568.829	80.007	19.997	103.283	20.178	3.373	0.543
1008.000	573.222	80.005	19.994	103.287	20.175	3.565	0.566
1016.000	577.656	80.006	19.995	103.287	20.175	3.511	0.510
1024.000	582.086	80.007	19.994	103.290	20.178	3.355	0.560
1031.999	586.471	80.005	19.995	103.282	20.176	3.463	0.556
1039.999	590.848	80.006	19.994	103.255	20.178	3.310	0.556
1047.999	595.198	80.007	19.994	103.246	20.179	3.295	0.546
1055.999	599.534	80.008	19.994	103.228	20.182	3.082	0.556
1063.999	603.744	80.007	19.996	103.224	20.185	2.894	0.520
1071.999	607.938	80.007	19.994	103.226	20.185	2.887	0.526
1079.999	612.101	80.008	19.994	103.231	20.186	2.844	0.501
1088.000	616.272	80.005	19.995	103.245	20.184	2.954	0.517
1095.999	620.307	80.005	19.995	103.239	20.187	2.740	0.527
1103.999	624.334	80.006	19.994	103.256	20.178	3.317	0.479
1111.999	628.313	80.006	19.993	103.263	20.174	3.629	0.477
1119.999	632.336	80.005	19.995	103.274	20.178	3.329	0.489
1127.999	636.372	80.007	19.995	103.270	20.178	3.314	0.531
1135.999	640.394	80.008	19.994	103.287	20.174	3.633	0.501
1143.999	644.406	80.007	19.995	103.292	20.179	3.303	0.482
1151.999	648.442	80.006	19.994	103.294	20.171	3.835	0.522
1159.999	652.447	80.009	19.995	103.302	20.173	3.694	0.510
1167.999	656.497	80.006	19.994	103.319	20.166	4.126	0.496
1175.999	660.531	80.005	19.995	103.333	20.164	4.294	0.524
1183.999	664.547	80.005	19.995	103.334	20.163	4.363	0.488
1192.000	668.579	80.006	19.995	103.362	20.156	4.811	0.512
1200.000	672.683	80.006	19.994	103.375	20.153	5.037	0.523
1207.999	676.691	80.007	19.994	103.412	20.149	5.259	0.496
1215.999	680.734	80.007	19.994	103.433	20.143	5.697	0.514
1224.000	684.792	80.006	19.994	103.447	20.139	5.953	0.483
1231.999	688.857	80.006	19.994	103.483	20.135	6.225	0.499
1240.000	692.963	80.009	19.995	103.488	20.132	6.406	0.494
1248.000	697.075	80.008	19.994	103.492	20.124	6.905	0.519
1255.999	701.100	80.006	19.995	103.522	20.128	6.695	0.482
1263.999	705.121	80.006	19.994	103.530	20.119	7.246	0.515
1271.999	709.141	80.006	19.995	103.557	20.111	7.797	0.517
1279.999	713.118	80.004	19.996	103.565	20.111	7.825	0.481
1287.999	717.218	80.007	19.994	103.575	20.107	8.081	0.507
1295.999	721.249	80.006	19.994	103.579	20.105	8.195	0.526
1303.999	725.332	80.006	19.995	103.558	20.109	7.898	0.512
1311.999	729.503	80.007	19.995	103.478	20.123	6.959	0.530
1319.999	733.743	80.008	19.994	103.363	20.144	5.566	0.554
1328.000	737.927	80.009	19.993	103.249	20.163	4.320	0.514
1336.000	742.103	80.007	19.996	103.212	20.176	3.471	0.558
1339.000	743.652	80.006	19.996	103.206	20.179	3.295	0.520