Folder: fsri_materials_database/01_Data/Bamboo_Rug_Fabric/STA/N2/10K_min

Note: 01_Data/README.md
# Materials and Products Database
## 01_Data

Raw data generated from each apparatus are included here in plain-text format. The data is organized first by material, next by the short name of test apparatus used, and where applicable additional filtering by test settings.

### material.json

Each material directory contains a json file of the same name as the material. This file links the data stored in the repository as well as data and graphs produced by the accompanying scripts (__02_Scripts__) to the respective landing page for the material on the front-end website.

File: Bamboo_Rug_B_STA_N2_10KData_220124_R1.csv
##Temp./Â°C,Time/min,Mass loss(subtr.2)/mg,DSC(subtr.2)/(mW/mg),Sensit./(uV/mW)
49.238,10.00917,-0.01579,0.01862165,1.07447
52.438,11.3192,-0.01611998,0.12968,1.07424
55.638,11.7706,-0.01647951,0.17813,1.07399
58.838,12.1587,-0.01706623,0.20739,1.07371
62.038,12.52283,-0.01773984,0.22738,1.07341
65.238,12.87556,-0.01766793,0.24191,1.07309
68.438,13.22211,-0.01900153,0.24863,1.07274
71.638,13.56359,-0.02034259,0.25204,1.07236
74.838,13.90187,-0.01985342,0.25509,1.07197
78.038,14.23714,-0.02276955,0.26097,1.07155
81.238,14.5678,-0.02292289,0.26748,1.0711
84.438,14.89535,-0.02432831,0.26994,1.07063
87.638,15.21943,-0.02556069,0.27116,1.07014
90.838,15.53982,-0.02556025,0.27113,1.06963
94.038,15.85891,-0.02686983,0.27214,1.06909
97.238,16.1749,-0.02700634,0.27479,1.06852
100.438,16.4907,-0.02928503,0.27507,1.06794
103.638,16.80486,-0.02795627,0.27509,1.06733
106.838,17.11935,-0.02796,0.27768,1.0667
110.038,17.43228,-0.02933964,0.27939,1.06604
113.238,17.7461,-0.02927996,0.28066,1.06536
116.438,18.0594,-0.02928,0.28331,1.06466
119.638,18.372,-0.03026999,0.28889,1.06394
122.838,18.68337,-0.03004694,0.29234,1.06319
126.038,18.995,-0.03170611,0.29554,1.06242
129.238,19.30617,-0.03197056,0.29882,1.06162
132.438,19.61615,-0.03181026,0.30124,1.06081
135.638,19.92645,-0.03179362,0.30588,1.05997
138.838,20.23568,-0.03441189,0.31019,1.05911
142.038,20.54339,-0.03377999,0.31273,1.05822
145.238,20.85143,-0.03444,0.31819,1.05731
148.438,21.15939,-0.03444427,0.32113,1.05639
151.638,21.4667,-0.03576,0.32868,1.05543
154.838,21.77507,-0.03573828,0.33402,1.05446
158.038,22.08233,-0.03575001,0.33696,1.05346
161.238,22.38938,-0.03772999,0.34151,1.05245
164.438,22.69644,-0.03905058,0.3437,1.05141
167.638,23.00365,-0.03971266,0.34627,1.05034
170.838,23.30995,-0.04036014,0.35401,1.04926
174.038,23.61559,-0.04036009,0.35801,1.04816
177.238,23.9227,-0.04299,0.36151,1.04703
180.438,24.22886,-0.04299019,0.3624,1.04588
183.638,24.53529,-0.04430318,0.36843,1.04471
186.838,24.8419,-0.04497005,0.37139,1.04352
190.038,25.14762,-0.04627965,0.37417,1.04231
193.238,25.45309,-0.04833129,0.37833,1.04107
196.438,25.75776,-0.04824348,0.38352,1.03982
199.638,26.06229,-0.05089328,0.38914,1.03854
202.838,26.3666,-0.05319,0.39748,1.03724
206.038,26.67117,-0.05460632,0.39923,1.03593
209.238,26.9764,-0.05746839,0.40109,1.03459
212.438,27.28203,-0.06000025,0.40616,1.03323
215.638,27.5877,-0.06393998,0.41069,1.03185
218.838,27.89387,-0.06527,0.41322,1.03045
222.038,28.2005,-0.0688804,0.42051,1.02903
225.238,28.5061,-0.07433904,0.42703,1.02759
228.438,28.8126,-0.07713808,0.43167,1.02613
231.638,29.1193,-0.08237067,0.43961,1.02465
234.838,29.4254,-0.08797325,0.45092,1.02315
238.038,29.7314,-0.09091417,0.46477,1.02163
241.238,30.03722,-0.09749915,0.48875,1.02009
244.438,30.3437,-0.10431,0.52745,1.01854
247.638,30.65038,-0.11198,0.58628,1.01696
250.838,30.95705,-0.12124,0.68358,1.01536
254.038,31.26353,-0.13042,0.66998,1.01374
257.238,31.56922,-0.14259,0.5511,1.01211
260.438,31.874,-0.15392,0.48518,1.01045
263.638,32.17929,-0.16936,0.47081,1.00878
266.838,32.48319,-0.186,0.47532,1.00709
270.038,32.7885,-0.2046,0.4794,1.00538
273.238,33.09409,-0.22721,0.48483,1.00365
276.438,33.40039,-0.25083,0.49094,1.0019
279.638,33.70704,-0.27798,0.4916,1.00014
282.838,34.01453,-0.30527,0.49631,0.99836
286.038,34.32142,-0.33564,0.50183,0.99655
289.238,34.62666,-0.36584,0.50126,0.99474
292.438,34.93244,-0.39864,0.50516,0.9929
295.638,35.23852,-0.43154,0.5099,0.99104
298.838,35.54452,-0.46665,0.51409,0.98917
302.038,35.85091,-0.50199,0.51865,0.98728
305.238,36.1582,-0.53898,0.52662,0.98538
308.438,36.46542,-0.58117,0.53785,0.98346
311.638,36.77257,-0.62459,0.55555,0.98151
314.838,37.08,-0.67076,0.57482,0.97956
318.038,37.38648,-0.72157,0.60043,0.97758
321.238,37.69532,-0.77858,0.63055,0.97559
324.438,38.00203,-0.84198,0.67431,0.97359
327.638,38.3101,-0.91518,0.72677,0.97157
330.838,38.6186,-1.00095,0.79203,0.96953
334.038,38.92743,-1.10368,0.87331,0.96747
337.238,39.23673,-1.22686,0.95574,0.9654
340.438,39.54651,-1.37417,1.00546,0.96332
343.638,39.8559,-1.53737,0.96431,0.96121
346.838,40.16445,-1.70033,0.80011,0.9591
350.038,40.47214,-1.83608,0.59915,0.95696
353.238,40.7802,-1.93478,0.45272,0.95482
356.438,41.0886,-2.00683,0.36113,0.95265
359.638,41.3975,-2.05721,0.31665,0.95048
362.838,41.70666,-2.09917,0.2944,0.94829
366.038,42.0167,-2.13729,0.28688,0.94608
369.238,42.32652,-2.17234,0.28224,0.94386
372.438,42.63663,-2.20841,0.27851,0.94162
375.638,42.94732,-2.24262,0.27393,0.93937
378.838,43.25824,-2.27731,0.27519,0.93711
382.038,43.5687,-2.31147,0.27274,0.93483
385.238,43.88016,-2.34675,0.2675,0.93254
388.438,44.19162,-2.38416,0.26714,0.93023
391.638,44.50278,-2.42043,0.26486,0.92792
394.838,44.81429,-2.45893,0.26381,0.92558
398.038,45.12579,-2.49797,0.26098,0.92324
401.238,45.43778,-2.53935,0.2649,0.92088
404.438,45.74994,-2.57959,0.26438,0.91851
407.638,46.0632,-2.62513,0.26808,0.91613
410.838,46.37556,-2.66881,0.26991,0.91373
414.038,46.68892,-2.71601,0.26978,0.91132
417.238,47.00159,-2.76135,0.27276,0.9089
420.438,47.31471,-2.80366,0.27135,0.90647
423.638,47.628,-2.8455,0.27358,0.90403
426.838,47.94191,-2.88503,0.27424,0.90157
430.038,48.2556,-2.92144,0.27397,0.8991
433.238,48.5689,-2.95524,0.2672,0.89662
436.438,48.88238,-2.98786,0.25973,0.89413
439.638,49.195,-3.01582,0.2487,0.89163
442.838,49.5083,-3.04477,0.23534,0.88911
446.038,49.8217,-3.06766,0.21929,0.88659
449.238,50.13523,-3.09099,0.20027,0.88405
452.438,50.44972,-3.10866,0.18557,0.88151
455.638,50.7645,-3.12471,0.16526,0.87895
458.838,51.07885,-3.13987,0.15225,0.87638
462.038,51.39358,-3.15178,0.14752,0.87381
465.238,51.70906,-3.16203,0.13973,0.87122
468.438,52.02459,-3.17251,0.13265,0.86862
471.638,52.34,-3.18057,0.13082,0.86601
474.838,52.65485,-3.18811,0.12842,0.8634
478.038,52.9699,-3.19428,0.12765,0.86077
481.238,53.28476,-3.19968,0.13079,0.85814
484.438,53.59935,-3.20645,0.1301,0.85549
487.638,53.91505,-3.20983,0.13563,0.85284
490.838,54.2303,-3.2143,0.13998,0.85017
494.038,54.54661,-3.22038,0.14939,0.8475
497.238,54.8639,-3.22355,0.14924,0.84482
500.438,55.1809,-3.22683,0.14965,0.84213
503.638,55.4977,-3.2308,0.14699,0.83944
506.838,55.8145,-3.23605,0.14934,0.83673
510.038,56.1319,-3.24012,0.14664,0.83402
513.238,56.44922,-3.24407,0.14755,0.8313
516.438,56.76664,-3.24801,0.14463,0.82857
519.638,57.084,-3.25065,0.14365,0.82584
522.838,57.40197,-3.25433,0.14488,0.82309
526.038,57.72075,-3.25789,0.14294,0.82034
529.238,58.03996,-3.26053,0.14229,0.81758
532.438,58.35875,-3.26447,0.14677,0.81482
535.638,58.67819,-3.26711,0.1455,0.81205
538.838,58.99768,-3.26952,0.14678,0.80927
542.038,59.31657,-3.27106,0.15138,0.80648
545.238,59.6348,-3.27468,0.1438,0.80369
548.438,59.9527,-3.27736,0.147,0.80089
551.638,60.2711,-3.2783,0.14587,0.79809
554.838,60.589,-3.28027,0.14811,0.79528
558.038,60.90665,-3.28257,0.15124,0.79247
561.238,61.2251,-3.28392,0.15497,0.78964
564.438,61.54399,-3.28792,0.15809,0.78682
567.638,61.8627,-3.28932,0.15837,0.78399
570.838,62.18221,-3.29214,0.15891,0.78115
574.038,62.50225,-3.29572,0.16054,0.77831
577.238,62.82346,-3.29586,0.15796,0.77546
580.438,63.14436,-3.29848,0.14919,0.77261
583.638,63.4647,-3.30374,0.14595,0.76975
586.838,63.7854,-3.30548,0.14337,0.76689
590.038,64.10598,-3.31032,0.14315,0.76402
593.238,64.42627,-3.31365,0.14244,0.76115
596.438,64.7462,-3.31689,0.14788,0.75828
599.638,65.0654,-3.31958,0.152,0.7554
602.838,65.38565,-3.32085,0.1579,0.75251
606.038,65.706,-3.32349,0.16118,0.74963
609.238,66.02625,-3.32449,0.178,0.74674
612.438,66.34676,-3.32711,0.18258,0.74385
615.638,66.6673,-3.33042,0.18818,0.74095
618.838,66.9885,-3.33072,0.18822,0.73805
622.038,67.3095,-3.33336,0.18947,0.73515
625.238,67.63076,-3.33431,0.18971,0.73224
628.438,67.95189,-3.33697,0.19046,0.72933
631.638,68.27263,-3.33698,0.1866,0.72642
634.838,68.5938,-3.3383,0.19036,0.72351
638.038,68.9155,-3.33962,0.19229,0.72059
641.238,69.23733,-3.3418,0.19367,0.71767
644.438,69.55895,-3.34115,0.19744,0.71475
647.638,69.88069,-3.34241,0.20588,0.71183
650.838,70.20212,-3.34248,0.2071,0.70891
654.038,70.52277,-3.34509,0.20227,0.70598
657.238,70.84351,-3.3451,0.20667,0.70305
660.438,71.1652,-3.34378,0.20825,0.70013
663.638,71.4859,-3.34575,0.21053,0.6972
666.838,71.80716,-3.34904,0.21651,0.69426
670.038,72.12864,-3.34904,0.21496,0.69133
673.238,72.45151,-3.3504,0.21532,0.6884
676.438,72.77388,-3.35037,0.21332,0.68546
679.638,73.09728,-3.35168,0.21214,0.68253
682.838,73.42,-3.35464,0.21161,0.67959
686.038,73.7424,-3.35431,0.21257,0.67666
689.238,74.06479,-3.35661,0.21588,0.67372
692.438,74.38794,-3.3553,0.21702,0.67078
695.638,74.7107,-3.35661,0.22024,0.66785
698.838,75.03395,-3.35696,0.22371,0.66491
702.038,75.3571,-3.35595,0.22128,0.66197
705.238,75.6798,-3.35727,0.2195,0.65904
708.438,76.00262,-3.35957,0.22119,0.6561
711.638,76.3245,-3.35957,0.21828,0.65317
714.838,76.648,-3.36122,0.21861,0.65023
718.038,76.9722,-3.36319,0.21804,0.6473
721.238,77.29701,-3.36581,0.2162,0.64436
724.438,77.6218,-3.36451,0.21507,0.64143
727.638,77.94621,-3.36324,0.2118,0.6385
730.838,78.27048,-3.36418,0.21448,0.63557
734.038,78.59506,-3.36552,0.21697,0.63264
737.238,78.91968,-3.36582,0.22011,0.62971
740.438,79.24294,-3.36846,0.21807,0.62679
743.638,79.56703,-3.36782,0.21927,0.62386
746.838,79.89111,-3.36753,0.22174,0.62094
750.038,80.21531,-3.36868,0.22511,0.61802
753.238,80.54058,-3.37131,0.22277,0.6151
756.438,80.86492,-3.36726,0.2285,0.61218
759.638,81.18858,-3.37175,0.22847,0.60927
762.838,81.512,-3.37022,0.23163,0.60636
766.038,81.8361,-3.37142,0.23345,0.60345
769.238,82.16028,-3.37208,0.2344,0.60054
772.438,82.48495,-3.37134,0.23131,0.59764
775.638,82.80885,-3.37471,0.23735,0.59473
778.838,83.13365,-3.37438,0.2417,0.59183
782.038,83.459,-3.37504,0.23278,0.58894
785.238,83.7842,-3.37741,0.2369,0.58605
788.438,84.10975,-3.37657,0.24342,0.58315
791.638,84.43418,-3.37658,0.24164,0.58027
794.838,84.7598,-3.37658,0.24521,0.57738
797.138,84.99274,-3.37714,0.24347,0.57531