Folder: fsri_materials_database/01_Data/Bamboo_Rug_Fabric/STA/N2/30K_min

Note: 01_Data/README.md
# Materials and Products Database
## 01_Data

Raw data generated from each apparatus are included here in plain-text format. The data is organized first by material, next by the short name of test apparatus used, and where applicable additional filtering by test settings.

### material.json

Each material directory contains a json file of the same name as the material. This file links the data stored in the repository as well as data and graphs produced by the accompanying scripts (__02_Scripts__) to the respective landing page for the material on the front-end website.

File: Bamboo_Rug_B_STA_N2_30KData_220125_R1.csv
##Temp./Â°C,Time/min,Mass loss(subtr.2)/mg,DSC(subtr.2)/(mW/mg),Sensit./(uV/mW)
48.33,10.00667,0.00296,0.01144079,1.06965
51.43,10.87135,0.002321986,0.16676,1.06937
54.53,11.10211,0.00217251,0.27046,1.06906
57.63,11.27891,0.002429311,0.35123,1.06873
60.73,11.43158,0.004082962,0.42069,1.06837
63.83,11.56967,0.00511003,0.47985,1.06798
66.93,11.6996,0.003503723,0.52886,1.06757
70.03,11.82307,0.001893879,0.57413,1.06713
73.13,11.94239,0.001837446,0.60203,1.06666
76.23,12.0584,0.003908124,0.62158,1.06617
79.33,12.17212,0.003007451,0.64206,1.06565
82.43,12.2837,0.002651112,0.6611,1.06511
85.53,12.39383,0.00142906,0.67926,1.06454
88.63,12.50232,0.001419699,0.69989,1.06394
91.73,12.60962,0.00113812,0.71655,1.06332
94.83,12.71622,0.001007547,0.7334,1.06267
97.93,12.82193,3.88323e-05,0.74831,1.062
101.03,12.92704,-0.001756929,0.76424,1.0613
104.13,13.03169,-0.002612917,0.78054,1.06058
107.23,13.13674,-0.00308,0.79046,1.05983
110.33,13.241,-0.003020848,0.80186,1.05906
113.43,13.34469,-0.003028903,0.81266,1.05826
116.53,13.4486,-0.004519289,0.8201,1.05744
119.63,13.55204,-0.00570011,0.82342,1.0566
122.73,13.65502,-0.0057472,0.82814,1.05572
125.83,13.7576,-0.005334765,0.83601,1.05483
128.93,13.8594,-0.005710002,0.83786,1.05391
132.03,13.96103,-0.004390334,0.84312,1.05297
135.13,14.0617,-0.00636012,0.85124,1.052
138.23,14.1623,-0.007666023,0.86024,1.05101
141.33,14.2621,-0.006359999,0.86881,1.05
144.43,14.3613,-0.006809545,0.87752,1.04896
147.53,14.46047,-0.007667651,0.8892,1.04791
150.63,14.55913,-0.01030032,0.90291,1.04682
153.73,14.6575,-0.008994156,0.91365,1.04572
156.83,14.75545,-0.01031,0.9263,1.04459
159.93,14.8531,-0.008989987,0.93465,1.04344
163.03,14.95134,-0.00899,0.94921,1.04227
166.13,15.048,-0.008989465,0.96311,1.04107
169.23,15.1456,-0.01031,0.97796,1.03986
172.33,15.24298,-0.01150475,0.99002,1.03862
175.43,15.33949,-0.01294,1.00678,1.03736
178.53,15.4361,-0.01390377,1.01923,1.03607
181.63,15.53224,-0.01523841,1.03492,1.03477
184.73,15.6282,-0.01524,1.04569,1.03345
187.83,15.72371,-0.01554515,1.05939,1.0321
190.93,15.81918,-0.01656,1.07201,1.03074
194.03,15.91431,-0.01689008,1.08292,1.02935
197.13,16.00919,-0.01815101,1.09362,1.02794
200.23,16.10405,-0.01854,1.10616,1.02651
203.33,16.19869,-0.01854,1.1194,1.02506
206.43,16.29341,-0.02084166,1.13132,1.0236
209.53,16.388,-0.02216,1.14259,1.02211
212.63,16.48246,-0.02214379,1.1542,1.0206
215.73,16.57678,-0.02249764,1.16831,1.01907
218.83,16.67115,-0.02511167,1.1833,1.01753
221.93,16.76543,-0.0278644,1.19747,1.01596
225.03,16.85951,-0.0299455,1.21497,1.01438
228.13,16.95361,-0.03436564,1.23446,1.01277
231.23,17.0474,-0.03587566,1.26216,1.01115
234.33,17.1413,-0.03899157,1.29469,1.00951
237.43,17.2353,-0.03830378,1.34377,1.00785
240.53,17.32917,-0.03956372,1.41022,1.00618
243.63,17.42312,-0.04246972,1.51256,1.00448
246.73,17.5162,-0.04715555,1.65883,1.00277
249.83,17.611,-0.05335563,1.82305,1.00104
252.93,17.70499,-0.05627151,1.80978,0.99929
256.03,17.79863,-0.06122624,1.63593,0.99753
259.13,17.89242,-0.06691406,1.4728,0.99575
262.23,17.9857,-0.07374184,1.37936,0.99395
265.33,18.07902,-0.07941502,1.3326,0.99214
268.43,18.17258,-0.08663174,1.31729,0.99031
271.53,18.26579,-0.09518729,1.31774,0.98846
274.63,18.3594,-0.10794,1.3254,0.9866
277.73,18.45274,-0.11921,1.33437,0.98472
280.83,18.5463,-0.13159,1.35186,0.98282
283.93,18.63972,-0.14659,1.36652,0.98091
287.03,18.73335,-0.16113,1.37815,0.97899
290.13,18.82705,-0.17996,1.39211,0.97705
293.23,18.92089,-0.20071,1.4005,0.97509
296.33,19.0146,-0.22607,1.4066,0.97312
299.43,19.10841,-0.24999,1.40609,0.97114
302.53,19.202,-0.27831,1.40757,0.96914
305.63,19.29569,-0.30731,1.40793,0.96713
308.73,19.38972,-0.33705,1.41017,0.9651
311.83,19.4835,-0.36319,1.41333,0.96306
314.93,19.57741,-0.39357,1.4214,0.96101
318.03,19.67149,-0.42691,1.42889,0.95894
321.13,19.76558,-0.4579,1.43915,0.95686
324.23,19.85955,-0.49376,1.45725,0.95476
327.33,19.95382,-0.52978,1.48201,0.95266
330.43,20.04801,-0.57067,1.51187,0.95054
333.53,20.1425,-0.60748,1.55768,0.94841
336.63,20.23676,-0.65452,1.60934,0.94626
339.73,20.33175,-0.70479,1.68216,0.9441
342.83,20.4266,-0.75909,1.77454,0.94194
345.93,20.52155,-0.81985,1.88592,0.93976
349.03,20.6166,-0.88917,2.02258,0.93757
352.13,20.71155,-0.96993,2.18098,0.93536
355.23,20.80708,-1.06754,2.3476,0.93315
358.33,20.90259,-1.18259,2.47614,0.93092
361.43,20.9981,-1.3132,2.48601,0.92869
364.53,21.09348,-1.45486,2.22823,0.92644
367.63,21.18852,-1.59108,1.77335,0.92418
370.73,21.28363,-1.7121,1.34238,0.92192
373.83,21.3783,-1.80703,1.014,0.91964
376.93,21.47321,-1.87402,0.81791,0.91735
380.03,21.56824,-1.92476,0.71136,0.91506
383.13,21.6633,-1.96401,0.65929,0.91275
386.23,21.75853,-1.9983,0.63849,0.91043
389.33,21.85432,-2.03068,0.63224,0.90811
392.43,21.94973,-2.06232,0.63133,0.90577
395.53,22.0456,-2.09429,0.63473,0.90343
398.63,22.1416,-2.12602,0.63995,0.90108
401.73,22.23743,-2.15929,0.6428,0.89872
404.83,22.33374,-2.19122,0.64593,0.89635
407.93,22.43029,-2.22672,0.64596,0.89397
411.03,22.52664,-2.26402,0.64553,0.89159
414.13,22.62329,-2.30152,0.64349,0.8892
417.23,22.71997,-2.34026,0.64384,0.8868
420.33,22.81675,-2.37855,0.63757,0.88439
423.43,22.91357,-2.41967,0.63612,0.88198
426.53,23.0108,-2.46674,0.63873,0.87955
429.63,23.10799,-2.51188,0.64459,0.87712
432.73,23.20524,-2.56062,0.67036,0.87469
435.83,23.30264,-2.61,0.69595,0.87225
438.93,23.40009,-2.6607,0.69485,0.8698
442.03,23.49756,-2.70668,0.68906,0.86734
445.13,23.59529,-2.75081,0.6778,0.86488
448.23,23.693,-2.79202,0.67225,0.86241
451.33,23.79075,-2.82871,0.66499,0.85994
454.43,23.88871,-2.86199,0.65077,0.85746
457.53,23.98669,-2.89418,0.64119,0.85498
460.63,24.08466,-2.92297,0.61997,0.85249
463.73,24.18285,-2.94953,0.58965,0.84999
466.83,24.2807,-2.9783,0.54923,0.84749
469.93,24.3792,-2.99816,0.50411,0.84499
473.03,24.4775,-3.0161,0.45226,0.84248
476.13,24.57621,-3.03097,0.40437,0.83997
479.23,24.6746,-3.04717,0.36293,0.83745
482.33,24.7733,-3.05859,0.33047,0.83492
485.43,24.8719,-3.07146,0.30236,0.8324
488.53,24.97079,-3.0797,0.2817,0.82987
491.63,25.06979,-3.08684,0.26943,0.82733
494.73,25.169,-3.09436,0.25634,0.82479
497.83,25.268,-3.09988,0.24431,0.82225
500.93,25.36735,-3.10663,0.23894,0.81971
504.03,25.46642,-3.11233,0.2316,0.81716
507.13,25.5661,-3.11915,0.22771,0.81461
510.23,25.66536,-3.12311,0.22091,0.81205
513.33,25.76509,-3.12708,0.2167,0.8095
516.43,25.86468,-3.13167,0.21391,0.80693
519.53,25.96426,-3.13522,0.20821,0.80437
522.63,26.06389,-3.13787,0.20686,0.80181
525.73,26.1635,-3.14107,0.20307,0.79924
528.83,26.26339,-3.1447,0.20005,0.79667
531.93,26.3634,-3.14809,0.19679,0.7941
535.03,26.46325,-3.15219,0.19386,0.79152
538.13,26.56332,-3.15654,0.19235,0.78895
541.23,26.66327,-3.15918,0.19031,0.78637
544.33,26.76313,-3.16195,0.18487,0.78379
547.43,26.86368,-3.16377,0.18833,0.78121
550.53,26.96392,-3.16631,0.18676,0.77863
553.63,27.06437,-3.1703,0.18487,0.77605
556.73,27.16505,-3.17189,0.18546,0.77347
559.83,27.2656,-3.17483,0.18308,0.77088
562.93,27.36631,-3.17806,0.17843,0.7683
566.03,27.4669,-3.17969,0.17778,0.76571
569.13,27.5678,-3.1823,0.17796,0.76312
572.23,27.66876,-3.18698,0.17445,0.76054
575.33,27.7698,-3.18992,0.16815,0.75795
578.43,27.87118,-3.19504,0.16828,0.75536
581.53,27.97237,-3.19524,0.16581,0.75277
584.63,28.07368,-3.19955,0.16137,0.75018
587.73,28.17512,-3.20229,0.15696,0.7476
590.83,28.27637,-3.20097,0.15263,0.74501
593.93,28.378,-3.20237,0.15145,0.74242
597.03,28.47955,-3.20502,0.15463,0.73984
600.13,28.58114,-3.20637,0.15294,0.73725
603.23,28.6829,-3.21032,0.1532,0.73466
606.33,28.7847,-3.21336,0.15014,0.73208
609.43,28.8865,-3.21566,0.14497,0.72949
612.53,28.9884,-3.21731,0.13673,0.72691
615.63,29.09034,-3.21864,0.12919,0.72433
618.73,29.19213,-3.22082,0.12318,0.72175
621.83,29.29425,-3.22257,0.11745,0.71916
624.93,29.39633,-3.2252,0.11544,0.71659
628.03,29.4984,-3.23011,0.10946,0.71401
631.13,29.60067,-3.23343,0.11073,0.71143
634.23,29.70275,-3.23618,0.11148,0.70886
637.33,29.80485,-3.24014,0.11777,0.70628
640.43,29.9071,-3.24155,0.12047,0.70371
643.53,30.0092,-3.24256,0.12728,0.70114
646.63,30.1112,-3.24421,0.13583,0.69857
649.73,30.2133,-3.24583,0.13764,0.69601
652.83,30.31545,-3.2491,0.14677,0.69344
655.93,30.41763,-3.25054,0.15055,0.69088
659.03,30.51991,-3.24791,0.15585,0.68832
662.13,30.62221,-3.25055,0.15559,0.68576
665.23,30.72433,-3.25318,0.16106,0.68321
668.33,30.8264,-3.25548,0.1604,0.68066
671.43,30.9287,-3.2568,0.15965,0.67811
674.53,31.0313,-3.25431,0.15713,0.67556
677.63,31.13359,-3.2568,0.15395,0.67301
680.73,31.2362,-3.26117,0.15682,0.67047
683.83,31.3386,-3.26118,0.15189,0.66793
686.93,31.44118,-3.25861,0.14858,0.66539
690.03,31.5438,-3.26251,0.14797,0.66286
693.13,31.6466,-3.26481,0.14395,0.66033
696.23,31.7495,-3.26396,0.14005,0.6578
699.33,31.85247,-3.26568,0.13328,0.65527
702.43,31.95535,-3.26357,0.12923,0.65275
705.53,32.05836,-3.26514,0.11972,0.65023
708.63,32.16154,-3.26693,0.11654,0.64772
711.73,32.26464,-3.27051,0.11094,0.64521
714.83,32.36787,-3.27132,0.10647,0.6427
717.93,32.47119,-3.27453,0.09738774,0.64019
721.03,32.57438,-3.2747,0.09224401,0.63769
724.13,32.67781,-3.2747,0.08977383,0.63519
727.23,32.7812,-3.27325,0.07953194,0.63269
730.33,32.8846,-3.27193,0.07398392,0.6302
733.43,32.98782,-3.27329,0.07085676,0.62771
736.53,33.09171,-3.27457,0.05826293,0.62523
739.63,33.19512,-3.27676,0.05175258,0.62275
742.73,33.2986,-3.27851,0.0399187,0.62027
745.83,33.40227,-3.27983,0.02862424,0.6178
748.93,33.50578,-3.27983,0.02653844,0.61533
752.03,33.6093,-3.28246,0.01510036,0.61287
755.13,33.71293,-3.28597,0.01413828,0.6104
758.23,33.8166,-3.28597,0.001235798,0.60795
761.33,33.92006,-3.28455,0.003483163,0.60549
764.43,34.02364,-3.28356,-0.007557097,0.60305
767.53,34.1271,-3.28797,-0.008266042,0.6006
770.63,34.23067,-3.28563,-0.008124088,0.59816
773.73,34.33435,-3.28478,-0.01113448,0.59572
776.83,34.43805,-3.28607,-0.01552239,0.59329
779.93,34.54179,-3.28872,-0.02159447,0.59086
783.03,34.64567,-3.28608,-0.02069714,0.58844
786.13,34.74971,-3.28883,-0.02573679,0.58602
789.23,34.85362,-3.28917,-0.03051821,0.5836
792.33,34.9577,-3.29113,-0.03047384,0.58119
793.53,34.9979,-3.29113,-0.03835091,0.58026