Folder: fsri_materials_database/01_Data/Bamboo_Rug_Fabric/STA/N2/3K_min

Note: 01_Data/README.md
# Materials and Products Database
## 01_Data

Raw data generated from each apparatus are included here in plain-text format. The data is organized first by material, next by the short name of test apparatus used, and where applicable additional filtering by test settings.

### material.json

Each material directory contains a json file of the same name as the material. This file links the data stored in the repository as well as data and graphs produced by the accompanying scripts (__02_Scripts__) to the respective landing page for the material on the front-end website.

File: Bamboo_Rug_B_STA_N2_3KData_220125_R1.csv
##Temp./Â°C,Time/min,Mass loss(subtr.2)/mg,DSC(subtr.2)/(mW/mg),Sensit./(uV/mW)
49.932,10.01667,-0.01975,-0.0007226018,1.0638
53.132,12.3161,-0.02280328,0.04498895,1.06303
56.332,13.5272,-0.02269872,0.05321873,1.06226
59.532,14.67269,-0.02607437,0.05897859,1.06148
62.732,15.7908,-0.03159792,0.06245776,1.06069
65.932,16.87546,-0.03009474,0.06433158,1.0599
69.132,17.94906,-0.03267551,0.06295209,1.05911
72.332,19.0314,-0.03366605,0.05968657,1.05831
75.532,20.10765,-0.03433473,0.05888319,1.05751
78.732,21.18027,-0.03585454,0.05823098,1.0567
81.932,22.24611,-0.03992766,0.05734924,1.05588
85.132,23.31438,-0.04151528,0.05655864,1.05506
88.332,24.38466,-0.0424978,0.05453859,1.05424
91.532,25.44567,-0.04339101,0.05403028,1.0534
94.732,26.5127,-0.04188844,0.05488286,1.05257
97.932,27.5761,-0.04391036,0.05723787,1.05172
101.132,28.63621,-0.0460081,0.05928169,1.05087
104.332,29.6967,-0.04374332,0.055506,1.05002
107.532,30.7548,-0.04440254,0.0614778,1.04915
110.732,31.81588,-0.04579741,0.06242656,1.04828
113.932,32.87412,-0.04687748,0.06536417,1.04741
117.132,33.9334,-0.04431002,0.06940266,1.04653
120.332,34.99042,-0.05003309,0.06823758,1.04564
123.532,36.04562,-0.04755251,0.06866977,1.04474
126.732,37.10621,-0.04795341,0.06866284,1.04383
129.932,38.15983,-0.05058865,0.06906135,1.04292
133.132,39.2091,-0.05165082,0.07373728,1.042
136.332,40.25955,-0.05044077,0.07512729,1.04107
139.532,41.31133,-0.05298657,0.07725465,1.04014
142.732,42.36166,-0.05383384,0.0803738,1.03919
145.932,43.4111,-0.05438343,0.08561485,1.03824
149.132,44.45451,-0.05759,0.08489384,1.03728
152.332,45.50672,-0.05757993,0.08168914,1.03631
155.532,46.55082,-0.05821641,0.09099469,1.03534
158.732,47.59142,-0.06075381,0.08887483,1.03435
161.932,48.6348,-0.06385679,0.08975693,1.03335
165.132,49.67723,-0.06383997,0.0906148,1.03235
168.332,50.7226,-0.06516,0.0934105,1.03133
171.532,51.76535,-0.06616389,0.09743321,1.03031
174.732,52.80998,-0.06713013,0.09827788,1.02928
177.932,53.8512,-0.06971008,0.09826271,1.02823
181.132,54.8886,-0.07398823,0.10166,1.02718
184.332,55.9291,-0.07492927,0.10426,1.02612
187.532,56.9729,-0.07852975,0.10556,1.02505
190.732,58.0167,-0.08118044,0.10829,1.02396
193.932,59.05611,-0.08535147,0.11162,1.02287
197.132,60.0907,-0.08928734,0.1116,1.02176
200.332,61.1311,-0.09357005,0.11009,1.02065
203.532,62.16845,-0.09620002,0.11832,1.01952
206.732,63.20743,-0.10259,0.11747,1.01838
209.932,64.24531,-0.1042,0.11926,1.01723
213.132,65.28871,-0.11273,0.1171,1.01607
216.332,66.32803,-0.11779,0.11839,1.0149
219.532,67.3652,-0.12281,0.11813,1.01372
222.732,68.40736,-0.12775,0.12275,1.01252
225.932,69.44864,-0.13551,0.12223,1.01131
229.132,70.4885,-0.14147,0.12469,1.01009
232.332,71.53191,-0.15013,0.13132,1.00886
235.532,72.56708,-0.15995,0.13539,1.00761
238.732,73.60185,-0.16944,0.14177,1.00636
241.932,74.6451,-0.18128,0.15055,1.00509
245.132,75.68767,-0.19666,0.16189,1.0038
248.332,76.7271,-0.21367,0.18213,1.00251
251.532,77.7705,-0.22785,0.21503,1.0012
254.732,78.81419,-0.252,0.22863,0.99987
257.932,79.85525,-0.2713,0.18979,0.99854
261.132,80.88714,-0.30068,0.15905,0.99719
264.332,81.92505,-0.3211,0.15385,0.99583
267.532,82.96807,-0.35576,0.15768,0.99445
270.732,84.00681,-0.38778,0.15713,0.99306
273.932,85.05127,-0.42091,0.15821,0.99165
277.132,86.08889,-0.45311,0.16067,0.99023
280.332,87.1246,-0.48885,0.16347,0.9888
283.532,88.17079,-0.52872,0.16343,0.98735
286.732,89.21683,-0.57015,0.16821,0.98589
289.932,90.2619,-0.61256,0.16992,0.98441
293.132,91.30068,-0.65517,0.18123,0.98292
296.332,92.34116,-0.70775,0.18718,0.98141
299.532,93.38209,-0.75972,0.19349,0.97989
302.732,94.43042,-0.81824,0.20762,0.97835
305.932,95.4815,-0.88471,0.22159,0.9768
309.132,96.52423,-0.96056,0.24056,0.97523
312.332,97.56745,-1.04899,0.26787,0.97365
315.532,98.613,-1.15829,0.30159,0.97205
318.732,99.65993,-1.28809,0.33902,0.97044
321.932,100.705,-1.4485,0.36491,0.96881
325.132,101.747,-1.62875,0.3537,0.96716
328.332,102.786,-1.80607,0.29056,0.9655
331.532,103.829,-1.94975,0.2063,0.96382
334.732,104.874,-2.04664,0.14692,0.96213
337.932,105.919,-2.11398,0.1208,0.96042
341.132,106.97,-2.16411,0.10563,0.95869
344.332,108.013,-2.20651,0.0992709,0.95695
347.532,109.0603,-2.24345,0.0939444,0.95519
350.732,110.107,-2.27903,0.09714546,0.95341
353.932,111.156,-2.31609,0.09370685,0.95162
357.132,112.212,-2.35187,0.09573063,0.94981
360.332,113.263,-2.38337,0.09840901,0.94798
363.532,114.306,-2.41763,0.09547879,0.94614
366.732,115.3597,-2.4534,0.09460079,0.94428
369.932,116.4081,-2.48816,0.09755975,0.9424
373.132,117.4608,-2.52848,0.09854693,0.94051
376.332,118.509,-2.56885,0.09820199,0.93859
379.532,119.563,-2.59878,0.09859067,0.93667
382.732,120.622,-2.64235,0.09923293,0.93472
385.932,121.672,-2.68133,0.10824,0.93276
389.132,122.724,-2.72429,0.10909,0.93078
392.332,123.778,-2.76821,0.11003,0.92878
395.532,124.827,-2.80672,0.11235,0.92676
398.732,125.877,-2.84608,0.11055,0.92473
401.932,126.93,-2.88329,0.109,0.92268
405.132,127.987,-2.92197,0.11038,0.92061
408.332,129.045,-2.95538,0.10761,0.91853
411.532,130.102,-2.99349,0.105,0.91643
414.732,131.159,-3.02465,0.10337,0.91431
417.932,132.215,-3.05237,0.09995936,0.91217
421.132,133.269,-3.08222,0.09484424,0.91001
424.332,134.3222,-3.10206,0.09220217,0.90784
427.532,135.378,-3.12552,0.08444615,0.90565
430.732,136.44,-3.14362,0.08166972,0.90344
433.932,137.49,-3.15984,0.0783103,0.90121
437.132,138.547,-3.17377,0.07026403,0.89897
440.332,139.61,-3.18677,0.06927763,0.89671
443.532,140.67,-3.19751,0.06671184,0.89443
446.732,141.732,-3.20733,0.06555914,0.89213
449.932,142.794,-3.21392,0.07069255,0.88982
453.132,143.851,-3.223,0.08904955,0.88748
456.332,144.9049,-3.22379,0.08609483,0.88513
459.532,145.968,-3.2353,0.07738387,0.88277
462.732,147.032,-3.23804,0.07989305,0.88038
465.932,148.089,-3.24361,0.07818802,0.87798
469.132,149.15,-3.24704,0.07197904,0.87556
472.332,150.217,-3.25277,0.07348399,0.87312
475.532,151.278,-3.25711,0.07114725,0.87066
478.732,152.34,-3.26109,0.07253735,0.86819
481.932,153.405,-3.26458,0.0736718,0.8657
485.132,154.466,-3.26513,0.0721596,0.86319
488.332,155.534,-3.27172,0.07092633,0.86066
491.532,156.6,-3.27633,0.06739536,0.85812
494.732,157.662,-3.27538,0.06714822,0.85556
497.932,158.732,-3.28065,0.06436988,0.85298
501.132,159.796,-3.28542,0.06349451,0.85039
504.332,160.86,-3.28553,0.06467093,0.84778
507.532,161.925,-3.29003,0.06359795,0.84515
510.732,162.9935,-3.29298,0.06143937,0.8425
513.932,164.062,-3.29493,0.05756954,0.83984
517.132,165.131,-3.29698,0.05278017,0.83716
520.332,166.198,-3.3,0.05105584,0.83446
523.532,167.266,-3.30397,0.0501473,0.83175
526.732,168.34,-3.30578,0.04507316,0.82902
529.932,169.407,-3.30945,0.04631067,0.82627
533.132,170.467,-3.31143,0.04435934,0.82351
536.332,171.5347,-3.31175,0.04371038,0.82073
539.532,172.604,-3.31482,0.04664655,0.81793
542.732,173.673,-3.31714,0.07006833,0.81512
545.932,174.7486,-3.32164,0.11574,0.81229
549.132,175.816,-3.32503,0.1224,0.80944
552.332,176.882,-3.33128,0.11563,0.80658
555.532,177.957,-3.33424,0.1122,0.80371
558.732,179.024,-3.33783,0.11108,0.80081
561.932,180.101,-3.34146,0.10083,0.79791
565.132,181.178,-3.34543,0.08619638,0.79498
568.332,182.245,-3.34747,0.06626104,0.79204
571.532,183.317,-3.34883,0.04991106,0.78909
574.732,184.397,-3.35001,0.05044527,0.78612
577.932,185.4648,-3.35376,0.06066386,0.78314
581.132,186.531,-3.35125,0.06846899,0.78014
584.332,187.61,-3.35809,0.0783695,0.77712
587.532,188.687,-3.35551,0.0792625,0.77409
590.732,189.758,-3.3602,0.08905885,0.77105
593.932,190.831,-3.36057,0.0910708,0.76799
597.132,191.912,-3.36187,0.10068,0.76492
600.332,192.986,-3.36286,0.10187,0.76183
603.532,194.057,-3.3629,0.10352,0.75873
606.732,195.132,-3.36782,0.11239,0.75562
609.932,196.21,-3.36895,0.11237,0.75249
613.132,197.286,-3.36978,0.11184,0.74935
616.332,198.354,-3.3701,0.11565,0.74619
619.532,199.438,-3.37176,0.1179,0.74303
622.732,200.521,-3.37274,0.12108,0.73984
625.932,201.588,-3.3734,0.12359,0.73665
629.132,202.662,-3.37306,0.12711,0.73344
632.332,203.745,-3.376,0.13051,0.73022
635.532,204.824,-3.37756,0.12771,0.72699
638.732,205.903,-3.37822,0.13083,0.72375
641.932,206.978,-3.37822,0.13111,0.72049
645.132,208.054,-3.37724,0.13475,0.71722
648.332,209.1357,-3.37818,0.13041,0.71394
651.532,210.219,-3.37824,0.13564,0.71065
654.732,211.293,-3.3792,0.14159,0.70735
657.932,212.371,-3.37724,0.14485,0.70403
661.132,213.452,-3.3811,0.14453,0.70071
664.332,214.526,-3.38071,0.1477,0.69737
667.532,215.611,-3.38283,0.1495,0.69403
670.732,216.681,-3.38118,0.14807,0.69067
673.932,217.758,-3.38238,0.15041,0.6873
677.132,218.845,-3.38349,0.15532,0.68392
680.332,219.93,-3.38473,0.15558,0.68053
683.532,221.004,-3.38415,0.15558,0.67714
686.732,222.083,-3.38447,0.15836,0.67373
689.932,223.16,-3.38615,0.16314,0.67031
693.132,224.244,-3.38611,0.15684,0.66689
696.332,225.326,-3.38754,0.15714,0.66345
699.532,226.413,-3.38776,0.163,0.66001
702.732,227.495,-3.38546,0.1572,0.65656
705.932,228.581,-3.38989,0.16114,0.6531
709.132,229.6562,-3.39105,0.16573,0.64963
712.332,230.737,-3.39029,0.16796,0.64615
715.532,231.816,-3.39268,0.16948,0.64267
718.732,232.896,-3.39204,0.16258,0.63918
721.932,233.979,-3.3932,0.15724,0.63568
725.132,235.058,-3.39294,0.15929,0.63217
728.332,236.144,-3.39643,0.15136,0.62866
731.532,237.228,-3.39712,0.15075,0.62514
734.732,238.304,-3.39643,0.15121,0.62162
737.932,239.3862,-3.39745,0.15296,0.61808
741.132,240.467,-3.39808,0.14852,0.61455
744.332,241.549,-3.39806,0.1429,0.611
747.532,242.628,-3.40072,0.14656,0.60745
750.732,243.712,-3.39944,0.13812,0.6039
753.932,244.802,-3.40025,0.13408,0.60034
757.132,245.889,-3.40152,0.13377,0.59677
760.332,246.975,-3.404,0.12674,0.5932
763.532,248.055,-3.40291,0.1282,0.58963
766.732,249.133,-3.40357,0.13084,0.58605
769.932,250.224,-3.40486,0.12372,0.58247
773.132,251.308,-3.40519,0.11844,0.57888
776.332,252.399,-3.40527,0.12501,0.57529
779.532,253.474,-3.40194,0.12093,0.5717
782.732,254.556,-3.40525,0.11819,0.56811
785.932,255.65,-3.40817,0.1229,0.56451
789.132,256.732,-3.40685,0.11823,0.56091
792.332,257.809,-3.40804,0.1099,0.5573
795.532,258.896,-3.4098,0.11114,0.5537
798.732,259.989,-3.40949,0.10949,0.55009