Folder: fsri_materials_database/01_Data/Plastic_Laminate_Counterop/Cone

Note: 01_Data/README.md
# Materials and Products Database
## 01_Data

Raw data generated from each apparatus are included here in plain-text format. The data is organized first by material, next by the short name of test apparatus used, and where applicable additional filtering by test settings.

### material.json

Each material directory contains a json file of the same name as the material. This file links the data stored in the repository as well as data and graphs produced by the accompanying scripts (__02_Scripts__) to the respective landing page for the material on the front-end website.

File: Plastic_Laminate_Countertop_Cone_HF25Scalar_220509_R2.csv
LABORATORY,FSRI
TEST IDENT,Countertop_HF25_2
OPERATOR,Dow
MATERIAL,laminate over particle board countertop
ORIENTATION,Horizontal
HEAT FLUX,25
SURF AREA,0.01
C FACTOR,0.043097
SPEC HOLDER DIFF,-566
SPECIMEN MASS,262.93
SCAN TIME,0.25
O2 DELAY TIME,11
CO DELAY TIME,11
CO2 DELAY TIME,8
FLOW FACTOR,1
SCAN COUNT,14892
TIME TO IGN,100.25
END OF TEST SCAN,14412
END OF TEST TIME,3603
TEST STATUS,1
PRE TEST CMT,Dimensions: 99.46 x 99.21 x 39.63 mm; with frame and grid
POST TEST CMT,"A few seconds prior to ignition the laminate inflated, then popped violently, causing a spike in mass data. The inflation of the laminate pushed the wire grid upwards, approaching the spark ignitor. The flames extinguished at around 2:50. The spark ignitor was reinserted, and reignition occurred at around 8:45. Test ended after 60 minutes, per ASTM criteria. "

File: Plastic_Laminate_Countertop_Cone_HF25Scan_220509_R2.csv
Names,Time,Stack TC,Smoke TC,Exh Press,Smoke Comp,Smoke Meas,CO Meter,CO2 Meter,O2 Meter,Sample Mass,Ext Coeff,Start Test,Flame Verif
Chan Gain,,500,500,1,1,1,1,1,1,1,1,1.0,1.0
Offset,,0,0,0.136848,0,0,0,0,0,0,0,0.0,0.0
Gain,,1,1,25.011,13.1423,14.7137,1,1,1,1.0009,1.01396,1.0,1.0
Units,sec,C,C,Pa,%,%,%,%,%,g,/m,,
Baseline,,21.9851,22.4499,147.379,99.6185,102.463,0.000538629,0.0434118,20.9928,-442.593,-0.250364,,
158,39.25,20.5033,21.3824,148.641,99.8201,102.507,0.000717311,0.042268,20.9941,750.133,-0.236207,0.0,0.0
316,78.75,20.7145,21.8748,149.34,99.3429,100.426,0.00169942,0.0502444,20.9898,749.693,-0.0964707,0.0,0.0
474,118.25,22.3489,22.4399,144.542,100.152,103.253,0.00156464,0.0871143,20.949,748.682,-0.271184,0.0,0.0
632,157.75,21.7051,22.5293,145.954,99.6954,102.502,0.00204564,0.0558333,20.9849,748.061,-0.246899,0.0,0.0
790,197.25,21.0183,21.8186,148.356,99.677,102.713,0.00163217,0.0525869,20.9833,747.731,-0.266879,0.0,0.0
948,236.75,20.7684,21.8299,145.398,99.8907,102.495,0.00200745,0.0464934,20.9921,747.441,-0.228905,0.0,0.0
1106,276.25,20.6566,21.8201,142.111,100.141,102.944,0.00167817,0.0498558,20.9876,747.141,-0.245533,0.0,0.0
1264,315.75,20.8928,21.2771,147.725,99.8811,102.896,0.00215998,0.0464319,20.9952,746.85,-0.264492,0.0,0.0
1422,355.25,20.6277,21.3219,144.427,99.4062,102.285,0.00205031,0.0472486,20.993,746.52,-0.253935,0.0,0.0
1580,394.75,20.9726,21.7791,142.079,99.63,103.018,0.00190365,0.0472544,20.9906,746.19,-0.297389,0.0,0.0
1738,434.25,21.2764,21.7395,150.367,99.845,103.13,0.00224498,0.0484942,20.9937,745.789,-0.287945,0.0,0.0
1896,473.75,20.7544,21.8524,145.667,99.8009,103.281,0.00292267,0.0507975,20.9938,745.299,-0.304839,0.0,0.0
2054,513.25,22.2285,22.5578,145.388,99.411,102.685,0.00221166,0.0639172,20.9788,744.638,-0.288227,0.0,0.0
2212,552.75,22.8994,22.8115,141.805,98.9145,102.502,0.00405117,0.0716711,20.9744,743.717,-0.316841,0.0,0.0
2370,592.25,23.9514,24.2226,144.94,98.6703,100.894,0.00534878,0.0997685,20.9432,742.296,-0.198198,0.0,0.0
2528,631.75,26.0905,26.712,143.534,98.6346,100.97,0.00578863,0.123732,20.9175,740.364,-0.208143,0.0,0.0
2686,671.25,27.6848,28.3173,142.067,98.5764,100.244,0.00587444,0.131745,20.9069,738.132,-0.149198,0.0,0.0
2844,710.75,28.0796,28.6878,140.25,98.57,100.273,0.00541571,0.125471,20.9135,735.97,-0.152366,0.0,0.0
3002,750.25,28.3469,29.2687,144.386,98.5965,101.877,0.00457151,0.118509,20.9183,734.049,-0.291161,0.0,0.0
3160,789.75,28.0813,29.8569,143.157,98.6169,102.263,0.00360183,0.110705,20.926,732.287,-0.322888,0.0,0.0
3318,829.25,28.0993,29.6032,139.723,98.6109,101.836,0.00307081,0.109874,20.9257,730.646,-0.286252,0.0,0.0
3476,868.75,28.785,29.414,142.27,98.5648,103.027,0.00297594,0.10586,20.9299,729.164,-0.393854,0.0,0.0
3634,908.25,28.2437,28.8398,142.082,98.5495,102.542,0.00305811,0.100513,20.9328,727.753,-0.353265,0.0,0.0
3792,947.75,27.553,28.5509,142.235,98.7011,102.419,0.00245356,0.0964413,20.9387,726.432,-0.328836,0.0,0.0
3950,987.25,27.3716,28.2216,145.539,99.0015,102.624,0.00274587,0.0949351,20.9392,725.201,-0.31961,0.0,0.0
4108,1026.75,27.4338,28.0923,145.173,99.3557,102.559,0.00278942,0.0939812,20.9414,724,-0.282205,0.0,0.0
4266,1066.25,27.0315,28.2411,145.13,99.8225,103.886,0.00279892,0.0934036,20.9397,722.799,-0.354883,0.0,0.0
4424,1105.75,27.2427,28.0282,139.81,99.693,103.297,0.00266408,0.0928281,20.9401,721.658,-0.31589,0.0,0.0
4582,1145.25,27.0129,27.5251,141.058,99.3304,102.846,0.00366716,0.0917909,20.9432,720.477,-0.309355,0.0,0.0
4740,1184.75,26.662,28.2196,141.126,99.7941,103.265,0.00305459,0.0913393,20.9439,719.326,-0.304093,0.0,0.0
4898,1224.25,26.8533,27.9771,144.336,100.125,103.625,0.00305302,0.0905925,20.9401,718.185,-0.305579,0.0,0.0
5056,1263.75,27.0033,27.7919,138.69,99.6489,103.67,0.00367695,0.0904797,20.9424,717.013,-0.35186,0.0,0.0
5214,1303.25,26.2759,27.8264,144.692,99.7852,103.493,0.00353021,0.0905174,20.9426,715.872,-0.324505,0.0,0.0
5372,1342.75,26.5138,27.4778,144.031,100.072,103.552,0.00351598,0.0909366,20.9438,714.691,-0.30407,0.0,0.0
5530,1382.25,26.2259,27.5785,146.81,100.244,103.895,0.00367448,0.090175,20.9425,713.53,-0.318169,0.0,0.0
5688,1421.75,26.94,27.2951,144.866,100.388,103.906,0.00393839,0.0892199,20.9439,712.379,-0.306367,0.0,0.0
5846,1461.25,26.841,27.5905,144.958,100.472,103.956,0.00367078,0.0884013,20.9453,711.228,-0.303171,0.0,0.0
6004,1500.75,26.4865,27.7575,142.919,100.397,103.756,0.00369613,0.0874672,20.9497,710.027,-0.292738,0.0,0.0
6162,1540.25,25.9736,27.0334,145.268,99.928,103.546,0.00386761,0.0869332,20.9477,708.916,-0.316301,0.0,0.0
6320,1579.75,26.2975,27.1983,142.948,98.9338,102.64,0.00349062,0.0907045,20.9446,707.745,-0.327141,0.0,0.0
6478,1619.25,27.337,27.6588,144.966,98.5656,102.318,0.00352332,0.0921142,20.942,706.614,-0.332283,0.0,0.0
6636,1658.75,26.8033,27.8716,143.851,98.876,102.728,0.00341251,0.0932519,20.9414,705.493,-0.339958,0.0,0.0
6794,1698.25,27.1229,27.978,142.175,99.2169,102.822,0.00324099,0.0942708,20.9384,704.352,-0.317466,0.0,0.0
6952,1737.75,27.7488,28.3166,139.73,99.5109,103.183,0.00328941,0.0957373,20.9376,703.171,-0.322286,0.0,0.0
7110,1777.25,27.3584,28.1875,143.935,99.6613,103.34,0.00314517,0.0968006,20.9328,702,-0.322428,0.0,0.0
7268,1816.75,27.6268,28.3094,143.035,99.7139,103.652,0.00358124,0.0973697,20.9337,700.799,-0.344482,0.0,0.0
7426,1856.25,28.1285,28.826,145.398,99.7387,103.569,0.00331966,0.098105,20.9353,699.598,-0.335172,0.0,0.0
7584,1895.75,27.9717,29.0135,144.273,99.8278,103.737,0.00336979,0.0974343,20.937,698.407,-0.341646,0.0,0.0
7742,1935.25,27.9544,28.5388,141.33,99.5807,104.568,0.00403264,0.0967263,20.9378,697.186,-0.434625,0.0,0.0
7900,1974.75,27.6161,28.7578,144.524,99.2931,103.25,0.00382747,0.0959763,20.9349,695.995,-0.347538,0.0,0.0
8058,2014.25,27.2909,28.8751,140.726,99.2799,103.559,0.00386705,0.0953058,20.9371,694.774,-0.375297,0.0,0.0
8216,2053.75,27.5621,28.882,147.042,99.5358,103.079,0.00403497,0.0930431,20.9386,693.602,-0.311117,0.0,0.0
8374,2093.25,27.2144,28.1814,145.29,99.9713,103.554,0.00462458,0.0894351,20.9443,692.411,-0.313141,0.0,0.0
8532,2132.75,27.5211,28.583,144.516,99.8474,103.491,0.00419138,0.0880513,20.9473,691.28,-0.318811,0.0,0.0
8690,2172.25,27.1724,28.0157,145.372,100.252,103.732,0.00478792,0.0834179,20.9502,690.109,-0.303532,0.0,0.0
8848,2211.75,27.0262,27.4797,144.159,100.44,104.136,0.00460356,0.0823679,20.9493,688.958,-0.321404,0.0,0.0
9006,2251.25,26.3022,27.6266,142.788,100.311,103.569,0.00467001,0.0820407,20.9521,687.877,-0.284241,0.0,0.0
9164,2290.75,26.6004,27.5166,141.659,100.1,103.54,0.00475976,0.0807385,20.9522,686.796,-0.300501,0.0,0.0
9322,2330.25,26.1152,26.9592,146.058,99.6465,103.04,0.00482205,0.0812726,20.9536,685.705,-0.297899,0.0,0.0
9480,2369.75,26.626,27.1038,143.884,99.3364,102.69,0.00454698,0.0808956,20.9527,684.614,-0.295292,0.0,0.0
9638,2409.25,26.5116,27.4507,138.204,99.2907,102.553,0.00451416,0.0813233,20.9513,683.573,-0.287517,0.0,0.0
9796,2448.75,26.2754,27.5985,142.172,98.9534,102.416,0.0045743,0.0810496,20.9507,682.523,-0.305937,0.0,0.0
9954,2488.25,26.3479,27.2931,143.083,98.5784,102.137,0.00493516,0.0800879,20.9549,681.482,-0.315419,0.0,0.0
10112,2527.75,26.7108,27.1297,145.721,98.7517,102.034,0.00497613,0.0808381,20.9514,680.381,-0.290802,0.0,0.0
10270,2567.25,26.5995,27.289,146.229,99.0393,102.108,0.00463302,0.082833,20.9535,679.34,-0.271395,0.0,0.0
10428,2606.75,26.2127,26.8343,145.862,98.9342,102.703,0.00440638,0.0840729,20.9487,678.259,-0.332512,0.0,0.0
10586,2646.25,26.0062,26.6415,144.337,98.7609,102.245,0.00438273,0.0851421,20.948,677.188,-0.308349,0.0,0.0
10744,2685.75,26.213,27.5571,146.228,98.6719,102.705,0.00442834,0.0856918,20.9493,676.087,-0.356319,0.0,0.0
10902,2725.25,26.3256,27.177,143.85,98.6462,101.826,0.00432806,0.0858196,20.9497,675.006,-0.282206,0.0,0.0
11060,2764.75,26.8669,27.5805,141.535,98.5897,102.241,0.00477825,0.0868024,20.9475,673.895,-0.323473,0.0,0.0
11218,2804.25,26.7483,27.3033,145.796,98.5804,101.678,0.00414417,0.0880824,20.9466,672.814,-0.275147,0.0,0.0
11376,2843.75,26.8994,28.1674,145.632,98.5876,101.968,0.00442547,0.0919373,20.944,671.703,-0.299872,0.0,0.0
11534,2883.25,27.2684,27.8337,145.333,98.5917,102.23,0.00395888,0.0944332,20.9374,670.562,-0.322277,0.0,0.0
11692,2922.75,27.7098,28.447,143.663,99.3749,102.46,0.00363552,0.0964707,20.937,669.371,-0.27195,0.0,0.0
11850,2962.25,28.0826,28.8376,142.139,99.7953,103.721,0.00362135,0.100098,20.9329,668.2,-0.343155,0.0,0.0
12008,3001.75,28.6498,29.0317,138.847,99.8197,104.182,0.00358281,0.102949,20.9299,666.939,-0.380432,0.0,0.0
12166,3041.25,28.419,29.6054,142.813,99.7467,103.334,0.00298607,0.105615,20.9271,665.697,-0.314228,0.0,0.0
12324,3080.75,28.7696,29.7671,141.319,99.45,103.553,0.00337806,0.108702,20.9239,664.376,-0.359612,0.0,0.0
12482,3120.25,29.2692,29.7987,145.027,98.8985,103.132,0.00299821,0.111561,20.9203,663.035,-0.372781,0.0,0.0
12640,3159.75,29.3235,30.3912,141.395,98.5612,102.705,0.00274271,0.115334,20.9174,661.614,-0.366264,0.0,0.0
12798,3199.25,29.505,29.9786,144.02,98.874,102.711,0.00305054,0.118861,20.9128,660.152,-0.338661,0.0,0.0
12956,3238.75,30.0727,31.3745,141.509,99.4824,103.674,0.00312026,0.123811,20.9059,658.631,-0.367114,0.0,0.0
13114,3278.25,30.5011,31.9665,141.89,99.8238,105.209,0.00271842,0.130415,20.9022,657,-0.467355,0.0,0.0
13272,3317.75,31.982,33.0111,143.475,100.141,105.351,0.00309875,0.136097,20.894,655.278,-0.451156,0.0,0.0
13430,3357.25,31.9935,32.8753,143.554,100.378,105.242,0.00290176,0.139519,20.8917,653.506,-0.420838,0.0,0.0
13588,3396.75,32.0932,33.4168,142.254,100.445,105.097,0.00263197,0.140382,20.8925,651.715,-0.402674,0.0,0.0
13746,3436.25,32.6625,33.691,141.203,100.356,105.401,0.00255321,0.141477,20.8888,649.883,-0.436252,0.0,0.0
13904,3475.75,32.886,34.2763,140.084,100.083,104.701,0.00267854,0.144605,20.8833,648.032,-0.401262,0.0,0.0
14062,3515.25,33.0223,34.7021,143.106,99.8326,105.018,0.00265801,0.147355,20.8824,646.09,-0.450421,0.0,0.0
14220,3554.75,32.8044,34.9857,141.49,99.7844,105.089,0.00273878,0.150242,20.8795,644.118,-0.460716,0.0,0.0
14378,3594.25,33.9098,34.9788,140.023,99.9573,105.356,0.00276095,0.153523,20.877,642.096,-0.467829,0.0,0.0
14536,3633.75,32.135,33.5228,139.572,99.8723,105.131,0.00257024,0.157925,20.8706,640.094,-0.456386,0.0,0.0
14694,3673.25,32.6978,33.6917,145.41,100.059,105.34,0.00219163,0.159563,20.8672,638.003,-0.45748,0.0,0.0
14852,3712.75,32.9046,34.3511,140.116,100.361,105.19,,0.160303,,635.971,-0.418003,0.0,0.0
14892,3722.75,32.9826,34.6662,140.252,100.394,105.467,,,,635.45,-0.43841,0.0,0.0

File: Plastic_Laminate_Countertop_Cone_HF50Scalar_220415_R2.csv
LABORATORY,FSRI
TEST IDENT,Countertop_HF50_2
OPERATOR,Dow
MATERIAL,laminate - particle board countertop
ORIENTATION,Horizontal
HEAT FLUX,50
SURF AREA,0.01
C FACTOR,0.0417815
SPEC HOLDER DIFF,-566
SPECIMEN MASS,274.97
SCAN TIME,0.25
O2 DELAY TIME,11
CO DELAY TIME,11
CO2 DELAY TIME,8
FLOW FACTOR,1
SCAN COUNT,14889
TIME TO IGN,22.5
END OF TEST SCAN,14409
END OF TEST TIME,3602.25
TEST STATUS,1
PRE TEST CMT,Dimensions: 101.21 x 100.98 x 40.03 mm; with frame and grid
POST TEST CMT,"A few seconds prior to ignition the laminate inflated, then popped violently, possibly affecting mass data. The flames extinguished within 10 seconds of ignition. The spark ignitor was reinserted, and reignition occurred immediately. Throughout this time, the inflation of the laminate pushed the wire grid upwards, approaching the spark ignitor. Test ended after 60 minutes, per ASTM criteria. "

File: Plastic_Laminate_Countertop_Cone_HF50Scan_220504_R1.csv
Names,Time,Stack TC,Smoke TC,Exh Press,Smoke Comp,Smoke Meas,CO Meter,CO2 Meter,O2 Meter,Sample Mass,Ext Coeff,Start Test,Flame Verif
Chan Gain,,500,500,1,1,1,1,1,1,1,1,1.0,1.0
Offset,,0,0,0.134921,0,0,0,0,0,0,0,0.0,0.0
Gain,,1,1,25.011,13.0391,14.631,1,1,1,1.0009,1.01612,1.0,1.0
Units,sec,C,C,Pa,%,%,%,%,%,g,/m,,
Baseline,,32.8061,33.97,132.553,99.0103,101.658,0.00109404,0.0579748,21.0083,-477.229,-0.235161,,
190,47.25,43.3105,43.2585,123.907,98.4468,104.079,0.00340621,0.323025,20.7176,715.043,-0.495925,0.0,0.0
380,94.75,43.1839,45.4864,130.307,98.9147,102.702,0.00489746,0.143888,20.917,712.17,-0.334943,0.0,0.0
570,142.25,43.6085,45.845,119.179,99.1507,99.3805,0.00504762,0.223018,20.8127,709.678,-0.0206316,0.0,0.0
760,189.75,51.6301,53.4205,123.351,99.179,100.173,0.0051267,0.331149,20.6962,705.044,-0.088892,0.0,0.0
950,237.25,54.9217,58.0514,121.705,99.0942,101.989,0.00608134,0.320248,20.7135,700.059,-0.256684,0.0,0.0
1140,284.75,54.6962,58.5551,119.632,98.8459,103.202,0.00508742,0.289573,20.7487,695.475,-0.384405,0.0,0.0
1330,332.25,55.0615,58.1799,127.107,99.3202,104.712,0.00285773,0.271913,20.7682,691.091,-0.471175,0.0,0.0
1520,379.75,54.9394,58.1066,122.661,99.5924,105.31,0.00208532,0.257921,20.7823,687.038,-0.497567,0.0,0.0
1710,427.25,54.8281,57.6302,121.732,99.4957,105.164,0.00199594,0.251916,20.789,683.364,-0.493897,0.0,0.0
1900,474.75,54.396,57.4579,121.462,99.2036,104.972,0.00170803,0.244037,20.7964,679.841,-0.503775,0.0,0.0
2090,522.25,53.4772,56.1146,121.904,98.512,104.165,0.00153654,0.232021,20.8104,676.518,-0.497358,0.0,0.0
2280,569.75,52.7268,55.3671,119.056,97.9788,103.326,0.00143904,0.219411,20.83,673.395,-0.473613,0.0,0.0
2470,617.25,51.5417,54.1041,123.666,97.8754,102.657,0.00171639,0.208089,20.8375,670.493,-0.425183,0.0,0.0
2660,664.75,50.7552,53.2643,125.391,98.3505,103.766,0.00174242,0.197733,20.8536,667.7,-0.477802,0.0,0.0
2850,712.25,49.5815,51.4928,125.43,98.8232,103.938,0.00172982,0.188907,20.8626,665.208,-0.449817,0.0,0.0
3040,759.75,48.6535,51.0269,126.544,99.0524,104.637,0.00165188,0.184221,20.8687,662.726,-0.488853,0.0,0.0
3230,807.25,48.6698,50.7564,125.865,99.0484,104.128,0.00209296,0.181996,20.8733,660.243,-0.445746,0.0,0.0
3420,854.75,48.4367,50.6897,127.55,98.9104,103.984,0.00199144,0.181149,20.8733,657.771,-0.445864,0.0,0.0
3610,902.25,47.9031,50.4804,125.138,98.6999,104.374,0.00183048,0.179358,20.8757,655.299,-0.498205,0.0,0.0
3800,949.75,47.8404,50.1279,126.889,98.522,102.522,0.00220143,0.176464,20.8772,652.907,-0.354774,0.0,0.0
3990,997.25,47.8968,49.3664,126.456,98.4953,103.711,0.00174721,0.174364,20.8832,650.565,-0.45989,0.0,0.0
4180,1044.75,47.2441,49.0371,125.373,98.52,103.983,0.00202719,0.174343,20.88,648.243,-0.480997,0.0,0.0
4370,1092.25,47.2299,49.4313,128.007,99.0735,103.6,0.00210102,0.173137,20.88,645.921,-0.398198,0.0,0.0
4560,1139.75,47.0395,49.1758,124.263,99.2247,103.748,0.00185678,0.172756,20.8847,643.578,-0.397311,0.0,0.0
4750,1187.25,47.5515,49.0259,124.27,99.1439,104.24,0.00185711,0.173072,20.8868,641.226,-0.446744,0.0,0.0
4940,1234.75,47.0256,49.0898,124.261,99.0218,102.921,0.00221236,0.174176,20.8811,638.824,-0.344271,0.0,0.0
5130,1282.25,47.0638,49.3008,124.431,98.8789,103.083,0.00216269,0.175945,20.8792,636.412,-0.371164,0.0,0.0
5320,1329.75,47.1295,49.0615,126.269,99.2168,103.952,0.00213476,0.17949,20.874,633.98,-0.415578,0.0,0.0
5510,1377.25,47.387,49.7848,122.748,99.5474,104.154,0.00212559,0.183694,20.869,631.558,-0.40317,0.0,0.0
5700,1424.75,47.8781,49.6407,123.766,99.6266,105.089,0.00187216,0.185086,20.8726,629.005,-0.475778,0.0,0.0
5890,1472.25,48.1728,49.8758,123.283,99.3954,104.179,0.00172576,0.187406,20.8712,626.413,-0.418969,0.0,0.0
6080,1519.75,48.7094,50.8718,123.365,99.0464,104.104,0.00184997,0.189716,20.8672,623.801,-0.443937,0.0,0.0
6270,1567.25,48.6476,50.5113,123.982,98.9478,103.943,0.00195402,0.192687,20.8629,621.158,-0.438973,0.0,0.0
6460,1614.75,49.0068,51.0946,120.505,98.7599,103.798,0.00217403,0.200104,20.8558,618.426,-0.443493,0.0,0.0
6650,1662.25,49.7065,51.378,123.364,98.7989,103.626,0.0019673,0.20323,20.8555,615.633,-0.425162,0.0,0.0
6840,1709.75,50.3637,52.2312,126.99,98.7874,104.313,0.00156138,0.209482,20.8467,612.771,-0.485153,0.0,0.0
7030,1757.25,50.8684,53.2239,122.985,98.6338,103.031,0.00203751,0.216268,20.8372,609.818,-0.388769,0.0,0.0
7220,1804.75,51.5056,53.8186,123.03,98.3274,103.789,0.00175485,0.224168,20.8262,606.735,-0.481811,0.0,0.0
7410,1852.25,52.9647,54.816,124.211,97.9593,104.058,0.00179051,0.236473,20.8102,603.563,-0.538333,0.0,0.0
7600,1899.75,53.3964,55.9444,120.36,97.9323,103.393,0.00171934,0.240031,20.8085,600.199,-0.483626,0.0,0.0
7790,1947.25,54.7978,56.3483,119.426,98.173,103.426,0.00213962,0.24404,20.802,596.806,-0.464628,0.0,0.0
7980,1994.75,54.7605,57.1356,127.908,98.6362,103.972,0.0018395,0.24403,20.7996,593.473,-0.469572,0.0,0.0
8170,2042.25,55.0275,55.7983,121.271,98.9151,106.214,0.00195966,0.243596,20.8014,590.19,-0.634589,0.0,0.0
8360,2089.75,55.0319,57.5717,121.255,99.058,104.465,0.00189952,0.245926,20.7968,586.968,-0.473734,0.0,0.0
8550,2137.25,55.4861,58.108,125.221,99.1197,105.144,0.00185787,0.249244,20.7924,583.635,-0.525944,0.0,0.0
8740,2184.75,55.4156,57.9446,122.814,99.0739,104.649,0.00210798,0.243279,20.7992,580.462,-0.487946,0.0,0.0
8930,2232.25,55.3307,57.5126,121.51,98.826,104.232,0.00197238,0.235449,20.8061,577.389,-0.474687,0.0,0.0
9120,2279.75,54.3585,57.1585,120.385,98.4643,102.963,0.00193539,0.227465,20.8169,574.436,-0.398228,0.0,0.0
9310,2327.25,54.1188,56.5155,121.655,98.9565,103.894,0.00179945,0.221068,20.8279,571.634,-0.434009,0.0,0.0
9500,2374.75,53.4199,55.5509,123.27,99.2311,105.141,0.00196984,0.216448,20.831,568.971,-0.515666,0.0,0.0
9690,2422.25,52.5588,54.7466,121.41,98.8085,104.763,0.00186266,0.214931,20.8321,566.359,-0.521625,0.0,0.0
9880,2469.75,52.9399,55.1377,124.173,99.0063,104.288,0.00176586,0.217315,20.8295,563.777,-0.463214,0.0,0.0
10070,2517.25,53.1572,54.8198,123.452,99.2848,105.359,0.00218136,0.218252,20.8277,561.134,-0.529295,0.0,0.0
10260,2564.75,52.8216,54.8676,126.02,99.6493,105.267,0.0017457,0.221111,20.826,558.432,-0.488809,0.0,0.0
10450,2612.25,53.3187,55.6252,126.036,99.6433,105.852,0.0019104,0.22698,20.8198,555.649,-0.538733,0.0,0.0
10640,2659.75,54.1387,56.2763,122.197,99.4698,105.755,0.00209759,0.231836,20.8155,552.737,-0.546141,0.0,0.0
10830,2707.25,54.9791,57.1319,124.275,99.3214,105.001,0.00181435,0.240565,20.8058,549.744,-0.495701,0.0,0.0
11020,2754.75,55.7119,57.9966,127.592,99.1933,105.337,0.00188731,0.255857,20.7872,546.491,-0.535663,0.0,0.0
11210,2802.25,56.9647,59.2227,120.355,99.1503,105.239,0.00177297,0.279326,20.7641,542.988,-0.53121,0.0,0.0
11400,2849.75,59.4391,61.7081,123.733,98.7878,104.509,0.00193018,0.312075,20.7271,539.034,-0.501851,0.0,0.0
11590,2897.25,61.82,64.9372,114.55,98.0644,103.06,0.00252203,0.349417,20.6793,534.48,-0.442848,0.0,0.0
11780,2944.75,66.4503,68.8715,117.815,98.1054,102.085,0.00308632,0.402763,20.611,529.366,-0.354461,0.0,0.0
11970,2992.25,62.3304,66.8591,119.788,98.2371,103.693,0.00223862,0.235809,20.7993,525.372,-0.481756,0.0,0.0
12160,3039.75,54.1893,57.7477,126.208,98.4699,105.102,0.00278136,0.155533,20.8906,523.761,-0.580974,0.0,0.0
12350,3087.25,48.8169,51.3512,128.464,98.9175,103.945,0.00442102,0.126448,20.9287,522.84,-0.441927,0.0,0.0
12540,3134.75,45.7884,47.4068,130.193,99.2052,103.168,0.00531464,0.115912,20.937,522.239,-0.349132,0.0,0.0
12730,3182.25,44.3456,45.4839,127.529,99.2072,103.161,0.00620258,0.112794,20.9395,521.679,-0.348374,0.0,0.0
12920,3229.75,43.838,44.916,132.874,99.1006,103.552,0.00663113,0.110574,20.944,521.148,-0.391653,0.0,0.0
13110,3277.25,43.7855,44.3544,129.828,98.9681,103.843,0.0065475,0.108312,20.9468,520.668,-0.428602,0.0,0.0
13300,3324.75,42.5064,44.7634,129.129,98.8348,104.16,0.00711093,0.109966,20.9469,520.198,-0.467747,0.0,0.0
13490,3372.25,42.403,43.8506,123.432,98.6489,102.972,0.00678842,0.106431,20.9486,519.727,-0.382302,0.0,0.0
13680,3419.75,41.9147,43.4908,128.777,98.5339,102.697,0.00752611,0.106155,20.9503,519.307,-0.368859,0.0,0.0
13870,3467.25,41.7183,43.4655,127.35,98.7309,103.164,0.00738131,0.105049,20.9507,518.896,-0.391503,0.0,0.0
14060,3514.75,41.4119,43.6443,125.392,98.6744,103.324,0.00718305,0.103285,20.9543,518.556,-0.410445,0.0,0.0
14250,3562.25,41.3873,42.8005,125.969,98.6991,103.414,0.00739965,0.103811,20.9533,518.196,-0.415916,0.0,0.0
14440,3609.75,41.4775,42.2364,127.939,99.0341,102.865,0.00758778,0.104247,20.9552,517.765,-0.338286,0.0,0.0
14630,3657.25,41.1247,42.0175,127.942,99.13,103.716,0.00784129,0.10391,20.9535,517.345,-0.403099,0.0,0.0
14820,3704.75,40.9099,42.2523,125.305,99.2327,104.079,0.00772521,0.10187,20.9576,516.955,-0.425015,0.0,0.0
15010,3752.25,40.5395,42.2173,127.518,99.2768,103.021,0.00773761,0.1092,20.9478,516.584,-0.329998,0.0,0.0
15200,3799.75,40.4528,42.1899,129.776,99.2629,103.654,0.00712042,0.10382,20.9534,516.214,-0.385821,0.0,0.0
15390,3847.25,40.6502,42.1447,132.707,99.2156,103.769,0.00717708,0.103315,20.9538,515.894,-0.399936,0.0,0.0
15580,3894.75,40.0865,42.729,126.429,99.1706,103.242,0.00709057,0.103464,20.9509,515.573,-0.358605,0.0,0.0
15770,3942.25,40.4639,42.0731,131.514,98.8718,102.863,0.00709623,0.102308,20.954,515.173,-0.352717,0.0,0.0
15960,3989.75,40.821,42.0059,131.251,98.9004,102.529,0.00704088,0.102056,20.9568,514.823,-0.321186,0.0,0.0
16150,4037.25,40.5764,42.1634,132.209,99.0043,102.878,0.00734104,0.101807,20.9552,514.392,-0.342134,0.0,0.0
16340,4084.75,40.6144,41.7012,129.445,99.0763,102.892,0.00703226,0.102667,20.956,514.032,-0.336812,0.0,0.0
16530,4132.25,40.6892,42.1271,128.29,99.1475,102.649,0.00698379,0.100572,20.9585,513.702,-0.309378,0.0,0.0
16720,4179.75,39.9288,41.6606,129.375,99.2136,103.038,0.00660832,0.0999264,20.9601,513.391,-0.337109,0.0,0.0
16910,4227.25,40.0849,42.1471,127.347,99.2737,103.774,0.00669922,0.0990952,20.9602,513.031,-0.395217,0.0,0.0
17100,4274.75,40.4419,41.7596,129.483,99.2884,102.167,0.00688753,0.100969,20.9592,512.731,-0.254752,0.0,0.0
17290,4322.25,40.2605,41.6215,128.801,99.2876,104.013,0.00674395,0.101926,20.9578,512.381,-0.41446,0.0,0.0
17480,4369.75,40.3632,41.5293,128.79,99.2633,103.449,0.00661622,0.101817,20.9558,512.03,-0.368106,0.0,0.0
17670,4417.25,39.4561,41.2955,127.755,99.2016,103.604,0.00620455,0.100502,20.9582,511.65,-0.387062,0.0,0.0
17860,4464.75,39.5242,41.3099,129.071,99.0035,102.948,0.00651362,0.0990689,20.9614,511.3,-0.348199,0.0,0.0
18050,4512.25,39.4302,40.196,128.519,98.945,103.721,,,,511.029,-0.420212,0.0,0.0
18073,4518,39.723,41.0858,130.465,98.9549,102.892,,,,510.939,-0.347737,0.0,0.0

File: Plastic_Laminate_Countertop_Cone_HF75Scalar_220504_R2.csv
LABORATORY,FSRI
TEST IDENT,Countertop_HF75_2
OPERATOR,Dow
MATERIAL,laminate over particle board countertop
ORIENTATION,Horizontal
HEAT FLUX,75
SURF AREA,0.01
C FACTOR,0.043097
SPEC HOLDER DIFF,-566
SPECIMEN MASS,257.05
SCAN TIME,0.25
O2 DELAY TIME,11
CO DELAY TIME,11
CO2 DELAY TIME,8
FLOW FACTOR,1
SCAN COUNT,14883
TIME TO IGN,11.5
END OF TEST SCAN,14403
END OF TEST TIME,3600.75
TEST STATUS,1
PRE TEST CMT,Dimensions: 98.28 x 98.14 x 39.53 mm; with frame and grid