Folder: fsri_materials_database/01_Data/Plastic_Laminate_Counterop/Cone (part 2)

File: Plastic_Laminate_Countertop_Cone_HF75Scan_220504_R2.csv
Names,Time,Stack TC,Smoke TC,Exh Press,Smoke Comp,Smoke Meas,CO Meter,CO2 Meter,O2 Meter,Sample Mass,Ext Coeff,Start Test,Flame Verif
Chan Gain,,500,500,1,1,1,1,1,1,1,1,1.0,1.0
Offset,,0,0,0.136848,0,0,0,0,0,0,0,0.0,0.0
Gain,,1,1,25.011,13.1423,14.7137,1,1,1,1.0009,1.01396,1.0,1.0
Units,sec,C,C,Pa,%,%,%,%,%,g,/m,,
Baseline,,42.6108,44.379,128.38,100.611,108.968,0.00072945,0.0466922,20.9846,-445.793,-0.709577,,
157,39,60.2351,58.6337,115.199,100.838,105.023,0.00642665,0.42392,20.5555,739.614,-0.361671,0.0,0.0
314,78.25,58.7615,61.7737,117.286,100.615,104.72,0.00362197,0.22732,20.7641,736.471,-0.355691,0.0,0.0
471,117.5,64.2317,66.457,114.761,100.104,99.6817,0.00753882,0.371801,20.5957,732.437,0.0375704,0.0,0.0
628,156.75,70.5619,73.7169,114.516,100.854,103.213,0.0109733,0.423764,20.5577,726.992,-0.205665,0.0,0.0
785,196,72.5867,76.3409,112.495,100.492,107.079,0.00757653,0.366956,20.6229,721.648,-0.564732,0.0,0.0
942,235.25,72.3219,77.1364,119.785,101.155,109.219,0.00505325,0.33367,20.6548,716.733,-0.682253,0.0,0.0
1099,274.5,71.7532,76.4828,114.762,100.415,108.271,0.00366412,0.32122,20.6667,712.279,-0.670028,0.0,0.0
1256,313.75,71.8872,76.1065,115.039,100.158,109.1,0.00310388,0.311584,20.6762,708.286,-0.760556,0.0,0.0
1413,353,71.8635,75.9465,117.366,100.361,109.458,0.00278034,0.298263,20.6909,704.542,-0.771752,0.0,0.0
1570,392.25,71.1058,75.6715,117.43,100.534,110.494,0.00280164,0.280477,20.7107,701.029,-0.840261,0.0,0.0
1727,431.5,70.2739,74.4809,117.337,101.14,111.435,0.00310748,0.262111,20.7282,697.736,-0.862174,0.0,0.0
1884,470.75,69.3709,73.3306,115.677,99.6802,110.421,0.00306133,0.244767,20.7515,694.723,-0.910162,0.0,0.0
2041,510,68.278,71.9817,115.305,100.692,111.278,0.00316944,0.233723,20.7643,691.801,-0.889177,0.0,0.0
2198,549.25,67.8128,70.9124,119.878,100.7,111.332,0.00391148,0.226871,20.7691,689.058,-0.892668,0.0,0.0
2355,588.5,66.7251,70.4332,121.134,101.208,111.544,0.00392051,0.219971,20.7779,686.276,-0.864884,0.0,0.0
2512,627.75,66.7967,70.0057,117.8,99.6401,109.861,0.00403902,0.216382,20.7818,683.644,-0.868524,0.0,0.0
2669,667,66.1647,69.3684,120.963,100.794,111.858,0.00442366,0.21274,20.7864,681.061,-0.926326,0.0,0.0
2826,706.25,65.9834,69.2344,119.806,100.732,111.393,0.00454475,0.210461,20.7894,678.529,-0.894783,0.0,0.0
2983,745.5,65.6543,68.8924,115.898,101.217,111.82,0.0048418,0.209862,20.7868,675.957,-0.886102,0.0,0.0
3140,784.75,66.6409,68.7392,118.98,99.6605,110.822,0.0049068,0.209356,20.7882,673.344,-0.944193,0.0,0.0
3297,824,65.7777,68.4755,115.224,100.834,110.776,0.00543292,0.2136,20.7821,670.832,-0.836357,0.0,0.0
3454,863.25,66.5676,68.9625,121.882,100.565,110.706,0.0057755,0.217157,20.7825,668.27,-0.854538,0.0,0.0
3611,902.5,66.5286,69.2905,117.163,101.017,112.001,0.00547315,0.217248,20.7805,665.687,-0.918088,0.0,0.0
3768,941.75,67.3049,69.5291,121.267,100.186,111.003,0.00599746,0.22129,20.7765,663.045,-0.911937,0.0,0.0
3925,981,67.4996,70.1406,119.493,100.073,110.928,0.00591866,0.222141,20.7749,660.413,-0.915973,0.0,0.0
4082,1020.25,67.2329,70.4859,121.618,100.853,111.802,0.00579538,0.223655,20.7735,657.72,-0.916732,0.0,0.0
4239,1059.5,67.2251,69.9205,115.518,100.137,111.03,0.00602758,0.224703,20.7738,655.148,-0.91844,0.0,0.0
4396,1098.75,67.9289,70.2819,116.126,100.575,111.547,0.00630944,0.224948,20.7724,652.466,-0.920929,0.0,0.0
4553,1138,67.945,70.6663,121.644,100.94,111.552,0.00600416,0.224974,20.7715,649.803,-0.88914,0.0,0.0
4710,1177.25,67.6653,70.6804,119.486,100.65,112.13,0.00802622,0.228486,20.7651,647.281,-0.960687,0.0,0.0
4867,1216.5,67.4417,70.7857,120.016,99.7315,110.051,0.00914371,0.229945,20.7587,644.669,-0.875766,0.0,0.0
5024,1255.75,68.2272,70.9177,119.226,100.731,111.708,0.00929904,0.231396,20.7574,641.986,-0.920058,0.0,0.0
5181,1295,68.8061,71.8513,119.974,100.912,111.988,0.00723013,0.22897,20.7679,639.354,-0.926276,0.0,0.0
5338,1334.25,68.1083,71.1935,121.458,100.686,111.689,0.00766324,0.234325,20.7597,636.701,-0.922381,0.0,0.0
5495,1373.5,68.7444,71.5974,118.413,100.197,110.998,0.0068013,0.234008,20.7601,633.959,-0.910508,0.0,0.0
5652,1412.75,68.5406,71.6549,116.837,100.638,111.523,0.00727074,0.23973,20.7539,631.286,-0.913393,0.0,0.0
5809,1452,69.0505,72.119,120.719,100.366,111.154,0.00906562,0.24633,20.7434,628.504,-0.908081,0.0,0.0
5966,1491.25,69.396,72.3264,116.984,100.599,110.924,0.00839784,0.251293,20.7378,625.621,-0.869038,0.0,0.0
6123,1530.5,70.277,73.402,117.892,100.826,111.777,0.00820528,0.256682,20.7323,622.739,-0.917137,0.0,0.0
6280,1569.75,71.1985,73.2921,117.283,100.897,111.645,0.00700737,0.258954,20.7283,619.746,-0.900296,0.0,0.0
6437,1609,71.5685,74.759,116.437,101.02,112.065,0.0060697,0.262513,20.7262,616.794,-0.922868,0.0,0.0
6594,1648.25,71.5519,74.8671,116.776,101.12,112.263,0.00596275,0.264978,20.7282,613.741,-0.929746,0.0,0.0
6751,1687.5,71.7707,75.099,118.785,101.234,111.535,0.00496432,0.266181,20.7282,610.678,-0.861912,0.0,0.0
6908,1726.75,72.1569,75.2137,119.141,101.187,112.398,0.00452851,0.26534,20.7308,607.585,-0.934594,0.0,0.0
7065,1766,72.9407,76.3874,115.495,101.24,111.989,0.00434991,0.270809,20.7267,604.503,-0.897512,0.0,0.0
7222,1805.25,73.7936,76.7605,115.949,101.251,112.45,0.00443149,0.27829,20.7129,601.35,-0.933076,0.0,0.0
7379,1844.5,73.9268,77.1019,118.185,100.336,109.992,0.00474065,0.281534,20.7059,598.257,-0.817269,0.0,0.0
7536,1883.75,74.7648,77.9295,116.676,100.154,110.819,0.00463773,0.286754,20.7034,595.074,-0.900022,0.0,0.0
7693,1923,74.9339,78.6998,114.49,100.529,111.024,0.00399054,0.288375,20.7012,591.951,-0.8832,0.0,0.0
7850,1962.25,75.3226,78.4608,117.504,101.212,111.577,0.0036114,0.293568,20.6962,588.868,-0.867182,0.0,0.0
8007,2001.5,75.7318,78.7658,119.179,99.9882,110.083,0.00369763,0.296383,20.6954,585.435,-0.855479,0.0,0.0
8164,2040.75,75.537,79.3556,115.959,100.525,110.224,0.00394534,0.30433,20.6858,582.082,-0.819185,0.0,0.0
8321,2080,76.339,79.9947,116.596,100.499,109.431,0.00347235,0.309958,20.68,578.729,-0.757344,0.0,0.0
8478,2119.25,76.4006,80.2411,113.094,101,111.065,0.00383686,0.314332,20.6733,575.336,-0.844946,0.0,0.0
8635,2158.5,76.9812,80.8173,116.262,100.762,110.293,0.00353052,0.315635,20.6717,571.843,-0.803886,0.0,0.0
8792,2197.75,76.9226,80.6018,116.325,100.65,109.043,0.00355652,0.316287,20.6696,568.39,-0.712455,0.0,0.0
8949,2237,76.3731,80.4043,116.504,99.8374,109.244,0.00323724,0.30336,20.6863,565.007,-0.800874,0.0,0.0
9106,2276.25,75.6201,79.6103,118.48,100.376,109.013,0.00309008,0.291231,20.6957,561.854,-0.734133,0.0,0.0
9263,2315.5,74.9044,78.9197,119.745,100.295,109.159,0.00299811,0.277875,20.7133,558.812,-0.753286,0.0,0.0
9420,2354.75,73.6477,77.662,113.449,101.085,110.313,0.00300873,0.262454,20.7278,555.819,-0.777027,0.0,0.0
9577,2394,72.3888,75.8846,118.419,99.9894,108.67,0.00311277,0.24189,20.7486,553.417,-0.74046,0.0,0.0
9734,2433.25,70.2024,73.9491,121.544,99.6116,109.298,0.00267942,0.207436,20.7872,551.275,-0.8254,0.0,0.0
9891,2472.5,66.2285,70.4269,122.509,100.943,112.074,0.00297298,0.139551,20.8612,550.174,-0.930399,0.0,0.0
10048,2511.75,63.1082,66.4414,120.977,100.579,110.195,0.00337135,0.117336,20.8905,549.383,-0.812183,0.0,0.0
10205,2551,60.6018,63.9313,123.571,100.374,111.183,0.00341632,0.110105,20.9014,548.873,-0.909633,0.0,0.0
10362,2590.25,60.0943,62.8981,122.846,99.0898,110.057,0.00392653,0.107162,20.9033,548.482,-0.933689,0.0,0.0
10519,2629.5,59.2261,61.2269,125.718,100.791,111.097,0.00368691,0.103464,20.9088,547.922,-0.865956,0.0,0.0
10676,2668.75,58.3374,60.9023,121.792,100.07,110.968,0.00351742,0.105491,20.9074,547.391,-0.919426,0.0,0.0
10833,2708,58.3651,60.4465,120.609,99.6461,109.062,0.0034127,0.10208,20.9125,546.991,-0.803116,0.0,0.0
10990,2747.25,58.2296,60.4528,121.717,100.187,111.204,0.00372779,0.101743,20.9128,546.771,-0.927934,0.0,0.0
11147,2786.5,57.9907,60.2011,121.874,98.9827,109.065,0.00367301,0.100599,20.9136,546.19,-0.862746,0.0,0.0
11304,2825.75,57.313,59.7837,123.253,99.9862,110.915,0.00386555,0.0992635,20.9152,545.77,-0.922596,0.0,0.0
11461,2865,57.2952,60.1965,122.591,100.758,111.523,0.00384525,0.0984784,20.9178,545.45,-0.902908,0.0,0.0
11618,2904.25,57.1198,59.5229,120.339,99.981,110.174,0.00353218,0.0987703,20.9166,544.959,-0.863483,0.0,0.0
11775,2943.5,57.4748,59.9307,124.032,100.24,109.832,0.00347568,0.0997515,20.9176,544.809,-0.812763,0.0,0.0
11932,2982.75,57.236,60.0227,121.406,99.705,110.467,0.00392232,0.0980013,20.92,544.519,-0.911668,0.0,0.0
12089,3022,56.8949,59.4241,118.409,100.047,108.995,0.00340634,0.0973799,20.9207,544.118,-0.761929,0.0,0.0
12246,3061.25,56.8772,59.4198,125.327,99.387,108.89,0.00367599,0.0970563,20.918,543.868,-0.812236,0.0,0.0
12403,3100.5,57.1107,59.1541,123.558,98.7577,108.946,0.00369926,0.0967755,20.9207,543.288,-0.873278,0.0,0.0
12560,3139.75,56.7988,59.2028,122.835,99.7046,109.017,0.00426052,0.0982854,20.9205,543.127,-0.794192,0.0,0.0
12717,3179,56.5012,59.3395,120.372,100.628,110.641,0.00397142,0.0957797,20.9205,542.577,-0.843702,0.0,0.0
12874,3218.25,56.6861,59.6213,123.099,100.101,109.43,0.00358537,0.0979219,20.9216,542.507,-0.792552,0.0,0.0
13031,3257.5,56.2645,59.1624,122.531,100.098,108.615,0.00353851,0.0996211,20.9179,542.107,-0.726313,0.0,0.0
13188,3296.75,56.4175,59.1587,118.742,100.109,110.56,0.0038403,0.0987724,20.9194,541.736,-0.883194,0.0,0.0
13345,3336,56.2838,59.0445,128.017,99.3778,107.701,0.00364962,0.0942305,20.9272,541.376,-0.71537,0.0,0.0
13502,3375.25,56.3247,58.8757,124.062,99.8005,108.906,0.00373291,0.0942578,20.9276,541.096,-0.776554,0.0,0.0
13659,3414.5,55.7942,58.7357,120.762,99.707,109.049,0.00349768,0.0940121,20.9279,540.835,-0.796577,0.0,0.0
13816,3453.75,56.2159,58.6681,122.751,99.8631,108.783,0.00323466,0.0932412,20.9266,540.495,-0.761,0.0,0.0
13973,3493,55.9234,58.6518,124.971,100.197,108.743,0.00336868,0.0950631,20.9237,540.135,-0.727986,0.0,0.0
14130,3532.25,55.8289,58.0083,126.641,99.3473,107.976,0.00349544,0.0937276,20.9268,539.824,-0.7408,0.0,0.0
14287,3571.5,56.1143,58.5885,122.019,99.409,107.662,0.00318745,0.0926012,20.9303,539.574,-0.70938,0.0,0.0
14444,3610.75,54.0001,56.3762,124.172,98.9169,107.469,0.00367884,0.0923641,20.9305,539.264,-0.737518,0.0,0.0
14601,3650,54.4397,56.8802,126.722,99.9966,108.32,0.00314785,0.0906776,20.9311,538.954,-0.711106,0.0,0.0
14758,3689.25,53.8455,57.1772,123.004,98.8885,108.371,0.00336101,0.0914494,20.9314,538.643,-0.814426,0.0,0.0
14883,3720.5,54.3072,57.1774,121.609,99.401,108.032,,,,538.513,-0.740576,0.0,0.0