Folder: fsri_materials_database/01_Data/Bamboo_Rug_A/STA/N2/10K_min

Note: 01_Data/README.md
# Materials and Products Database
## 01_Data

Raw data generated from each apparatus are included here in plain-text format. The data is organized first by material, next by the short name of test apparatus used, and where applicable additional filtering by test settings.

### material.json

Each material directory contains a json file of the same name as the material. This file links the data stored in the repository as well as data and graphs produced by the accompanying scripts (__02_Scripts__) to the respective landing page for the material on the front-end website.

File: Bamboo_Rug_A_STA_N2_10KData_220120_R1.csv
##Temp./Â°C,Time/min,Mass loss(subtr.)/mg,DSC(subtr.)/(mW/mg),Sensit./(uV/mW)
49.248,10.00917,-0.00307,0.01057916,1.07447
52.548,11.33664,-0.00158703,0.10566,1.07424
55.848,11.7995,-0.004504432,0.15485,1.07397
59.148,12.19793,-0.003503359,0.1831,1.07369
62.448,12.57211,-0.004137631,0.20228,1.07337
65.748,12.93438,-0.004169573,0.21438,1.07303
69.048,13.2905,-0.00291132,0.22549,1.07267
72.348,13.63984,-0.004157523,0.23666,1.07228
75.648,13.98604,-0.004064659,0.24594,1.07186
78.948,14.32934,-0.00536742,0.25155,1.07142
82.248,14.66954,-0.005368604,0.25818,1.07096
85.548,15.0053,-0.007619459,0.26102,1.07046
88.848,15.33886,-0.008989514,0.25984,1.06995
92.148,15.6686,-0.009972367,0.25628,1.06941
95.448,15.9987,-0.01067159,0.2536,1.06884
98.748,16.3253,-0.0113123,0.2486,1.06825
102.048,16.64988,-0.01261014,0.24723,1.06763
105.348,16.97459,-0.01162172,0.24991,1.06699
108.648,17.29772,-0.01128967,0.25168,1.06633
111.948,17.62044,-0.0122822,0.2498,1.06564
115.248,17.94334,-0.01271396,0.24911,1.06492
118.548,18.26574,-0.01222988,0.25128,1.06418
121.848,18.58737,-0.01393003,0.25465,1.06342
125.148,18.90899,-0.01260986,0.25308,1.06263
128.448,19.22966,-0.01391623,0.25645,1.06182
131.748,19.55066,-0.01471455,0.26013,1.06098
135.048,19.8702,-0.01392117,0.26406,1.06012
138.348,20.18895,-0.01524,0.26683,1.05924
141.648,20.50685,-0.01524,0.26846,1.05833
144.948,20.8254,-0.01655987,0.27211,1.0574
148.248,21.143,-0.01515318,0.27406,1.05644
151.548,21.46079,-0.01754032,0.27512,1.05546
154.848,21.77874,-0.01821,0.27864,1.05446
158.148,22.09577,-0.01656,0.28274,1.05343
161.448,22.41318,-0.01776046,0.28714,1.05238
164.748,22.72983,-0.01908065,0.29097,1.0513
168.048,23.0459,-0.02172032,0.29696,1.05021
171.348,23.3628,-0.02107017,0.30013,1.04909
174.648,23.6796,-0.02368,0.3057,1.04794
177.948,23.9959,-0.02599,0.31146,1.04678
181.248,24.3121,-0.02731,0.31478,1.04559
184.548,24.62726,-0.02756031,0.32056,1.04437
187.848,24.94293,-0.03300995,0.32515,1.04314
191.148,25.25783,-0.03300705,0.33017,1.04188
194.448,25.57216,-0.03827806,0.3345,1.0406
197.748,25.88706,-0.0422192,0.33813,1.0393
201.048,26.20315,-0.04616961,0.34345,1.03797
204.348,26.5182,-0.05011668,0.34852,1.03663
207.648,26.83411,-0.05603905,0.3544,1.03526
210.948,27.1491,-0.05965813,0.36115,1.03387
214.248,27.46381,-0.06598344,0.36654,1.03245
217.548,27.77856,-0.07089076,0.3676,1.03102
220.848,28.09354,-0.07801562,0.35989,1.02956
224.148,28.40819,-0.08996137,0.35951,1.02808
227.448,28.7233,-0.09431966,0.35941,1.02659
230.748,29.038,-0.10411,0.35982,1.02507
234.048,29.35241,-0.11344,0.36236,1.02352
237.348,29.6676,-0.12331,0.36368,1.02196
240.648,29.9832,-0.13584,0.36336,1.02038
243.948,30.29795,-0.14806,0.3688,1.01878
247.248,30.6133,-0.1627,0.37774,1.01715
250.548,30.92796,-0.17789,0.38542,1.01551
253.848,31.243,-0.1966,0.38849,1.01384
257.148,31.55824,-0.21736,0.36615,1.01216
260.448,31.87333,-0.24155,0.36239,1.01045
263.748,32.18809,-0.26882,0.36142,1.00872
267.048,32.5035,-0.30001,0.35842,1.00698
270.348,32.81864,-0.3323,0.35369,1.00521
273.648,33.13456,-0.37034,0.35012,1.00343
276.948,33.45033,-0.41218,0.34376,1.00162
280.248,33.76607,-0.45752,0.34007,0.9998
283.548,34.0818,-0.50715,0.33212,0.99796
286.848,34.39728,-0.56099,0.3278,0.9961
290.148,34.71284,-0.61741,0.32542,0.99421
293.448,35.02837,-0.67723,0.32384,0.99232
296.748,35.34415,-0.74115,0.32217,0.9904
300.048,35.66084,-0.80746,0.32151,0.98846
303.348,35.97695,-0.87624,0.32228,0.98651
306.648,36.2941,-0.94496,0.32127,0.98453
309.948,36.61095,-1.01163,0.32377,0.98254
313.248,36.92754,-1.08025,0.32898,0.98053
316.548,37.24426,-1.14865,0.33707,0.97851
319.848,37.5618,-1.21556,0.34439,0.97646
323.148,37.87898,-1.28404,0.34979,0.9744
326.448,38.19744,-1.3536,0.36028,0.97232
329.748,38.51567,-1.42276,0.37536,0.97022
333.048,38.8339,-1.49892,0.39526,0.96811
336.348,39.15146,-1.57755,0.41588,0.96598
339.648,39.46929,-1.66133,0.44798,0.96383
342.948,39.78719,-1.75631,0.48393,0.96167
346.248,40.10557,-1.86264,0.52119,0.95949
349.548,40.42459,-1.98186,0.56799,0.95729
352.848,40.74414,-2.1239,0.6078,0.95508
356.148,41.06372,-2.28129,0.60233,0.95285
359.448,41.3825,-2.43202,0.48866,0.95061
362.748,41.70093,-2.54869,0.31861,0.94835
366.048,42.01941,-2.62021,0.18135,0.94607
369.348,42.338,-2.66294,0.10184,0.94378
372.648,42.6575,-2.6869,0.05818389,0.94147
375.948,42.9775,-2.70478,0.03539756,0.93915
379.248,43.29782,-2.71982,0.01905128,0.93682
382.548,43.61825,-2.73306,0.008429507,0.93447
385.848,43.93954,-2.74514,-0.00168644,0.9321
389.148,44.26211,-2.75529,-0.009436297,0.92972
392.448,44.5842,-2.76626,-0.01978219,0.92733
395.748,44.90563,-2.77604,-0.02686349,0.92492
399.048,45.2262,-2.78571,-0.03403318,0.9225
402.348,45.54606,-2.79555,-0.0402921,0.92006
405.648,45.8668,-2.80572,-0.04524495,0.91761
408.948,46.18752,-2.816,-0.0505977,0.91515
412.248,46.5092,-2.82364,-0.0572102,0.91267
415.548,46.83143,-2.83262,-0.06029386,0.91018
418.848,47.15401,-2.84294,-0.06365921,0.90768
422.148,47.47817,-2.85093,-0.0647788,0.90516
425.448,47.8025,-2.86,-0.06560576,0.90264
428.748,48.12617,-2.8665,-0.06365757,0.9001
432.048,48.4505,-2.87476,-0.06295001,0.89754
435.348,48.77455,-2.88184,-0.06190936,0.89498
438.648,49.09851,-2.89057,-0.05849903,0.8924
441.948,49.42215,-2.8966,-0.05579952,0.88981
445.248,49.74527,-2.90318,-0.05180867,0.88721
448.548,50.06905,-2.9104,-0.04615017,0.8846
451.848,50.39348,-2.91572,-0.04455577,0.88198
455.148,50.71888,-2.92225,-0.04508367,0.87934
458.448,51.0447,-2.92686,-0.04248981,0.8767
461.748,51.3715,-2.93346,-0.03837392,0.87404
465.048,51.69815,-2.93739,-0.03741329,0.87137
468.348,52.0244,-2.94403,-0.03264957,0.86869
471.648,52.34964,-2.95,-0.03204562,0.86601
474.948,52.67484,-2.95365,-0.02899082,0.86331
478.248,52.9999,-2.9579,-0.02151902,0.8606
481.548,53.32532,-2.9635,-0.01412495,0.85788
484.848,53.6507,-2.96712,-0.00919864,0.85515
488.148,53.97596,-2.97107,0.0015146,0.85241
491.448,54.30197,-2.97428,0.002084749,0.84967
494.748,54.62784,-2.97962,0.01256347,0.84691
498.048,54.9533,-2.98154,0.01234366,0.84414
501.348,55.27904,-2.98598,0.01259471,0.84137
504.648,55.60524,-2.98997,0.01108483,0.83859
507.948,55.9312,-2.99369,0.01645332,0.83579
511.248,56.25855,-2.99652,0.01523752,0.83299
514.548,56.5866,-2.99962,0.01293182,0.83018
517.848,56.91556,-3.00167,0.0080676,0.82737
521.148,57.2441,-3.00556,-0.01185376,0.82454
524.448,57.57201,-3.00826,-0.02668607,0.82171
527.748,57.9005,-3.01049,-0.03242537,0.81887
531.048,58.22849,-3.0122,-0.0374452,0.81602
534.348,58.55611,-3.01713,-0.04377323,0.81316
537.648,58.88357,-3.01924,-0.04466662,0.8103
540.948,59.21115,-3.02101,-0.05006946,0.80743
544.248,59.53912,-3.0224,-0.05317807,0.80456
547.548,59.86765,-3.02787,-0.0580537,0.80167
550.848,60.1963,-3.03094,-0.06173678,0.79878
554.148,60.52489,-3.03389,-0.05613909,0.79589
557.448,60.8538,-3.03537,-0.06252498,0.79298
560.748,61.1826,-3.0394,-0.06848305,0.79008
564.048,61.5118,-3.0394,-0.07387065,0.78716
567.348,61.8408,-3.04433,-0.07486317,0.78424
570.648,62.17038,-3.04696,-0.07517244,0.78132
573.948,62.49954,-3.04795,-0.07722144,0.77839
577.248,62.8287,-3.05059,-0.08003344,0.77545
580.548,63.1584,-3.05322,-0.0822485,0.77251
583.848,63.4887,-3.05454,-0.0847259,0.76956
587.148,63.81909,-3.05454,-0.0862199,0.76661
590.448,64.14978,-3.05717,-0.08241641,0.76365
593.748,64.47985,-3.0598,-0.08407386,0.76069
597.048,64.81008,-3.06009,-0.08791369,0.75773
600.348,65.14022,-3.06276,-0.08238794,0.75476
603.648,65.4697,-3.06397,-0.08695753,0.75178
606.948,65.80005,-3.06402,-0.08572374,0.74881
610.248,66.13084,-3.06792,-0.08537014,0.74583
613.548,66.46136,-3.07055,-0.08240197,0.74284
616.848,66.79254,-3.07219,-0.07623236,0.73985
620.148,67.12285,-3.07482,-0.07704835,0.73686
623.448,67.45396,-3.07515,-0.07716963,0.73387
626.748,67.78446,-3.07777,-0.07919358,0.73087
630.048,68.1152,-3.0782,-0.08275734,0.72787
633.348,68.44666,-3.0813,-0.0782755,0.72487
636.648,68.7774,-3.08272,-0.07876091,0.72186
639.948,69.1095,-3.08305,-0.08032885,0.71885
643.248,69.44201,-3.08503,-0.0844926,0.71584
646.548,69.77404,-3.0855,-0.08215592,0.71283
649.848,70.10565,-3.08767,-0.09075748,0.70981
653.148,70.43754,-3.08635,-0.0927029,0.7068
656.448,70.76911,-3.0893,-0.09663141,0.70378
659.748,71.10177,-3.08931,-0.10052,0.70076
663.048,71.43315,-3.09267,-0.1005,0.69774
666.348,71.76339,-3.09293,-0.10257,0.69471
669.648,72.0946,-3.09457,-0.10859,0.69169
672.948,72.42532,-3.09457,-0.11278,0.68866
676.248,72.75779,-3.09685,-0.11718,0.68564
679.548,73.09104,-3.09744,-0.11924,0.68261
682.848,73.42368,-3.09832,-0.12283,0.67958
686.148,73.75731,-3.1007,-0.1302,0.67656
689.448,74.09106,-3.10135,-0.13409,0.67353
692.748,74.4239,-3.10502,-0.14032,0.6705
696.048,74.75721,-3.10366,-0.14681,0.66747
699.348,75.09076,-3.10401,-0.15218,0.66444
702.648,75.4238,-3.10663,-0.16024,0.66141
705.948,75.7568,-3.10567,-0.16603,0.65839
709.248,76.08957,-3.1062,-0.17229,0.65536
712.548,76.42195,-3.10512,-0.17409,0.65233
715.848,76.75465,-3.10779,-0.18139,0.6493
719.148,77.08779,-3.10916,-0.18733,0.64628
722.448,77.42186,-3.10905,-0.19256,0.64325
725.748,77.75623,-3.11014,-0.20259,0.64023
729.048,78.09084,-3.1108,-0.20737,0.63721
732.348,78.4254,-3.11147,-0.21584,0.63419
735.648,78.75958,-3.11179,-0.21705,0.63117
738.948,79.09345,-3.11212,-0.21977,0.62815
742.248,79.42742,-3.11344,-0.22552,0.62513
745.548,79.76141,-3.11454,-0.22996,0.62212
748.848,80.0947,-3.11377,-0.2337,0.61911
752.148,80.42836,-3.11409,-0.23854,0.6161
755.448,80.76222,-3.11736,-0.24241,0.61309
758.748,81.09697,-3.11706,-0.24711,0.61008
762.048,81.4324,-3.11837,-0.24947,0.60708
765.348,81.7671,-3.11969,-0.2554,0.60408
768.648,82.1018,-3.12002,-0.26107,0.60108
771.948,82.43688,-3.12177,-0.26084,0.59808
775.248,82.7714,-3.12276,-0.27106,0.59509
778.548,83.10722,-3.12243,-0.27071,0.5921
781.848,83.44317,-3.12242,-0.27456,0.58911
785.148,83.7795,-3.12375,-0.27867,0.58613
788.448,84.11553,-3.12507,-0.28111,0.58315
791.748,84.45103,-3.12408,-0.28348,0.58017
795.048,84.78641,-3.12671,-0.29105,0.5772
797.148,84.9991,-3.12506,-0.28936,0.5753