Folder: fsri_materials_database/01_Data/Bamboo_Rug_A/STA/N2/30K_min

Note: 01_Data/README.md
# Materials and Products Database
## 01_Data

Raw data generated from each apparatus are included here in plain-text format. The data is organized first by material, next by the short name of test apparatus used, and where applicable additional filtering by test settings.

### material.json

Each material directory contains a json file of the same name as the material. This file links the data stored in the repository as well as data and graphs produced by the accompanying scripts (__02_Scripts__) to the respective landing page for the material on the front-end website.

File: Bamboo_Rug_A_STA_N2_30KData_220121_R1.csv
##Temp./Â°C,Time/min,Mass loss(subtr.2)/mg,DSC(subtr.2)/(mW/mg),Sensit./(uV/mW)
48.62,10.01,-0.01119,-0.00792532,1.06962
51.72,10.87018,-0.01063722,0.08672566,1.06934
54.82,11.1007,-0.01415204,0.15571,1.06903
57.92,11.27747,-0.01347758,0.20657,1.0687
61.02,11.4298,-0.01349387,0.25171,1.06833
64.12,11.568,-0.01331748,0.28661,1.06794
67.22,11.69716,-0.0135331,0.31663,1.06753
70.32,11.8208,-0.01402286,0.34533,1.06709
73.42,11.94008,-0.0129371,0.36669,1.06662
76.52,12.0556,-0.01319257,0.3894,1.06612
79.62,12.16963,-0.01438829,0.40722,1.0656
82.72,12.28115,-0.01417294,0.42564,1.06505
85.82,12.3912,-0.01684457,0.43949,1.06448
88.92,12.4999,-0.01634241,0.45236,1.06388
92.02,12.60708,-0.01652195,0.46794,1.06326
95.12,12.71354,-0.01776092,0.47664,1.06261
98.22,12.81917,-0.01908996,0.48276,1.06194
101.32,12.92427,-0.01887998,0.48856,1.06124
104.42,13.029,-0.01886815,0.49408,1.06051
107.52,13.1337,-0.02051672,0.49607,1.05976
110.62,13.23802,-0.0205099,0.49691,1.05899
113.72,13.342,-0.02247887,0.49771,1.05819
116.82,13.4458,-0.02210317,0.49692,1.05736
119.92,13.5486,-0.02250202,0.49738,1.05651
123.02,13.652,-0.02112911,0.49878,1.05564
126.12,13.75448,-0.02248003,0.49795,1.05475
129.22,13.85625,-0.02248188,0.5007,1.05382
132.32,13.95786,-0.02281193,0.50258,1.05288
135.42,14.05866,-0.02415228,0.50936,1.05191
138.52,14.1593,-0.02412308,0.5128,1.05092
141.62,14.2593,-0.02380493,0.51982,1.04991
144.72,14.359,-0.0238,0.52896,1.04887
147.82,14.45824,-0.02430909,0.53379,1.04781
150.92,14.5573,-0.02643999,0.54519,1.04672
154.02,14.6557,-0.02764351,0.55286,1.04561
157.12,14.75419,-0.0290544,0.56269,1.04448
160.22,14.8522,-0.0271016,0.57239,1.04333
163.32,14.95021,-0.02875753,0.58195,1.04216
166.42,15.048,-0.0307483,0.59091,1.04096
169.52,15.14521,-0.0293846,0.60117,1.03974
172.62,15.2426,-0.03069213,0.6103,1.0385
175.72,15.33949,-0.03368044,0.62046,1.03724
178.82,15.43612,-0.03368194,0.63078,1.03595
181.92,15.5324,-0.03498823,0.64154,1.03465
185.02,15.62851,-0.03631008,0.65059,1.03332
188.12,15.7243,-0.03768278,0.66395,1.03197
191.22,15.81998,-0.03894,0.67279,1.03061
194.32,15.9152,-0.03962355,0.68939,1.02922
197.42,16.0104,-0.04092072,0.70243,1.02781
200.52,16.10531,-0.04213734,0.71603,1.02638
203.62,16.20056,-0.04560607,0.73302,1.02493
206.72,16.2955,-0.04871988,0.74552,1.02346
209.82,16.3903,-0.05298002,0.76143,1.02197
212.92,16.48476,-0.05584272,0.77618,1.02046
216.02,16.57938,-0.0567614,0.78922,1.01893
219.12,16.6739,-0.0611571,0.80246,1.01738
222.22,16.7684,-0.06639668,0.81687,1.01581
225.32,16.8625,-0.07060083,0.82789,1.01423
228.42,16.95694,-0.07489608,0.8375,1.01262
231.52,17.05114,-0.08108946,0.84589,1.011
234.62,17.1452,-0.08769977,0.85442,1.00936
237.72,17.2392,-0.09491126,0.86201,1.0077
240.82,17.33323,-0.10262,0.87501,1.00602
243.92,17.42725,-0.10982,0.88866,1.00432
247.02,17.521,-0.11833,0.90679,1.00261
250.12,17.61484,-0.12505,0.92004,1.00088
253.22,17.70864,-0.13434,0.90641,0.99913
256.32,17.8022,-0.14504,0.88705,0.99736
259.42,17.89585,-0.15313,0.87469,0.99558
262.52,17.98946,-0.16481,0.86507,0.99378
265.62,18.08302,-0.17731,0.86389,0.99197
268.72,18.17662,-0.19276,0.85862,0.99013
271.82,18.2702,-0.20812,0.85851,0.98829
274.92,18.36363,-0.22679,0.85427,0.98642
278.02,18.45721,-0.24651,0.84994,0.98454
281.12,18.5506,-0.27044,0.84131,0.98265
284.22,18.64425,-0.29856,0.83542,0.98073
287.32,18.73816,-0.32631,0.82065,0.97881
290.42,18.83191,-0.35999,0.8072,0.97687
293.52,18.92557,-0.39535,0.78744,0.97491
296.62,19.0193,-0.43524,0.76976,0.97294
299.72,19.1129,-0.47779,0.74589,0.97095
302.82,19.20658,-0.52292,0.72262,0.96895
305.92,19.30021,-0.57356,0.69673,0.96694
309.02,19.3938,-0.62804,0.67423,0.96491
312.12,19.48773,-0.68484,0.65331,0.96287
315.22,19.58127,-0.74537,0.63703,0.96081
318.32,19.6748,-0.80383,0.62278,0.95874
321.42,19.76885,-0.86639,0.6089,0.95666
324.52,19.8626,-0.93226,0.60122,0.95457
327.62,19.9569,-0.99486,0.60009,0.95246
330.72,20.05105,-1.05916,0.60802,0.95034
333.82,20.14525,-1.12481,0.61695,0.94821
336.92,20.23968,-1.18867,0.62701,0.94606
340.02,20.334,-1.25323,0.64867,0.9439
343.12,20.42851,-1.31795,0.67357,0.94173
346.22,20.52318,-1.38363,0.70273,0.93955
349.32,20.61797,-1.44947,0.74264,0.93736
352.42,20.7129,-1.51731,0.7907,0.93516
355.52,20.80752,-1.59072,0.84892,0.93294
358.62,20.9029,-1.66848,0.92444,0.93071
361.72,20.99785,-1.75183,1.01242,0.92848
364.82,21.09327,-1.84605,1.11915,0.92623
367.92,21.18883,-1.95066,1.24042,0.92397
371.02,21.28453,-2.07081,1.35177,0.9217
374.12,21.38031,-2.20701,1.40034,0.91943
377.22,21.4761,-2.34434,1.30961,0.91714
380.32,21.5719,-2.48108,1.04686,0.91484
383.42,21.66783,-2.59009,0.69331,0.91253
386.52,21.7634,-2.66371,0.36191,0.91022
389.62,21.85878,-2.71258,0.12941,0.90789
392.72,21.95455,-2.74264,-0.02274634,0.90556
395.82,22.05022,-2.76258,-0.12051,0.90321
398.92,22.1461,-2.77765,-0.18489,0.90086
402.02,22.24213,-2.79109,-0.22825,0.8985
405.12,22.33831,-2.8054,-0.26799,0.89613
408.22,22.4345,-2.81463,-0.29904,0.89375
411.32,22.53081,-2.82448,-0.32902,0.89137
414.42,22.62748,-2.83489,-0.35503,0.88897
417.52,22.7241,-2.84464,-0.37662,0.88657
420.62,22.8207,-2.8552,-0.39657,0.88416
423.72,22.91766,-2.86284,-0.4134,0.88175
426.82,23.0144,-2.87048,-0.43328,0.87933
429.92,23.1115,-2.87934,-0.44584,0.8769
433.02,23.20834,-2.88746,-0.45749,0.87446
436.12,23.3058,-2.89439,-0.46394,0.87202
439.22,23.40296,-2.90256,-0.4722,0.86957
442.32,23.5005,-2.90957,-0.47417,0.86711
445.42,23.59822,-2.91789,-0.47507,0.86465
448.52,23.6957,-2.92398,-0.47222,0.86218
451.62,23.79356,-2.93342,-0.46848,0.85971
454.72,23.8913,-2.93869,-0.46069,0.85723
457.82,23.98946,-2.94699,-0.44957,0.85475
460.92,24.0874,-2.95525,-0.44286,0.85226
464.02,24.1855,-2.96011,-0.43395,0.84976
467.12,24.2838,-2.9655,-0.41989,0.84726
470.22,24.38201,-2.97282,-0.40849,0.84475
473.32,24.48033,-2.97589,-0.39173,0.84225
476.42,24.5789,-2.98171,-0.38332,0.83973
479.52,24.6775,-2.98695,-0.376,0.83721
482.62,24.77601,-2.99243,-0.36522,0.83469
485.72,24.87482,-2.9973,-0.35664,0.83216
488.82,24.97371,-3.00189,-0.35218,0.82963
491.92,25.0725,-3.00644,-0.34474,0.8271
495.02,25.17154,-3.01156,-0.341,0.82456
498.12,25.27065,-3.01509,-0.33786,0.82201
501.22,25.36986,-3.0191,-0.33551,0.81947
504.32,25.46901,-3.02174,-0.33107,0.81692
507.42,25.56839,-3.0264,-0.32962,0.81437
510.52,25.66765,-3.029,-0.33,0.81181
513.62,25.7672,-3.034,-0.32952,0.80926
516.72,25.86683,-3.03684,-0.32674,0.8067
519.82,25.96649,-3.04131,-0.3278,0.80413
522.92,26.0661,-3.04403,-0.33014,0.80157
526.02,26.16584,-3.04675,-0.33093,0.799
529.12,26.2658,-3.04938,-0.33492,0.79643
532.22,26.36573,-3.05322,-0.33497,0.79386
535.32,26.4657,-3.05461,-0.33949,0.79128
538.42,26.5658,-3.0586,-0.3409,0.78871
541.52,26.666,-3.06129,-0.33893,0.78613
544.62,26.76615,-3.06364,-0.33718,0.78355
547.72,26.8664,-3.06573,-0.3341,0.78097
550.82,26.9669,-3.06931,-0.33399,0.77839
553.92,27.06731,-3.06971,-0.33418,0.77581
557.02,27.1677,-3.07365,-0.33669,0.77322
560.12,27.2683,-3.07583,-0.33251,0.77064
563.22,27.36898,-3.07946,-0.33429,0.76805
566.32,27.4697,-3.08119,-0.33526,0.76547
569.42,27.5706,-3.08394,-0.33387,0.76288
572.52,27.6714,-3.08757,-0.33726,0.76029
575.62,27.7722,-3.08942,-0.34108,0.75771
578.72,27.8733,-3.08944,-0.34684,0.75512
581.82,27.97417,-3.0911,-0.35129,0.75253
584.92,28.0753,-3.09338,-0.35437,0.74994
588.02,28.17645,-3.09583,-0.35622,0.74736
591.12,28.2776,-3.09748,-0.3664,0.74477
594.22,28.37893,-3.09866,-0.37211,0.74218
597.32,28.4801,-3.10258,-0.38086,0.73959
600.42,28.5815,-3.10388,-0.38525,0.73701
603.52,28.6829,-3.106,-0.39383,0.73442
606.62,28.78418,-3.10557,-0.39662,0.73184
609.72,28.88565,-3.10784,-0.40291,0.72925
612.82,28.9872,-3.11048,-0.40858,0.72667
615.92,29.0889,-3.1131,-0.41077,0.72409
619.02,29.1905,-3.11585,-0.41903,0.7215
622.12,29.2923,-3.11641,-0.42735,0.71892
625.22,29.3941,-3.11849,-0.42788,0.71634
628.32,29.49602,-3.12092,-0.4311,0.71377
631.42,29.598,-3.12112,-0.43904,0.71119
634.52,29.69985,-3.12287,-0.4472,0.70862
637.62,29.8018,-3.12384,-0.4528,0.70604
640.72,29.904,-3.12647,-0.45957,0.70347
643.82,30.0061,-3.12815,-0.46498,0.7009
646.92,30.1083,-3.12779,-0.46995,0.69833
650.02,30.21047,-3.12912,-0.47615,0.69577
653.12,30.31271,-3.13044,-0.48243,0.6932
656.22,30.41494,-3.13202,-0.48826,0.69064
659.32,30.51715,-3.13426,-0.49256,0.68808
662.42,30.61962,-3.1334,-0.49717,0.68553
665.52,30.72199,-3.13524,-0.50102,0.68297
668.62,30.82452,-3.13966,-0.50492,0.68042
671.72,30.9268,-3.13998,-0.51213,0.67787
674.82,31.02952,-3.1413,-0.51,0.67532
677.92,31.13219,-3.14163,-0.51903,0.67278
681.02,31.2346,-3.14187,-0.52278,0.67023
684.12,31.33724,-3.14431,-0.53238,0.66769
687.22,31.4398,-3.14426,-0.53268,0.66516
690.32,31.5424,-3.14558,-0.53831,0.66262
693.42,31.6451,-3.14435,-0.54702,0.66009
696.52,31.74782,-3.14492,-0.55271,0.65756
699.62,31.85075,-3.1463,-0.56324,0.65504
702.72,31.95372,-3.14753,-0.567,0.65252
705.82,32.0565,-3.15053,-0.57428,0.65
708.92,32.15952,-3.15314,-0.5787,0.64748
712.02,32.26255,-3.15314,-0.59134,0.64497
715.12,32.36595,-3.15315,-0.59485,0.64246
718.22,32.46909,-3.15314,-0.59892,0.63996
721.32,32.57247,-3.15447,-0.60468,0.63745
724.42,32.67572,-3.15448,-0.60762,0.63496
727.52,32.77913,-3.15449,-0.61874,0.63246
730.62,32.88259,-3.1558,-0.62551,0.62997
733.72,32.9861,-3.15712,-0.62705,0.62748
736.82,33.08944,-3.15841,-0.63355,0.625
739.92,33.1931,-3.16115,-0.63947,0.62252
743.02,33.29659,-3.1607,-0.64656,0.62004
746.12,33.40031,-3.16049,-0.64826,0.61757
749.22,33.50379,-3.16185,-0.65135,0.6151
752.32,33.60763,-3.16116,-0.66026,0.61264
755.42,33.71155,-3.16248,-0.66543,0.61017
758.52,33.81542,-3.16117,-0.66232,0.60772
761.62,33.9193,-3.16379,-0.66748,0.60526
764.72,34.0233,-3.16247,-0.67212,0.60282
767.82,34.12741,-3.16379,-0.66867,0.60037
770.92,34.23146,-3.16413,-0.67869,0.59793
774.02,34.33559,-3.1651,-0.68218,0.5955
777.12,34.43978,-3.1651,-0.68155,0.59306
780.22,34.54394,-3.16622,-0.682,0.59064
783.32,34.64785,-3.16777,-0.68406,0.58821
786.42,34.75219,-3.16873,-0.68606,0.58579
789.52,34.85622,-3.17041,-0.68304,0.58338
792.62,34.96056,-3.17168,-0.68648,0.58097
793.72,34.9976,-3.17062,-0.68684,0.58011

File: Bamboo_Rug_A_STA_N2_30KData_220124_R3.csv
##Temp./Â°C,Time/min,Mass loss(subtr.2)/mg,DSC(subtr.2)/(mW/mg),Sensit./(uV/mW)
48.597,10.00917,0.00231,0.009135575,1.06963
51.797,10.87527,0.0015924,0.16976,1.06933
54.997,11.10908,0.004387416,0.27821,1.06901
58.197,11.28832,0.00352336,0.36337,1.06867
61.397,11.443,0.004426973,0.43089,1.06829
64.597,11.58408,0.00345586,0.48855,1.06788
67.797,11.71652,0.00381663,0.53757,1.06745
70.997,11.8428,0.002696755,0.57986,1.06699
74.197,11.96505,0.003204049,0.61677,1.0665
77.397,12.08446,0.002185204,0.64673,1.06598
80.597,12.20102,0.002004691,0.67856,1.06543
83.797,12.3154,0.002042858,0.7054,1.06486
86.997,12.4282,0.001347998,0.73232,1.06426
90.197,12.53957,-9.468387e-05,0.75659,1.06363
93.397,12.64963,0.001979677,0.77845,1.06297
96.597,12.7593,-0.0006541515,0.79692,1.06229
99.797,12.868,-0.001899342,0.81478,1.06158
102.997,12.97644,-0.00195668,0.82977,1.06085
106.197,13.08455,-0.003168781,0.8386,1.06008
109.397,13.19236,-0.00449428,0.84734,1.05929
112.597,13.29996,-0.004819743,0.85432,1.05848
115.797,13.40709,-0.0048344,0.85508,1.05764
118.997,13.51416,-0.00482613,0.85689,1.05677
122.197,13.6206,-0.00546067,0.8599,1.05588
125.397,13.7264,-0.007214873,0.86191,1.05496
128.597,13.83187,-0.008439992,0.86636,1.05401
131.797,13.9369,-0.007407431,0.87327,1.05304
134.997,14.0411,-0.006482986,0.87665,1.05205
138.197,14.14485,-0.008042394,0.88528,1.05102
141.397,14.2482,-0.01041911,0.89647,1.04998
144.597,14.3512,-0.009100008,0.90799,1.04891
147.797,14.45369,-0.01012214,0.92054,1.04781
150.997,14.5557,-0.01042,0.93295,1.04669
154.197,14.65755,-0.01041998,0.94563,1.04555
157.397,14.75888,-0.01173991,0.96008,1.04438
160.597,14.8601,-0.01271121,0.96841,1.04319
163.797,14.9612,-0.01239176,0.98459,1.04197
166.997,15.0618,-0.01450375,0.9968,1.04073
170.197,15.1625,-0.01469831,1.01125,1.03947
173.397,15.2627,-0.01503007,1.02518,1.03819
176.597,15.3629,-0.01766056,1.03705,1.03688
179.797,15.4624,-0.01780109,1.05236,1.03554
182.997,15.56185,-0.01766013,1.06633,1.03419
186.197,15.66097,-0.0203331,1.08187,1.03281
189.397,15.76,-0.02159999,1.09787,1.03141
192.597,15.85859,-0.02291866,1.11526,1.02999
195.797,15.95713,-0.02557082,1.13339,1.02855
198.997,16.05552,-0.02655678,1.15093,1.02708
202.197,16.15365,-0.02926802,1.17307,1.0256
205.397,16.2515,-0.0318956,1.19101,1.02409
208.597,16.34935,-0.03445054,1.20723,1.02256
211.797,16.44719,-0.03730031,1.22809,1.02101
214.997,16.54486,-0.04030694,1.24571,1.01944
218.197,16.6424,-0.0450522,1.26126,1.01784
221.397,16.73984,-0.04811033,1.27753,1.01623
224.597,16.83708,-0.05222572,1.291,1.0146
227.797,16.93432,-0.0569799,1.30469,1.01295
230.997,17.03148,-0.06227747,1.31796,1.01128
234.197,17.12854,-0.06914497,1.32767,1.00958
237.397,17.22544,-0.07489782,1.33855,1.00787
240.597,17.32228,-0.08229591,1.34931,1.00614
243.797,17.41924,-0.08994727,1.3671,1.00439
246.997,17.51601,-0.09713017,1.38839,1.00262
250.197,17.61287,-0.10481,1.40137,1.00084
253.397,17.7094,-0.11421,1.38716,0.99903
256.597,17.80623,-0.12436,1.36587,0.99721
259.797,17.90288,-0.13528,1.3499,0.99536
262.997,17.9995,-0.14735,1.34477,0.9935
266.197,18.09597,-0.16055,1.33599,0.99163
269.397,18.19246,-0.17489,1.33318,0.98973
272.597,18.28901,-0.19181,1.32749,0.98782
275.797,18.3856,-0.21229,1.3209,0.98589
278.997,18.48197,-0.23185,1.31222,0.98395
282.197,18.57846,-0.25875,1.29725,0.98198
285.397,18.67513,-0.28749,1.28321,0.98
288.597,18.77161,-0.31893,1.26522,0.97801
291.797,18.86824,-0.35558,1.24209,0.976
294.997,18.96482,-0.39346,1.21581,0.97397
298.197,19.0614,-0.43761,1.1898,0.97193
301.397,19.1581,-0.48294,1.15962,0.96987
304.597,19.2548,-0.53385,1.13063,0.9678
307.797,19.35148,-0.59098,1.10514,0.96571
310.997,19.44828,-0.64903,1.07659,0.96361
314.197,19.54509,-0.71213,1.05199,0.96149
317.397,19.64188,-0.77382,1.03301,0.95936
320.597,19.73883,-0.84156,1.01967,0.95722
323.797,19.83588,-0.90973,1.00818,0.95506
326.997,19.9329,-0.97635,1.00857,0.95288
330.197,20.03023,-1.04647,1.01205,0.9507
333.397,20.12765,-1.11246,1.0237,0.9485
336.597,20.22499,-1.18018,1.04271,0.94628
339.797,20.32275,-1.24477,1.06244,0.94406
342.997,20.42022,-1.31383,1.09247,0.94182
346.197,20.5182,-1.38093,1.12865,0.93957
349.397,20.61613,-1.45054,1.1726,0.93731
352.597,20.71433,-1.52248,1.21822,0.93503
355.797,20.81256,-1.59773,1.28436,0.93274
358.997,20.91094,-1.68227,1.36071,0.93044
362.197,21.00941,-1.77299,1.45152,0.92813
365.397,21.1082,-1.87919,1.55696,0.92581
368.597,21.20717,-1.99649,1.66808,0.92348
371.797,21.30596,-2.13302,1.74106,0.92113
374.997,21.40483,-2.27935,1.704,0.91878
378.197,21.50395,-2.42774,1.50246,0.91642
381.397,21.60272,-2.55075,1.19102,0.91404
384.597,21.7016,-2.64184,0.887,0.91165
387.797,21.80049,-2.70031,0.66627,0.90926
390.997,21.89926,-2.73901,0.52871,0.90685
394.197,21.99819,-2.76186,0.44048,0.90444
397.397,22.0972,-2.78116,0.38687,0.90202
400.597,22.1962,-2.79597,0.34194,0.89958
403.797,22.29565,-2.80838,0.3049,0.89714
406.997,22.3952,-2.82259,0.27426,0.89469
410.197,22.4946,-2.8325,0.24589,0.89223
413.397,22.59419,-2.84432,0.22068,0.88976
416.597,22.69387,-2.85369,0.19738,0.88729
419.797,22.79368,-2.86482,0.17729,0.8848
422.997,22.8934,-2.87276,0.1555,0.88231
426.197,22.99329,-2.88252,0.13787,0.87981
429.397,23.0931,-2.89287,0.12545,0.87731
432.597,23.19334,-2.90296,0.11389,0.87479
435.797,23.29349,-2.9115,0.10482,0.87227
438.997,23.39384,-2.92119,0.0959897,0.86974
442.197,23.4941,-2.93032,0.09510579,0.86721
445.397,23.59476,-2.9373,0.0957696,0.86467
448.597,23.69535,-2.9474,0.09934688,0.86212
451.797,23.79608,-2.95547,0.10454,0.85957
454.997,23.89697,-2.96241,0.11316,0.85701
458.197,23.99798,-2.97007,0.12293,0.85444
461.397,24.0992,-2.97612,0.13323,0.85187
464.597,24.20058,-2.98406,0.14838,0.8493
467.797,24.3019,-2.99029,0.16544,0.84671
470.997,24.40342,-2.99703,0.17976,0.84413
474.197,24.50489,-3.00349,0.19524,0.84153
477.397,24.6067,-3.01103,0.21199,0.83894
480.597,24.7086,-3.01614,0.22338,0.83634
483.797,24.81042,-3.01959,0.23798,0.83373
486.997,24.91252,-3.02556,0.24788,0.83112
490.197,25.01468,-3.02979,0.25554,0.8285
493.397,25.11686,-3.03442,0.26402,0.82589
496.597,25.2192,-3.04083,0.27322,0.82326
499.797,25.32166,-3.04436,0.28132,0.82064
502.997,25.4242,-3.04983,0.28567,0.81801
506.197,25.5266,-3.05433,0.2925,0.81538
509.397,25.62914,-3.0586,0.29803,0.81274
512.597,25.73186,-3.06274,0.3013,0.8101
515.797,25.8346,-3.06562,0.30321,0.80746
518.997,25.9375,-3.06986,0.30682,0.80481
522.197,26.04035,-3.07265,0.31109,0.80217
525.397,26.14321,-3.0768,0.31248,0.79952
528.597,26.2463,-3.08053,0.31346,0.79686
531.797,26.34938,-3.08492,0.31939,0.79421
534.997,26.45243,-3.08486,0.32111,0.79155
538.197,26.5557,-3.09076,0.31907,0.78889
541.397,26.65885,-3.09337,0.32229,0.78623
544.597,26.76228,-3.09535,0.32554,0.78357
547.797,26.86572,-3.09844,0.333,0.78091
550.997,26.96927,-3.10247,0.3376,0.77824
554.197,27.07295,-3.10454,0.3445,0.77558
557.397,27.17657,-3.10774,0.35073,0.77291
560.597,27.2803,-3.11057,0.35522,0.77024
563.797,27.38437,-3.11218,0.35885,0.76757
566.997,27.4881,-3.11584,0.36022,0.7649
570.197,27.5922,-3.11849,0.36126,0.76223
573.397,27.6964,-3.11995,0.36454,0.75956
576.597,27.8006,-3.12243,0.36745,0.75689
579.797,27.90496,-3.12538,0.3681,0.75422
582.997,28.00931,-3.1288,0.37232,0.75155
586.197,28.1135,-3.12884,0.36709,0.74888
589.397,28.2176,-3.134,0.36751,0.74621
592.597,28.32253,-3.13527,0.36713,0.74353
595.797,28.427,-3.1367,0.36664,0.74086
598.997,28.5318,-3.13937,0.36654,0.73819
602.197,28.6365,-3.14198,0.36248,0.73552
605.397,28.74135,-3.14375,0.35753,0.73286
608.597,28.84621,-3.14458,0.35807,0.73019
611.797,28.95133,-3.14718,0.35447,0.72752
614.997,29.0563,-3.14868,0.35681,0.72485
618.197,29.16145,-3.15118,0.35682,0.72219
621.397,29.2666,-3.1525,0.35864,0.71953
624.597,29.37197,-3.15512,0.35729,0.71686
627.797,29.47703,-3.15785,0.3591,0.7142
630.997,29.5823,-3.15917,0.35568,0.71154
634.197,29.6877,-3.16049,0.36171,0.70888
637.397,29.79307,-3.16254,0.36552,0.70623
640.597,29.89848,-3.16444,0.36502,0.70357
643.797,30.00403,-3.16578,0.3615,0.70092
646.997,30.1097,-3.16675,0.36115,0.69827
650.197,30.2149,-3.16708,0.35806,0.69562
653.397,30.3207,-3.16982,0.36282,0.69298
656.597,30.42629,-3.16984,0.36069,0.69033
659.797,30.53221,-3.17234,0.36291,0.68769
662.997,30.63808,-3.17454,0.35976,0.68505
666.197,30.7439,-3.17552,0.36236,0.68241
669.397,30.84954,-3.17695,0.35858,0.67978
672.597,30.9552,-3.17757,0.35521,0.67715
675.797,31.0612,-3.17892,0.36005,0.67452
678.997,31.1669,-3.18022,0.35935,0.67189
682.197,31.27272,-3.18155,0.35897,0.66927
685.397,31.3788,-3.18156,0.35654,0.66665
688.597,31.48452,-3.18377,0.35384,0.66403
691.797,31.59048,-3.18419,0.35195,0.66142
694.997,31.6962,-3.18419,0.3503,0.6588
698.197,31.8022,-3.1855,0.34327,0.6562
701.397,31.9085,-3.18682,0.3387,0.65359
704.597,32.0146,-3.18682,0.33442,0.65099
707.797,32.12076,-3.1882,0.3307,0.64839
710.997,32.22702,-3.18939,0.32569,0.6458
714.197,32.33331,-3.1908,0.32143,0.64321
717.397,32.43995,-3.19077,0.31649,0.64062
720.597,32.5464,-3.19208,0.31576,0.63804
723.797,32.6531,-3.19339,0.31374,0.63546
726.997,32.75979,-3.19344,0.30887,0.63288
730.197,32.86647,-3.19462,0.30292,0.63031
733.397,32.97323,-3.19603,0.30008,0.62774
736.597,33.07998,-3.19568,0.29866,0.62518
739.797,33.1871,-3.19702,0.2928,0.62262
742.997,33.29407,-3.19739,0.29468,0.62006
746.197,33.4011,-3.19867,0.28922,0.61751
749.397,33.50817,-3.19999,0.28398,0.61496
752.597,33.61522,-3.2013,0.28662,0.61242
755.797,33.72244,-3.20131,0.29043,0.60988
758.997,33.82971,-3.20229,0.28361,0.60734
762.197,33.93704,-3.20356,0.28744,0.60481
765.397,34.0445,-3.20485,0.28737,0.60228
768.597,34.15202,-3.20449,0.28333,0.59976
771.797,34.25918,-3.20492,0.27972,0.59724
774.997,34.3668,-3.20557,0.2804,0.59473
778.197,34.4741,-3.20548,0.28137,0.59222
781.397,34.5816,-3.2082,0.27955,0.58971
784.597,34.68913,-3.20689,0.28001,0.58722
787.797,34.79625,-3.20816,0.28129,0.58472
790.997,34.9041,-3.20985,0.28418,0.58223
793.797,34.9982,-3.2102,0.28128,0.58005