Folder: fsri_materials_database/01_Data/Luan_Panel/FTIR/IS

Note: 01_Data/README.md
# Materials and Products Database
## 01_Data

Raw data generated from each apparatus are included here in plain-text format. The data is organized first by material, next by the short name of test apparatus used, and where applicable additional filtering by test settings.

### material.json

Each material directory contains a json file of the same name as the material. This file links the data stored in the repository as well as data and graphs produced by the accompanying scripts (__02_Scripts__) to the respective landing page for the material on the front-end website.

File: Luan_Panel_IS_S_220914_R1.dpt
7497.02,0.83905
7473.88,0.83364
7450.73,0.82095
7427.59,0.82016
7404.44,0.80353
7381.3,0.80857
7358.15,0.79765
7335.01,0.78224
7311.86,0.77638
7288.72,0.77194
7265.57,0.76881
7242.43,0.76724
7219.28,0.76665
7196.14,0.76357
7172.99,0.76144
7149.85,0.74444
7126.7,0.73071
7103.56,0.71966
7080.41,0.69686
7057.27,0.68992
7034.12,0.67459
7010.98,0.66257
6987.83,0.64950
6964.69,0.64282
6941.54,0.63836
6918.4,0.63584
6895.25,0.63452
6872.11,0.62218
6848.96,0.63136
6825.82,0.62585
6802.67,0.61721
6779.53,0.61472
6756.38,0.61056
6733.24,0.61226
6710.1,0.61171
6686.95,0.61630
6663.81,0.61501
6640.66,0.62077
6617.52,0.62034
6594.37,0.63124
6571.23,0.63043
6548.08,0.63107
6524.94,0.63463
6501.79,0.63868
6478.65,0.64477
6455.5,0.64204
6432.36,0.64544
6409.21,0.64846
6386.07,0.64920
6362.92,0.64953
6339.78,0.65524
6316.63,0.66022
6293.49,0.66280
6270.34,0.66267
6247.2,0.66473
6224.05,0.67889
6200.91,0.68441
6177.76,0.68994
6154.62,0.69055
6131.47,0.69758
6108.33,0.69913
6085.18,0.69870
6062.04,0.69779
6038.89,0.68886
6015.75,0.68562
5992.6,0.68027
5969.46,0.68076
5946.31,0.67709
5923.17,0.67740
5900.02,0.67279
5876.88,0.67191
5853.73,0.67089
5830.59,0.66816
5807.44,0.66367
5784.3,0.66374
5761.15,0.66878
5738.01,0.66902
5714.86,0.67008
5691.72,0.67189
5668.57,0.66996
5645.43,0.67039
5622.28,0.66954
5599.14,0.67087
5575.99,0.66996
5552.85,0.67402
5529.7,0.67589
5506.56,0.67625
5483.41,0.67814
5460.27,0.67780
5437.13,0.68220
5413.98,0.68746
5390.84,0.68805
5367.69,0.68353
5344.55,0.68145
5321.4,0.67075
5298.26,0.64865
5275.11,0.61122
5251.97,0.56972
5228.82,0.54015
5205.68,0.52537
5182.53,0.52116
5159.39,0.52546
5136.24,0.53371
5113.1,0.53632
5089.95,0.53203
5066.81,0.53453
5043.66,0.54460
5020.52,0.55424
4997.37,0.56198
4974.23,0.56287
4951.08,0.55322
4927.94,0.54102
4904.79,0.53257
4881.65,0.52174
4858.5,0.50911
4835.36,0.49693
4812.21,0.48919
4789.07,0.48499
4765.92,0.48234
4742.78,0.47954
4719.63,0.48119
4696.49,0.48102
4673.34,0.48206
4650.2,0.48535
4627.05,0.48950
4603.91,0.49699
4580.76,0.50272
4557.62,0.50539
4534.47,0.50830
4511.33,0.50996
4488.18,0.50580
4465.04,0.48701
4441.89,0.46338
4418.75,0.43761
4395.6,0.42888
4372.46,0.43780
4349.31,0.44603
4326.17,0.44095
4303.02,0.43568
4279.88,0.42830
4256.73,0.43235
4233.59,0.43563
4210.44,0.43595
4187.3,0.43615
4164.16,0.44155
4141.01,0.43653
4117.87,0.42408
4094.72,0.40614
4071.58,0.38503
4048.43,0.36503
4025.29,0.35008
4002.14,0.34873
3979,0.35431
3955.85,0.36317
3932.71,0.37345
3909.56,0.38311
3886.42,0.39128
3863.27,0.40063
3840.13,0.41207
3816.98,0.41613
3793.84,0.41520
3770.69,0.41052
3747.55,0.40235
3724.4,0.38445
3701.26,0.35077
3678.11,0.28649
3654.97,0.20257
3631.82,0.14894
3608.68,0.11396
3585.53,0.08921
3562.39,0.07270
3539.24,0.06174
3516.1,0.05296
3492.95,0.04652
3469.81,0.04238
3446.66,0.04127
3423.52,0.03998
3400.37,0.04027
3377.23,0.04047
3354.08,0.04113
3330.94,0.04378
3307.79,0.04616
3284.65,0.04859
3261.5,0.05323
3238.36,0.05727
3215.21,0.06146
3192.07,0.06692
3168.92,0.07438
3145.78,0.08243
3122.63,0.08905
3099.49,0.09551
3076.34,0.09975
3053.2,0.10391
3030.05,0.10774
3006.91,0.10391
2983.76,0.09632
2960.62,0.07670
2937.47,0.06834
2914.33,0.06831
2891.18,0.07343
2868.04,0.07784
2844.9,0.08813
2821.75,0.11544
2798.61,0.13467
2775.46,0.14455
2752.32,0.14912
2729.17,0.15232
2706.03,0.16030
2682.88,0.17026
2659.74,0.17711
2636.59,0.18472
2613.45,0.19287
2590.3,0.20012
2567.16,0.20539
2544.01,0.20865
2520.87,0.21553
2497.72,0.22622
2474.58,0.23695
2451.43,0.24385
2428.29,0.25546
2405.14,0.26911
2382,0.28080
2358.85,0.29011
2335.71,0.29647
2312.56,0.29976
2289.42,0.29872
2266.27,0.29496
2243.13,0.28715
2219.98,0.28809
2196.84,0.28381
2173.69,0.27033
2150.55,0.25990
2127.4,0.25834
2104.26,0.26328
2081.11,0.26692
2057.97,0.26388
2034.82,0.26921
2011.68,0.28323
1988.53,0.29133
1965.39,0.29384
1942.24,0.29974
1919.1,0.31233
1895.95,0.31360
1872.81,0.30990
1849.66,0.30121
1826.52,0.28560
1803.37,0.25810
1780.23,0.21015
1757.08,0.10379
1733.94,0.07746
1710.79,0.08836
1687.65,0.05723
1664.5,0.04574
1641.36,0.05321
1618.21,0.05534
1595.07,0.05618
1571.93,0.08311
1548.78,0.08070
1525.64,0.06864
1502.49,0.05520
1479.35,0.06215
1456.2,0.04952
1433.06,0.05057
1409.91,0.05953
1386.77,0.05346
1363.62,0.05119
1340.48,0.05133
1317.33,0.05260
1294.19,0.05681
1271.04,0.04795
1247.9,0.04684
1224.75,0.04859
1201.61,0.05323
1178.46,0.04376
1155.32,0.04488
1132.17,0.03793
1109.03,0.04436
1085.88,0.04183
1062.74,0.05359
1039.59,0.06165
1016.45,0.07176
993.302,0.08076
970.157,0.10559
947.013,0.13059
923.868,0.13165
900.723,0.11322
877.578,0.12717
854.433,0.12627
831.288,0.11885
808.143,0.11773
784.998,0.11212
761.853,0.10149
738.708,0.08963
715.563,0.08058
692.419,0.07668
669.274,0.06938
646.129,0.06898
622.984,0.06488
599.839,0.06646

File: Luan_Panel_IS_S_220914_R2.dpt
7497.02,0.86060
7473.88,0.83903
7450.73,0.81907
7427.59,0.82767
7404.44,0.82235
7381.3,0.80153
7358.15,0.79707
7335.01,0.79554
7311.86,0.79706
7288.72,0.78075
7265.57,0.78301
7242.43,0.78099
7219.28,0.77478
7196.14,0.76842
7172.99,0.76115
7149.85,0.75502
7126.7,0.73894
7103.56,0.72122
7080.41,0.71327
7057.27,0.70021
7034.12,0.67985
7010.98,0.66546
6987.83,0.65425
6964.69,0.64536
6941.54,0.64719
6918.4,0.63835
6895.25,0.63279
6872.11,0.63211
6848.96,0.63101
6825.82,0.63103
6802.67,0.62445
6779.53,0.62480
6756.38,0.61862
6733.24,0.61699
6710.1,0.62174
6686.95,0.61671
6663.81,0.62501
6640.66,0.62964
6617.52,0.63024
6594.37,0.63134
6571.23,0.64668
6548.08,0.64223
6524.94,0.63931
6501.79,0.64851
6478.65,0.65252
6455.5,0.65060
6432.36,0.65070
6409.21,0.65446
6386.07,0.65857
6362.92,0.65864
6339.78,0.66249
6316.63,0.66378
6293.49,0.66836
6270.34,0.67137
6247.2,0.68126
6224.05,0.68518
6200.91,0.68990
6177.76,0.69256
6154.62,0.69805
6131.47,0.70435
6108.33,0.70469
6085.18,0.70398
6062.04,0.70032
6038.89,0.69944
6015.75,0.69167
5992.6,0.68950
5969.46,0.68397
5946.31,0.68458
5923.17,0.68540
5900.02,0.68127
5876.88,0.67625
5853.73,0.67459
5830.59,0.67584
5807.44,0.67156
5784.3,0.67035
5761.15,0.67628
5738.01,0.67445
5714.86,0.67496
5691.72,0.67492
5668.57,0.67515
5645.43,0.67550
5622.28,0.67408
5599.14,0.67542
5575.99,0.67734
5552.85,0.67834
5529.7,0.67965
5506.56,0.68040
5483.41,0.68123
5460.27,0.68385
5437.13,0.68740
5413.98,0.68968
5390.84,0.69136
5367.69,0.69084
5344.55,0.68704
5321.4,0.67812
5298.26,0.65641
5275.11,0.62148
5251.97,0.58085
5228.82,0.55325
5205.68,0.54160
5182.53,0.53746
5159.39,0.54139
5136.24,0.54782
5113.1,0.54742
5089.95,0.54168
5066.81,0.54284
5043.66,0.55364
5020.52,0.56315
4997.37,0.56989
4974.23,0.57166
4951.08,0.56044
4927.94,0.54737
4904.79,0.53682
4881.65,0.52543
4858.5,0.51414
4835.36,0.50105
4812.21,0.49239
4789.07,0.48931
4765.92,0.48578
4742.78,0.48438
4719.63,0.48461
4696.49,0.48321
4673.34,0.48509
4650.2,0.48829
4627.05,0.49389
4603.91,0.50101
4580.76,0.50761
4557.62,0.50972
4534.47,0.51211
4511.33,0.51341
4488.18,0.50832
4465.04,0.49074
4441.89,0.46718
4418.75,0.44004
4395.6,0.43069
4372.46,0.44050
4349.31,0.44894
4326.17,0.44382
4303.02,0.43810
4279.88,0.43147
4256.73,0.43518
4233.59,0.43908
4210.44,0.43965
4187.3,0.43995
4164.16,0.44547
4141.01,0.44077
4117.87,0.42767
4094.72,0.41019
4071.58,0.38920
4048.43,0.36834
4025.29,0.35329
4002.14,0.35193
3979,0.35714
3955.85,0.36663
3932.71,0.37785
3909.56,0.38672
3886.42,0.39487
3863.27,0.40532
3840.13,0.41645
3816.98,0.42082
3793.84,0.42135
3770.69,0.41846
3747.55,0.40875
3724.4,0.39209
3701.26,0.36108
3678.11,0.29790
3654.97,0.21579
3631.82,0.15920
3608.68,0.12288
3585.53,0.09461
3562.39,0.07692
3539.24,0.06425
3516.1,0.05384
3492.95,0.04775
3469.81,0.04332
3446.66,0.04085
3423.52,0.04030
3400.37,0.04066
3377.23,0.04008
3354.08,0.04148
3330.94,0.04375
3307.79,0.04589
3284.65,0.04863
3261.5,0.05221
3238.36,0.05772
3215.21,0.06236
3192.07,0.06854
3168.92,0.07645
3145.78,0.08433
3122.63,0.09176
3099.49,0.09750
3076.34,0.10193
3053.2,0.10719
3030.05,0.10949
3006.91,0.10602
2983.76,0.09768
2960.62,0.07745
2937.47,0.06859
2914.33,0.06847
2891.18,0.07344
2868.04,0.07768
2844.9,0.08816
2821.75,0.11589
2798.61,0.13593
2775.46,0.14596
2752.32,0.15110
2729.17,0.15367
2706.03,0.16188
2682.88,0.17158
2659.74,0.17854
2636.59,0.18615
2613.45,0.19500
2590.3,0.20189
2567.16,0.20646
2544.01,0.21084
2520.87,0.21758
2497.72,0.22814
2474.58,0.23824
2451.43,0.24626
2428.29,0.25717
2405.14,0.27168
2382,0.28390
2358.85,0.29288
2335.71,0.30003
2312.56,0.30332
2289.42,0.30259
2266.27,0.29879
2243.13,0.29189
2219.98,0.29239
2196.84,0.28925
2173.69,0.27509
2150.55,0.26458
2127.4,0.26359
2104.26,0.26874
2081.11,0.27244
2057.97,0.26877
2034.82,0.27436
2011.68,0.28785
1988.53,0.29601
1965.39,0.29824
1942.24,0.30455
1919.1,0.31639
1895.95,0.31803
1872.81,0.31361
1849.66,0.30478
1826.52,0.28917
1803.37,0.26082
1780.23,0.21134
1757.08,0.10324
1733.94,0.07811
1710.79,0.08904
1687.65,0.05718
1664.5,0.04593
1641.36,0.05438
1618.21,0.05580
1595.07,0.05659
1571.93,0.08420
1548.78,0.08143
1525.64,0.06947
1502.49,0.05514
1479.35,0.06245
1456.2,0.05018
1433.06,0.05088
1409.91,0.05937
1386.77,0.05384
1363.62,0.05149
1340.48,0.05132
1317.33,0.05247
1294.19,0.05645
1271.04,0.04777
1247.9,0.04702
1224.75,0.04896
1201.61,0.05267
1178.46,0.04376
1155.32,0.04516
1132.17,0.03787
1109.03,0.04426
1085.88,0.04246
1062.74,0.05402
1039.59,0.06151
1016.45,0.07201
993.302,0.08069
970.157,0.10680
947.013,0.13166
923.868,0.13279
900.723,0.11486
877.578,0.12897
854.433,0.12819
831.288,0.12202
808.143,0.12024
784.998,0.11506
761.853,0.10439
738.708,0.09219
715.563,0.08198
692.419,0.07932
669.274,0.06991
646.129,0.06965
622.984,0.06424
599.839,0.06988

File: Luan_Panel_IS_S_220914_R3.dpt
7497.02,0.84840
7473.88,0.84805
7450.73,0.82750
7427.59,0.81522
7404.44,0.82279
7381.3,0.81709
7358.15,0.80431
7335.01,0.79855
7311.86,0.78930
7288.72,0.77456
7265.57,0.78614
7242.43,0.77398
7219.28,0.77821
7196.14,0.77542
7172.99,0.77537
7149.85,0.75816
7126.7,0.74066
7103.56,0.72935
7080.41,0.71996
7057.27,0.69631
7034.12,0.68889
7010.98,0.67466
6987.83,0.66208
6964.69,0.64664
6941.54,0.64709
6918.4,0.64359
6895.25,0.63904
6872.11,0.63383
6848.96,0.63676
6825.82,0.63439
6802.67,0.63032
6779.53,0.62925
6756.38,0.61779
6733.24,0.62036
6710.1,0.62878
6686.95,0.62274
6663.81,0.62403
6640.66,0.62914
6617.52,0.63637
6594.37,0.63562
6571.23,0.63882
6548.08,0.64452
6524.94,0.64613
6501.79,0.65086
6478.65,0.65266
6455.5,0.65820
6432.36,0.65739
6409.21,0.66052
6386.07,0.66500
6362.92,0.66134
6339.78,0.66635
6316.63,0.66910
6293.49,0.67137
6270.34,0.67756
6247.2,0.67891
6224.05,0.68655
6200.91,0.69392
6177.76,0.69617
6154.62,0.69946
6131.47,0.70646
6108.33,0.70865
6085.18,0.70785
6062.04,0.70412
6038.89,0.70159
6015.75,0.69599
5992.6,0.68998
5969.46,0.68434
5946.31,0.68657
5923.17,0.68732
5900.02,0.67948
5876.88,0.67724
5853.73,0.67910
5830.59,0.67614
5807.44,0.67215
5784.3,0.67257
5761.15,0.67547
5738.01,0.67934
5714.86,0.67800
5691.72,0.67756
5668.57,0.67769
5645.43,0.67658
5622.28,0.67916
5599.14,0.67662
5575.99,0.67811
5552.85,0.68370
5529.7,0.68347
5506.56,0.68402
5483.41,0.68895
5460.27,0.68615
5437.13,0.69187
5413.98,0.69231
5390.84,0.69879
5367.69,0.69440
5344.55,0.69047
5321.4,0.68340
5298.26,0.66477
5275.11,0.63075
5251.97,0.59059
5228.82,0.56480
5205.68,0.55050
5182.53,0.54891
5159.39,0.55267
5136.24,0.55730
5113.1,0.55873
5089.95,0.54931
5066.81,0.54984
5043.66,0.55973
5020.52,0.56991
4997.37,0.57671
4974.23,0.57563
4951.08,0.56586
4927.94,0.55038
4904.79,0.54040
4881.65,0.52787
4858.5,0.51535
4835.36,0.50433
4812.21,0.49464
4789.07,0.49010
4765.92,0.48721
4742.78,0.48588
4719.63,0.48621
4696.49,0.48638
4673.34,0.48837
4650.2,0.49063
4627.05,0.49563
4603.91,0.50377
4580.76,0.50876
4557.62,0.51214
4534.47,0.51521
4511.33,0.51656
4488.18,0.51158
4465.04,0.49281
4441.89,0.46798
4418.75,0.44226
4395.6,0.43296
4372.46,0.44215
4349.31,0.45007
4326.17,0.44532
4303.02,0.44053
4279.88,0.43273
4256.73,0.43743
4233.59,0.44051
4210.44,0.44141
4187.3,0.44118
4164.16,0.44839
4141.01,0.44430
4117.87,0.43067
4094.72,0.41253
4071.58,0.39280
4048.43,0.37124
4025.29,0.35523
4002.14,0.35341
3979,0.36018
3955.85,0.37037
3932.71,0.38006
3909.56,0.39002
3886.42,0.39835
3863.27,0.40851
3840.13,0.42004
3816.98,0.42542
3793.84,0.42575
3770.69,0.42269
3747.55,0.41491
3724.4,0.39999
3701.26,0.36916
3678.11,0.30837
3654.97,0.22694
3631.82,0.16939
3608.68,0.12988
3585.53,0.09889
3562.39,0.07764
3539.24,0.06487
3516.1,0.05515
3492.95,0.04753
3469.81,0.04320
3446.66,0.04089
3423.52,0.04039
3400.37,0.04066
3377.23,0.04016
3354.08,0.04105
3330.94,0.04414
3307.79,0.04678
3284.65,0.04970
3261.5,0.05375
3238.36,0.05859
3215.21,0.06315
3192.07,0.06902
3168.92,0.07695
3145.78,0.08521
3122.63,0.09259
3099.49,0.09884
3076.34,0.10403
3053.2,0.10837
3030.05,0.11212
3006.91,0.10702
2983.76,0.09833
2960.62,0.07708
2937.47,0.06808
2914.33,0.06905
2891.18,0.07367
2868.04,0.07851
2844.9,0.08829
2821.75,0.11673
2798.61,0.13677
2775.46,0.14728
2752.32,0.15157
2729.17,0.15466
2706.03,0.16263
2682.88,0.17254
2659.74,0.17995
2636.59,0.18712
2613.45,0.19600
2590.3,0.20263
2567.16,0.20826
2544.01,0.21198
2520.87,0.21898
2497.72,0.22950
2474.58,0.23970
2451.43,0.24764
2428.29,0.25923
2405.14,0.27325
2382,0.28538
2358.85,0.29512
2335.71,0.30267
2312.56,0.30645
2289.42,0.30552
2266.27,0.30222
2243.13,0.29542
2219.98,0.29627
2196.84,0.29315
2173.69,0.27903
2150.55,0.26846
2127.4,0.26753
2104.26,0.27267
2081.11,0.27641
2057.97,0.27261
2034.82,0.27789
2011.68,0.29160
1988.53,0.30004
1965.39,0.30183
1942.24,0.30795
1919.1,0.32003
1895.95,0.32199
1872.81,0.31715
1849.66,0.30827
1826.52,0.29187
1803.37,0.26282
1780.23,0.21241
1757.08,0.10294
1733.94,0.07828
1710.79,0.08936
1687.65,0.05738
1664.5,0.04603
1641.36,0.05531
1618.21,0.05574
1595.07,0.05685
1571.93,0.08413
1548.78,0.08199
1525.64,0.06944
1502.49,0.05510
1479.35,0.06262
1456.2,0.04959
1433.06,0.05090
1409.91,0.05933
1386.77,0.05364
1363.62,0.05140
1340.48,0.05168
1317.33,0.05278
1294.19,0.05652
1271.04,0.04819
1247.9,0.04711
1224.75,0.04865
1201.61,0.05302
1178.46,0.04380
1155.32,0.04556
1132.17,0.03765
1109.03,0.04421
1085.88,0.04131
1062.74,0.05356
1039.59,0.06147
1016.45,0.07258
993.302,0.08098
970.157,0.10661
947.013,0.13212
923.868,0.13395
900.723,0.11600
877.578,0.13069
854.433,0.12972
831.288,0.12350
808.143,0.12292
784.998,0.11765
761.853,0.10578
738.708,0.09322
715.563,0.08245
692.419,0.08016
669.274,0.07130
646.129,0.07028
622.984,0.06400
599.839,0.06828

File: Luan_Panel_IS_S_220914_R4.dpt
7497.02,0.83957
7473.88,0.83225
7450.73,0.81180
7427.59,0.82408
7404.44,0.81153
7381.3,0.80144
7358.15,0.79646
7335.01,0.79278
7311.86,0.78825
7288.72,0.78212
7265.57,0.77231
7242.43,0.78036
7219.28,0.77860
7196.14,0.76722
7172.99,0.75933
7149.85,0.74995
7126.7,0.74314
7103.56,0.72901
7080.41,0.71146
7057.27,0.69137
7034.12,0.68427
7010.98,0.66307
6987.83,0.66047
6964.69,0.65298
6941.54,0.64403
6918.4,0.64254
6895.25,0.63575
6872.11,0.63600
6848.96,0.62468
6825.82,0.63264
6802.67,0.62511
6779.53,0.62136
6756.38,0.62085
6733.24,0.61807
6710.1,0.62040
6686.95,0.61646
6663.81,0.62308
6640.66,0.62622
6617.52,0.62584
6594.37,0.63667
6571.23,0.63744
6548.08,0.64525
6524.94,0.64856
6501.79,0.64695
6478.65,0.64981
6455.5,0.65112
6432.36,0.65235
6409.21,0.65543
6386.07,0.65711
6362.92,0.65563
6339.78,0.66180
6316.63,0.66426
6293.49,0.66418
6270.34,0.67074
6247.2,0.67986
6224.05,0.68223
6200.91,0.69019
6177.76,0.69825
6154.62,0.69834
6131.47,0.69925
6108.33,0.70386
6085.18,0.70362
6062.04,0.69914
6038.89,0.69559
6015.75,0.68921
5992.6,0.68373
5969.46,0.68550
5946.31,0.68184
5923.17,0.68099
5900.02,0.67674
5876.88,0.67618
5853.73,0.67443
5830.59,0.67048
5807.44,0.66978
5784.3,0.66741
5761.15,0.67274
5738.01,0.67461
5714.86,0.67484
5691.72,0.67553
5668.57,0.67448
5645.43,0.67521
5622.28,0.67489
5599.14,0.67524
5575.99,0.67662
5552.85,0.67690
5529.7,0.68012
5506.56,0.68085
5483.41,0.68120
5460.27,0.68209
5437.13,0.68658
5413.98,0.69037
5390.84,0.69191
5367.69,0.69069
5344.55,0.69035
5321.4,0.68059
5298.26,0.66263
5275.11,0.63101
5251.97,0.59268
5228.82,0.56823
5205.68,0.55358
5182.53,0.55157
5159.39,0.55527
5136.24,0.55800
5113.1,0.55808
5089.95,0.54963
5066.81,0.54948
5043.66,0.55968
5020.52,0.56903
4997.37,0.57488
4974.23,0.57586
4951.08,0.56233
4927.94,0.54900
4904.79,0.53742
4881.65,0.52578
4858.5,0.51403
4835.36,0.50184
4812.21,0.49270
4789.07,0.48853
4765.92,0.48664
4742.78,0.48379
4719.63,0.48539
4696.49,0.48477
4673.34,0.48574
4650.2,0.48804
4627.05,0.49262
4603.91,0.50058
4580.76,0.50707
4557.62,0.50968
4534.47,0.51205
4511.33,0.51406
4488.18,0.50942
4465.04,0.49002
4441.89,0.46611
4418.75,0.43976
4395.6,0.43152
4372.46,0.43962
4349.31,0.44763
4326.17,0.44427
4303.02,0.43802
4279.88,0.43163
4256.73,0.43587
4233.59,0.43938
4210.44,0.44013
4187.3,0.44034
4164.16,0.44624
4141.01,0.44339
4117.87,0.42935
4094.72,0.41293
4071.58,0.39120
4048.43,0.37037
4025.29,0.35401
4002.14,0.35266
3979,0.35908
3955.85,0.36871
3932.71,0.38007
3909.56,0.39041
3886.42,0.39784
3863.27,0.40769
3840.13,0.42001
3816.98,0.42502
3793.84,0.42651
3770.69,0.42332
3747.55,0.41639
3724.4,0.40127
3701.26,0.37265
3678.11,0.31276
3654.97,0.23289
3631.82,0.17527
3608.68,0.13280
3585.53,0.10039
3562.39,0.07974
3539.24,0.06549
3516.1,0.05548
3492.95,0.04817
3469.81,0.04359
3446.66,0.04220
3423.52,0.04086
3400.37,0.04019
3377.23,0.04070
3354.08,0.04084
3330.94,0.04389
3307.79,0.04705
3284.65,0.04899
3261.5,0.05335
3238.36,0.05844
3215.21,0.06276
3192.07,0.07038
3168.92,0.07724
3145.78,0.08591
3122.63,0.09361
3099.49,0.09928
3076.34,0.10450
3053.2,0.10878
3030.05,0.11238
3006.91,0.10713
2983.76,0.09879
2960.62,0.07766
2937.47,0.06788
2914.33,0.06816
2891.18,0.07355
2868.04,0.07765
2844.9,0.08853
2821.75,0.11654
2798.61,0.13659
2775.46,0.14660
2752.32,0.15177
2729.17,0.15430
2706.03,0.16277
2682.88,0.17287
2659.74,0.17969
2636.59,0.18716
2613.45,0.19580
2590.3,0.20230
2567.16,0.20750
2544.01,0.21165
2520.87,0.21862
2497.72,0.22916
2474.58,0.23916
2451.43,0.24722
2428.29,0.25879
2405.14,0.27301
2382,0.28495
2358.85,0.29487
2335.71,0.30270
2312.56,0.30628
2289.42,0.30651
2266.27,0.30277
2243.13,0.29585
2219.98,0.29721
2196.84,0.29408
2173.69,0.28011
2150.55,0.26969
2127.4,0.26889
2104.26,0.27406
2081.11,0.27737
2057.97,0.27366
2034.82,0.27897
2011.68,0.29257
1988.53,0.30081
1965.39,0.30238
1942.24,0.30853
1919.1,0.32092
1895.95,0.32212
1872.81,0.31792
1849.66,0.30832
1826.52,0.29212
1803.37,0.26331
1780.23,0.21150
1757.08,0.10260
1733.94,0.07905
1710.79,0.08957
1687.65,0.05733
1664.5,0.04658
1641.36,0.05578
1618.21,0.05583
1595.07,0.05673
1571.93,0.08508
1548.78,0.08220
1525.64,0.06951
1502.49,0.05542
1479.35,0.06281
1456.2,0.04986
1433.06,0.05102
1409.91,0.05961
1386.77,0.05375
1363.62,0.05099
1340.48,0.05105
1317.33,0.05265
1294.19,0.05680
1271.04,0.04788
1247.9,0.04745
1224.75,0.04875
1201.61,0.05342
1178.46,0.04431
1155.32,0.04490
1132.17,0.03768
1109.03,0.04416
1085.88,0.04284
1062.74,0.05370
1039.59,0.06176
1016.45,0.07284
993.302,0.08091
970.157,0.10632
947.013,0.13274
923.868,0.13394
900.723,0.11591
877.578,0.13050
854.433,0.13038
831.288,0.12442
808.143,0.12476
784.998,0.11816
761.853,0.10706
738.708,0.09422
715.563,0.08499
692.419,0.08053
669.274,0.07120
646.129,0.07220
622.984,0.06681
599.839,0.07124

File: Luan_Panel_IS_S_220914_R5.dpt
7497.02,0.84602
7473.88,0.84252
7450.73,0.83431
7427.59,0.82989
7404.44,0.81752
7381.3,0.81457
7358.15,0.80800
7335.01,0.79684
7311.86,0.79399
7288.72,0.78985
7265.57,0.78156
7242.43,0.78635
7219.28,0.78081
7196.14,0.77950
7172.99,0.76910
7149.85,0.76210
7126.7,0.75157
7103.56,0.73895
7080.41,0.72080
7057.27,0.70817
7034.12,0.68154
7010.98,0.67357
6987.83,0.66550
6964.69,0.65788
6941.54,0.65035
6918.4,0.64894
6895.25,0.64705
6872.11,0.63861
6848.96,0.64202
6825.82,0.63799
6802.67,0.63459
6779.53,0.62795
6756.38,0.62646
6733.24,0.62403
6710.1,0.62323
6686.95,0.62787
6663.81,0.62527
6640.66,0.63316
6617.52,0.63266
6594.37,0.64242
6571.23,0.64364
6548.08,0.64447
6524.94,0.64895
6501.79,0.65446
6478.65,0.65560
6455.5,0.66042
6432.36,0.65219
6409.21,0.66018
6386.07,0.66575
6362.92,0.66859
6339.78,0.66691
6316.63,0.66989
6293.49,0.67198
6270.34,0.67751
6247.2,0.68607
6224.05,0.69019
6200.91,0.69470
6177.76,0.70001
6154.62,0.70395
6131.47,0.70851
6108.33,0.70883
6085.18,0.70901
6062.04,0.70495
6038.89,0.70038
6015.75,0.70023
5992.6,0.69094
5969.46,0.68949
5946.31,0.68706
5923.17,0.68828
5900.02,0.68215
5876.88,0.67885
5853.73,0.67864
5830.59,0.67838
5807.44,0.67660
5784.3,0.67481
5761.15,0.68035
5738.01,0.67977
5714.86,0.68010
5691.72,0.68236
5668.57,0.68164
5645.43,0.68044
5622.28,0.68216
5599.14,0.68093
5575.99,0.68198
5552.85,0.68288
5529.7,0.68522
5506.56,0.68619
5483.41,0.68948
5460.27,0.68954
5437.13,0.69489
5413.98,0.69686
5390.84,0.69974
5367.69,0.69708
5344.55,0.69606
5321.4,0.68823
5298.26,0.67120
5275.11,0.64391
5251.97,0.60495
5228.82,0.58096
5205.68,0.57056
5182.53,0.56785
5159.39,0.56906
5136.24,0.57312
5113.1,0.57128
5089.95,0.56152
5066.81,0.55824
5043.66,0.56986
5020.52,0.57846
4997.37,0.58288
4974.23,0.58303
4951.08,0.57006
4927.94,0.55438
4904.79,0.54145
4881.65,0.53138
4858.5,0.51738
4835.36,0.50626
4812.21,0.49524
4789.07,0.49163
4765.92,0.48932
4742.78,0.48812
4719.63,0.48891
4696.49,0.48804
4673.34,0.48775
4650.2,0.49289
4627.05,0.49595
4603.91,0.50489
4580.76,0.51115
4557.62,0.51330
4534.47,0.51614
4511.33,0.51873
4488.18,0.51218
4465.04,0.49390
4441.89,0.46904
4418.75,0.44366
4395.6,0.43369
4372.46,0.44268
4349.31,0.45090
4326.17,0.44782
4303.02,0.44124
4279.88,0.43494
4256.73,0.43910
4233.59,0.44278
4210.44,0.44350
4187.3,0.44401
4164.16,0.45126
4141.01,0.44630
4117.87,0.43327
4094.72,0.41609
4071.58,0.39457
4048.43,0.37319
4025.29,0.35786
4002.14,0.35554
3979,0.36296
3955.85,0.37246
3932.71,0.38305
3909.56,0.39267
3886.42,0.40144
3863.27,0.41259
3840.13,0.42510
3816.98,0.43105
3793.84,0.43229
3770.69,0.42915
3747.55,0.42318
3724.4,0.40948
3701.26,0.38147
3678.11,0.32453
3654.97,0.24421
3631.82,0.18517
3608.68,0.13952
3585.53,0.10409
3562.39,0.08142
3539.24,0.06715
3516.1,0.05622
3492.95,0.04815
3469.81,0.04418
3446.66,0.04163
3423.52,0.04104
3400.37,0.04075
3377.23,0.04054
3354.08,0.04197
3330.94,0.04444
3307.79,0.04703
3284.65,0.04963
3261.5,0.05387
3238.36,0.05889
3215.21,0.06403
3192.07,0.06995
3168.92,0.07871
3145.78,0.08769
3122.63,0.09489
3099.49,0.10073
3076.34,0.10592
3053.2,0.11067
3030.05,0.11351
3006.91,0.10818
2983.76,0.09893
2960.62,0.07770
2937.47,0.06796
2914.33,0.06800
2891.18,0.07379
2868.04,0.07790
2844.9,0.08852
2821.75,0.11725
2798.61,0.13765
2775.46,0.14821
2752.32,0.15294
2729.17,0.15569
2706.03,0.16366
2682.88,0.17419
2659.74,0.18078
2636.59,0.18826
2613.45,0.19671
2590.3,0.20357
2567.16,0.20888
2544.01,0.21264
2520.87,0.21999
2497.72,0.23047
2474.58,0.24095
2451.43,0.24899
2428.29,0.26026
2405.14,0.27469
2382,0.28677
2358.85,0.29734
2335.71,0.30564
2312.56,0.30902
2289.42,0.30917
2266.27,0.30548
2243.13,0.29923
2219.98,0.30058
2196.84,0.29816
2173.69,0.28389
2150.55,0.27354
2127.4,0.27277
2104.26,0.27773
2081.11,0.28130
2057.97,0.27737
2034.82,0.28273
2011.68,0.29635
1988.53,0.30473
1965.39,0.30596
1942.24,0.31211
1919.1,0.32470
1895.95,0.32597
1872.81,0.32097
1849.66,0.31158
1826.52,0.29513
1803.37,0.26551
1780.23,0.21278
1757.08,0.10211
1733.94,0.07947
1710.79,0.08968
1687.65,0.05753
1664.5,0.04646
1641.36,0.05608
1618.21,0.05605
1595.07,0.05686
1571.93,0.08507
1548.78,0.08262
1525.64,0.06944
1502.49,0.05485
1479.35,0.06275
1456.2,0.04960
1433.06,0.05117
1409.91,0.05938
1386.77,0.05381
1363.62,0.05092
1340.48,0.05105
1317.33,0.05270
1294.19,0.05657
1271.04,0.04795
1247.9,0.04692
1224.75,0.04920
1201.61,0.05232
1178.46,0.04373
1155.32,0.04535
1132.17,0.03827
1109.03,0.04363
1085.88,0.04206
1062.74,0.05423
1039.59,0.06145
1016.45,0.07236
993.302,0.08123
970.157,0.10692
947.013,0.13273
923.868,0.13444
900.723,0.11643
877.578,0.13204
854.433,0.13221
831.288,0.12509
808.143,0.12581
784.998,0.11997
761.853,0.10845
738.708,0.09523
715.563,0.08603
692.419,0.07985
669.274,0.07282
646.129,0.07242
622.984,0.06564
599.839,0.07129