Folder: fsri_materials_database/01_Data/Luan_Panel/FTIR/IS (part 2)

File: Luan_Panel_IS_S_220914_R6.dpt
7497.02,0.84545
7473.88,0.84356
7450.73,0.83040
7427.59,0.82396
7404.44,0.81724
7381.3,0.80365
7358.15,0.80843
7335.01,0.79275
7311.86,0.79597
7288.72,0.78860
7265.57,0.78642
7242.43,0.77840
7219.28,0.78235
7196.14,0.77483
7172.99,0.76716
7149.85,0.75964
7126.7,0.75833
7103.56,0.73532
7080.41,0.71803
7057.27,0.70301
7034.12,0.68636
7010.98,0.67376
6987.83,0.66904
6964.69,0.65639
6941.54,0.65552
6918.4,0.64817
6895.25,0.64350
6872.11,0.64487
6848.96,0.63645
6825.82,0.63870
6802.67,0.63433
6779.53,0.63256
6756.38,0.63198
6733.24,0.62565
6710.1,0.62196
6686.95,0.62489
6663.81,0.63091
6640.66,0.63140
6617.52,0.63541
6594.37,0.63761
6571.23,0.64535
6548.08,0.64377
6524.94,0.65019
6501.79,0.65541
6478.65,0.65932
6455.5,0.65478
6432.36,0.65938
6409.21,0.65957
6386.07,0.66338
6362.92,0.66417
6339.78,0.66785
6316.63,0.67093
6293.49,0.67556
6270.34,0.67967
6247.2,0.68447
6224.05,0.68994
6200.91,0.69538
6177.76,0.70002
6154.62,0.70847
6131.47,0.70751
6108.33,0.71182
6085.18,0.70871
6062.04,0.70689
6038.89,0.70138
6015.75,0.69903
5992.6,0.69403
5969.46,0.68885
5946.31,0.68976
5923.17,0.68873
5900.02,0.68453
5876.88,0.68069
5853.73,0.67983
5830.59,0.68237
5807.44,0.67721
5784.3,0.67431
5761.15,0.67906
5738.01,0.68130
5714.86,0.68342
5691.72,0.68141
5668.57,0.68068
5645.43,0.68231
5622.28,0.68291
5599.14,0.68128
5575.99,0.68437
5552.85,0.68694
5529.7,0.68773
5506.56,0.68938
5483.41,0.68763
5460.27,0.68932
5437.13,0.69500
5413.98,0.69686
5390.84,0.70018
5367.69,0.70137
5344.55,0.69902
5321.4,0.69220
5298.26,0.67472
5275.11,0.64631
5251.97,0.61039
5228.82,0.58634
5205.68,0.57326
5182.53,0.57183
5159.39,0.57428
5136.24,0.57854
5113.1,0.57385
5089.95,0.56434
5066.81,0.56234
5043.66,0.57196
5020.52,0.58054
4997.37,0.58687
4974.23,0.58452
4951.08,0.57149
4927.94,0.55629
4904.79,0.54277
4881.65,0.53133
4858.5,0.51892
4835.36,0.50713
4812.21,0.49674
4789.07,0.49254
4765.92,0.49104
4742.78,0.48934
4719.63,0.48978
4696.49,0.48891
4673.34,0.49026
4650.2,0.49383
4627.05,0.49834
4603.91,0.50603
4580.76,0.51292
4557.62,0.51498
4534.47,0.51699
4511.33,0.51971
4488.18,0.51428
4465.04,0.49524
4441.89,0.47010
4418.75,0.44433
4395.6,0.43362
4372.46,0.44293
4349.31,0.45189
4326.17,0.44774
4303.02,0.44181
4279.88,0.43577
4256.73,0.43967
4233.59,0.44368
4210.44,0.44376
4187.3,0.44507
4164.16,0.45173
4141.01,0.44877
4117.87,0.43483
4094.72,0.41677
4071.58,0.39585
4048.43,0.37376
4025.29,0.35869
4002.14,0.35662
3979,0.36348
3955.85,0.37351
3932.71,0.38359
3909.56,0.39377
3886.42,0.40332
3863.27,0.41338
3840.13,0.42628
3816.98,0.43155
3793.84,0.43361
3770.69,0.43226
3747.55,0.42577
3724.4,0.41235
3701.26,0.38477
3678.11,0.32878
3654.97,0.25014
3631.82,0.18920
3608.68,0.14238
3585.53,0.10576
3562.39,0.08257
3539.24,0.06725
3516.1,0.05647
3492.95,0.04846
3469.81,0.04361
3446.66,0.04180
3423.52,0.04095
3400.37,0.04098
3377.23,0.04063
3354.08,0.04186
3330.94,0.04419
3307.79,0.04680
3284.65,0.04996
3261.5,0.05377
3238.36,0.05907
3215.21,0.06421
3192.07,0.07055
3168.92,0.07864
3145.78,0.08796
3122.63,0.09512
3099.49,0.10244
3076.34,0.10559
3053.2,0.11127
3030.05,0.11454
3006.91,0.10891
2983.76,0.09926
2960.62,0.07781
2937.47,0.06865
2914.33,0.06868
2891.18,0.07374
2868.04,0.07832
2844.9,0.08864
2821.75,0.11743
2798.61,0.13823
2775.46,0.14811
2752.32,0.15334
2729.17,0.15552
2706.03,0.16440
2682.88,0.17390
2659.74,0.18139
2636.59,0.18858
2613.45,0.19723
2590.3,0.20420
2567.16,0.20965
2544.01,0.21346
2520.87,0.22037
2497.72,0.23096
2474.58,0.24150
2451.43,0.24931
2428.29,0.26094
2405.14,0.27532
2382,0.28818
2358.85,0.29859
2335.71,0.30662
2312.56,0.31009
2289.42,0.31006
2266.27,0.30683
2243.13,0.30007
2219.98,0.30210
2196.84,0.29964
2173.69,0.28535
2150.55,0.27492
2127.4,0.27365
2104.26,0.27914
2081.11,0.28310
2057.97,0.27864
2034.82,0.28441
2011.68,0.29798
1988.53,0.30606
1965.39,0.30739
1942.24,0.31331
1919.1,0.32590
1895.95,0.32733
1872.81,0.32234
1849.66,0.31273
1826.52,0.29604
1803.37,0.26673
1780.23,0.21252
1757.08,0.10204
1733.94,0.07974
1710.79,0.08993
1687.65,0.05720
1664.5,0.04639
1641.36,0.05626
1618.21,0.05632
1595.07,0.05703
1571.93,0.08551
1548.78,0.08309
1525.64,0.06955
1502.49,0.05498
1479.35,0.06255
1456.2,0.04976
1433.06,0.05108
1409.91,0.05938
1386.77,0.05381
1363.62,0.05138
1340.48,0.05107
1317.33,0.05263
1294.19,0.05686
1271.04,0.04788
1247.9,0.04689
1224.75,0.04851
1201.61,0.05294
1178.46,0.04379
1155.32,0.04528
1132.17,0.03817
1109.03,0.04394
1085.88,0.04204
1062.74,0.05394
1039.59,0.06205
1016.45,0.07204
993.302,0.08105
970.157,0.10716
947.013,0.13330
923.868,0.13502
900.723,0.11695
877.578,0.13161
854.433,0.13330
831.288,0.12564
808.143,0.12566
784.998,0.12165
761.853,0.10991
738.708,0.09684
715.563,0.08489
692.419,0.08228
669.274,0.07117
646.129,0.07224
622.984,0.06545
599.839,0.06942

File: Luan_Panel_IS_S_220914_R7.dpt
7497.02,0.85470
7473.88,0.85125
7450.73,0.84350
7427.59,0.83475
7404.44,0.82508
7381.3,0.82094
7358.15,0.80829
7335.01,0.79650
7311.86,0.78996
7288.72,0.79717
7265.57,0.79128
7242.43,0.78259
7219.28,0.78827
7196.14,0.77841
7172.99,0.77772
7149.85,0.76452
7126.7,0.75251
7103.56,0.74199
7080.41,0.72230
7057.27,0.70919
7034.12,0.69164
7010.98,0.67290
6987.83,0.66196
6964.69,0.65469
6941.54,0.64653
6918.4,0.64899
6895.25,0.64663
6872.11,0.63966
6848.96,0.64342
6825.82,0.63997
6802.67,0.63722
6779.53,0.62965
6756.38,0.62745
6733.24,0.62422
6710.1,0.62500
6686.95,0.62750
6663.81,0.62869
6640.66,0.63236
6617.52,0.63695
6594.37,0.64268
6571.23,0.64765
6548.08,0.64773
6524.94,0.65430
6501.79,0.65638
6478.65,0.65568
6455.5,0.66038
6432.36,0.66102
6409.21,0.66290
6386.07,0.66312
6362.92,0.66649
6339.78,0.66727
6316.63,0.67030
6293.49,0.67398
6270.34,0.68210
6247.2,0.68774
6224.05,0.69096
6200.91,0.69355
6177.76,0.70220
6154.62,0.70285
6131.47,0.70994
6108.33,0.71305
6085.18,0.70999
6062.04,0.70621
6038.89,0.70533
6015.75,0.69844
5992.6,0.69505
5969.46,0.68814
5946.31,0.68840
5923.17,0.68925
5900.02,0.68541
5876.88,0.68207
5853.73,0.67915
5830.59,0.67743
5807.44,0.67452
5784.3,0.67374
5761.15,0.67817
5738.01,0.67898
5714.86,0.67961
5691.72,0.68113
5668.57,0.68102
5645.43,0.68082
5622.28,0.68173
5599.14,0.68259
5575.99,0.68358
5552.85,0.68457
5529.7,0.68700
5506.56,0.68604
5483.41,0.68700
5460.27,0.69081
5437.13,0.69387
5413.98,0.69799
5390.84,0.70049
5367.69,0.69903
5344.55,0.69566
5321.4,0.69227
5298.26,0.67642
5275.11,0.64821
5251.97,0.61411
5228.82,0.59031
5205.68,0.57962
5182.53,0.57515
5159.39,0.57770
5136.24,0.58047
5113.1,0.57724
5089.95,0.56623
5066.81,0.56315
5043.66,0.57302
5020.52,0.58102
4997.37,0.58557
4974.23,0.58378
4951.08,0.57040
4927.94,0.55465
4904.79,0.54346
4881.65,0.53131
4858.5,0.51955
4835.36,0.50599
4812.21,0.49612
4789.07,0.49199
4765.92,0.48924
4742.78,0.48871
4719.63,0.48752
4696.49,0.48834
4673.34,0.48885
4650.2,0.49171
4627.05,0.49616
4603.91,0.50478
4580.76,0.51087
4557.62,0.51366
4534.47,0.51572
4511.33,0.51676
4488.18,0.51346
4465.04,0.49455
4441.89,0.46995
4418.75,0.44380
4395.6,0.43325
4372.46,0.44264
4349.31,0.45091
4326.17,0.44723
4303.02,0.44127
4279.88,0.43443
4256.73,0.43948
4233.59,0.44325
4210.44,0.44374
4187.3,0.44462
4164.16,0.45119
4141.01,0.44722
4117.87,0.43471
4094.72,0.41622
4071.58,0.39625
4048.43,0.37378
4025.29,0.35771
4002.14,0.35678
3979,0.36330
3955.85,0.37259
3932.71,0.38367
3909.56,0.39449
3886.42,0.40357
3863.27,0.41329
3840.13,0.42622
3816.98,0.43278
3793.84,0.43468
3770.69,0.43393
3747.55,0.42738
3724.4,0.41395
3701.26,0.38727
3678.11,0.33295
3654.97,0.25387
3631.82,0.19313
3608.68,0.14501
3585.53,0.10732
3562.39,0.08358
3539.24,0.06819
3516.1,0.05671
3492.95,0.04870
3469.81,0.04396
3446.66,0.04211
3423.52,0.04040
3400.37,0.04044
3377.23,0.04070
3354.08,0.04102
3330.94,0.04382
3307.79,0.04734
3284.65,0.05001
3261.5,0.05461
3238.36,0.05881
3215.21,0.06487
3192.07,0.07087
3168.92,0.07902
3145.78,0.08809
3122.63,0.09546
3099.49,0.10239
3076.34,0.10666
3053.2,0.11119
3030.05,0.11440
3006.91,0.10918
2983.76,0.09941
2960.62,0.07761
2937.47,0.06858
2914.33,0.06887
2891.18,0.07381
2868.04,0.07811
2844.9,0.08866
2821.75,0.11738
2798.61,0.13796
2775.46,0.14851
2752.32,0.15362
2729.17,0.15601
2706.03,0.16452
2682.88,0.17426
2659.74,0.18173
2636.59,0.18883
2613.45,0.19737
2590.3,0.20394
2567.16,0.20942
2544.01,0.21319
2520.87,0.22020
2497.72,0.23067
2474.58,0.24152
2451.43,0.24937
2428.29,0.26046
2405.14,0.27515
2382,0.28765
2358.85,0.29855
2335.71,0.30646
2312.56,0.31026
2289.42,0.31011
2266.27,0.30743
2243.13,0.30042
2219.98,0.30267
2196.84,0.29991
2173.69,0.28550
2150.55,0.27554
2127.4,0.27439
2104.26,0.28023
2081.11,0.28374
2057.97,0.27904
2034.82,0.28504
2011.68,0.29821
1988.53,0.30615
1965.39,0.30783
1942.24,0.31364
1919.1,0.32587
1895.95,0.32761
1872.81,0.32274
1849.66,0.31315
1826.52,0.29656
1803.37,0.26672
1780.23,0.21239
1757.08,0.10193
1733.94,0.07944
1710.79,0.08964
1687.65,0.05708
1664.5,0.04693
1641.36,0.05664
1618.21,0.05645
1595.07,0.05696
1571.93,0.08548
1548.78,0.08314
1525.64,0.06995
1502.49,0.05541
1479.35,0.06265
1456.2,0.04939
1433.06,0.05093
1409.91,0.05940
1386.77,0.05370
1363.62,0.05137
1340.48,0.05114
1317.33,0.05234
1294.19,0.05696
1271.04,0.04791
1247.9,0.04732
1224.75,0.04849
1201.61,0.05321
1178.46,0.04358
1155.32,0.04533
1132.17,0.03756
1109.03,0.04393
1085.88,0.04190
1062.74,0.05375
1039.59,0.06093
1016.45,0.07238
993.302,0.08095
970.157,0.10667
947.013,0.13328
923.868,0.13483
900.723,0.11747
877.578,0.13219
854.433,0.13253
831.288,0.12667
808.143,0.12741
784.998,0.12215
761.853,0.11001
738.708,0.09720
715.563,0.08639
692.419,0.08170
669.274,0.07146
646.129,0.07285
622.984,0.06736
599.839,0.06841

File: Luan_Panel_IS_S_220914_R8.dpt
7497.02,0.84145
7473.88,0.83828
7450.73,0.83690
7427.59,0.80761
7404.44,0.81457
7381.3,0.81590
7358.15,0.79950
7335.01,0.78195
7311.86,0.78825
7288.72,0.77726
7265.57,0.77694
7242.43,0.78353
7219.28,0.78104
7196.14,0.76948
7172.99,0.76976
7149.85,0.75847
7126.7,0.74852
7103.56,0.73403
7080.41,0.71577
7057.27,0.70816
7034.12,0.68713
7010.98,0.67375
6987.83,0.65805
6964.69,0.65266
6941.54,0.64784
6918.4,0.64489
6895.25,0.63821
6872.11,0.63949
6848.96,0.63415
6825.82,0.63706
6802.67,0.63191
6779.53,0.62956
6756.38,0.62401
6733.24,0.62169
6710.1,0.62168
6686.95,0.61750
6663.81,0.62878
6640.66,0.62643
6617.52,0.63294
6594.37,0.63714
6571.23,0.64053
6548.08,0.64591
6524.94,0.64726
6501.79,0.64628
6478.65,0.65231
6455.5,0.65373
6432.36,0.65657
6409.21,0.65446
6386.07,0.66019
6362.92,0.66175
6339.78,0.66644
6316.63,0.66739
6293.49,0.66893
6270.34,0.67834
6247.2,0.68066
6224.05,0.68866
6200.91,0.69406
6177.76,0.69542
6154.62,0.70415
6131.47,0.70375
6108.33,0.70617
6085.18,0.70337
6062.04,0.70326
6038.89,0.70004
6015.75,0.69372
5992.6,0.68751
5969.46,0.68251
5946.31,0.68588
5923.17,0.68525
5900.02,0.67853
5876.88,0.67888
5853.73,0.67570
5830.59,0.67466
5807.44,0.67040
5784.3,0.67143
5761.15,0.67479
5738.01,0.67712
5714.86,0.67892
5691.72,0.67750
5668.57,0.67837
5645.43,0.67809
5622.28,0.67696
5599.14,0.67865
5575.99,0.67876
5552.85,0.68246
5529.7,0.68371
5506.56,0.68383
5483.41,0.68498
5460.27,0.68760
5437.13,0.69135
5413.98,0.69539
5390.84,0.69643
5367.69,0.69684
5344.55,0.69528
5321.4,0.68915
5298.26,0.67388
5275.11,0.64833
5251.97,0.61321
5228.82,0.58988
5205.68,0.57983
5182.53,0.57509
5159.39,0.57690
5136.24,0.58086
5113.1,0.57615
5089.95,0.56504
5066.81,0.56269
5043.66,0.57076
5020.52,0.58014
4997.37,0.58482
4974.23,0.58313
4951.08,0.56974
4927.94,0.55383
4904.79,0.54071
4881.65,0.52971
4858.5,0.51639
4835.36,0.50329
4812.21,0.49370
4789.07,0.48993
4765.92,0.48761
4742.78,0.48631
4719.63,0.48653
4696.49,0.48751
4673.34,0.48896
4650.2,0.49132
4627.05,0.49566
4603.91,0.50368
4580.76,0.50940
4557.62,0.51187
4534.47,0.51420
4511.33,0.51759
4488.18,0.51240
4465.04,0.49339
4441.89,0.46731
4418.75,0.44138
4395.6,0.43311
4372.46,0.44117
4349.31,0.44967
4326.17,0.44506
4303.02,0.44014
4279.88,0.43315
4256.73,0.43843
4233.59,0.44163
4210.44,0.44249
4187.3,0.44337
4164.16,0.45061
4141.01,0.44654
4117.87,0.43284
4094.72,0.41553
4071.58,0.39494
4048.43,0.37291
4025.29,0.35686
4002.14,0.35579
3979,0.36297
3955.85,0.37255
3932.71,0.38350
3909.56,0.39392
3886.42,0.40202
3863.27,0.41274
3840.13,0.42548
3816.98,0.43137
3793.84,0.43400
3770.69,0.43284
3747.55,0.42659
3724.4,0.41389
3701.26,0.38780
3678.11,0.33387
3654.97,0.25515
3631.82,0.19442
3608.68,0.14594
3585.53,0.10800
3562.39,0.08299
3539.24,0.06736
3516.1,0.05670
3492.95,0.04810
3469.81,0.04349
3446.66,0.04203
3423.52,0.04045
3400.37,0.04108
3377.23,0.04068
3354.08,0.04111
3330.94,0.04404
3307.79,0.04743
3284.65,0.04975
3261.5,0.05410
3238.36,0.05871
3215.21,0.06397
3192.07,0.07092
3168.92,0.07887
3145.78,0.08731
3122.63,0.09545
3099.49,0.10246
3076.34,0.10665
3053.2,0.11159
3030.05,0.11419
3006.91,0.10889
2983.76,0.09919
2960.62,0.07783
2937.47,0.06919
2914.33,0.06798
2891.18,0.07367
2868.04,0.07807
2844.9,0.08867
2821.75,0.11713
2798.61,0.13782
2775.46,0.14847
2752.32,0.15328
2729.17,0.15552
2706.03,0.16411
2682.88,0.17416
2659.74,0.18131
2636.59,0.18844
2613.45,0.19717
2590.3,0.20398
2567.16,0.20884
2544.01,0.21297
2520.87,0.21968
2497.72,0.23047
2474.58,0.24155
2451.43,0.24882
2428.29,0.26033
2405.14,0.27527
2382,0.28732
2358.85,0.29839
2335.71,0.30662
2312.56,0.31006
2289.42,0.30969
2266.27,0.30727
2243.13,0.30053
2219.98,0.30281
2196.84,0.29959
2173.69,0.28596
2150.55,0.27552
2127.4,0.27467
2104.26,0.27998
2081.11,0.28375
2057.97,0.27959
2034.82,0.28504
2011.68,0.29843
1988.53,0.30675
1965.39,0.30782
1942.24,0.31392
1919.1,0.32652
1895.95,0.32756
1872.81,0.32267
1849.66,0.31297
1826.52,0.29664
1803.37,0.26643
1780.23,0.21272
1757.08,0.10180
1733.94,0.07934
1710.79,0.08994
1687.65,0.05709
1664.5,0.04676
1641.36,0.05638
1618.21,0.05609
1595.07,0.05715
1571.93,0.08580
1548.78,0.08316
1525.64,0.06982
1502.49,0.05496
1479.35,0.06282
1456.2,0.05021
1433.06,0.05104
1409.91,0.05938
1386.77,0.05420
1363.62,0.05131
1340.48,0.05129
1317.33,0.05261
1294.19,0.05643
1271.04,0.04827
1247.9,0.04716
1224.75,0.04926
1201.61,0.05293
1178.46,0.04324
1155.32,0.04503
1132.17,0.03808
1109.03,0.04413
1085.88,0.04121
1062.74,0.05434
1039.59,0.06160
1016.45,0.07243
993.302,0.08233
970.157,0.10700
947.013,0.13321
923.868,0.13458
900.723,0.11760
877.578,0.13172
854.433,0.13302
831.288,0.12674
808.143,0.12740
784.998,0.12223
761.853,0.11101
738.708,0.09607
715.563,0.08706
692.419,0.08214
669.274,0.07109
646.129,0.07340
622.984,0.06481
599.839,0.07208

File: Luan_Panel_IS_T_220914_R4.dpt
7497.02,0.01995
7473.88,0.01831
7450.73,0.02996
7427.59,0.01889
7404.44,0.02128
7381.3,0.02404
7358.15,0.02247
7335.01,0.02214
7311.86,0.03537
7288.72,0.02494
7265.57,0.02250
7242.43,0.02106
7219.28,0.02653
7196.14,0.02107
7172.99,0.02623
7149.85,0.02692
7126.7,0.02682
7103.56,0.02903
7080.41,0.02598
7057.27,0.02219
7034.12,0.03045
7010.98,0.02800
6987.83,0.02577
6964.69,0.02979
6941.54,0.02563
6918.4,0.02096
6895.25,0.01721
6872.11,0.02216
6848.96,0.02282
6825.82,0.02474
6802.67,0.02802
6779.53,0.02454
6756.38,0.02553
6733.24,0.02303
6710.1,0.02036
6686.95,0.02358
6663.81,0.02062
6640.66,0.01988
6617.52,0.01905
6594.37,0.01995
6571.23,0.02477
6548.08,0.02759
6524.94,0.02053
6501.79,0.02246
6478.65,0.01940
6455.5,0.02194
6432.36,0.02217
6409.21,0.02184
6386.07,0.02388
6362.92,0.02343
6339.78,0.02476
6316.63,0.02101
6293.49,0.02531
6270.34,0.02283
6247.2,0.02123
6224.05,0.02364
6200.91,0.02371
6177.76,0.01916
6154.62,0.02228
6131.47,0.02283
6108.33,0.02298
6085.18,0.02070
6062.04,0.02109
6038.89,0.02193
6015.75,0.02311
5992.6,0.02291
5969.46,0.02300
5946.31,0.02042
5923.17,0.02249
5900.02,0.01777
5876.88,0.02015
5853.73,0.02212
5830.59,0.02268
5807.44,0.02103
5784.3,0.02297
5761.15,0.02157
5738.01,0.02053
5714.86,0.02222
5691.72,0.02086
5668.57,0.02436
5645.43,0.02237
5622.28,0.02185
5599.14,0.02150
5575.99,0.02098
5552.85,0.02322
5529.7,0.02110
5506.56,0.02315
5483.41,0.02240
5460.27,0.02390
5437.13,0.02132
5413.98,0.02254
5390.84,0.02173
5367.69,0.02209
5344.55,0.02231
5321.4,0.02293
5298.26,0.02207
5275.11,0.02152
5251.97,0.02152
5228.82,0.02257
5205.68,0.02246
5182.53,0.02156
5159.39,0.02260
5136.24,0.02327
5113.1,0.02041
5089.95,0.02170
5066.81,0.02187
5043.66,0.02128
5020.52,0.02254
4997.37,0.02139
4974.23,0.02150
4951.08,0.02339
4927.94,0.02221
4904.79,0.02255
4881.65,0.02156
4858.5,0.02271
4835.36,0.02232
4812.21,0.02199
4789.07,0.02258
4765.92,0.02244
4742.78,0.02208
4719.63,0.02249
4696.49,0.02262
4673.34,0.02205
4650.2,0.02267
4627.05,0.02273
4603.91,0.02131
4580.76,0.02113
4557.62,0.02183
4534.47,0.02264
4511.33,0.02265
4488.18,0.02223
4465.04,0.02132
4441.89,0.02257
4418.75,0.02309
4395.6,0.02209
4372.46,0.02283
4349.31,0.02260
4326.17,0.02188
4303.02,0.02172
4279.88,0.02234
4256.73,0.02287
4233.59,0.02218
4210.44,0.02248
4187.3,0.02275
4164.16,0.02258
4141.01,0.02292
4117.87,0.02311
4094.72,0.02277
4071.58,0.02262
4048.43,0.02244
4025.29,0.02250
4002.14,0.02221
3979,0.02226
3955.85,0.02309
3932.71,0.02265
3909.56,0.02230
3886.42,0.02262
3863.27,0.02298
3840.13,0.02276
3816.98,0.02239
3793.84,0.02177
3770.69,0.02245
3747.55,0.02279
3724.4,0.02299
3701.26,0.02238
3678.11,0.02267
3654.97,0.02311
3631.82,0.02182
3608.68,0.02278
3585.53,0.02145
3562.39,0.02206
3539.24,0.02243
3516.1,0.02198
3492.95,0.02155
3469.81,0.02133
3446.66,0.02108
3423.52,0.02102
3400.37,0.02111
3377.23,0.02049
3354.08,0.02021
3330.94,0.02099
3307.79,0.02049
3284.65,0.02040
3261.5,0.02039
3238.36,0.02071
3215.21,0.02087
3192.07,0.02136
3168.92,0.02129
3145.78,0.02086
3122.63,0.02094
3099.49,0.02092
3076.34,0.02064
3053.2,0.02011
3030.05,0.02060
3006.91,0.02089
2983.76,0.02035
2960.62,0.01907
2937.47,0.01966
2914.33,0.02047
2891.18,0.02084
2868.04,0.02063
2844.9,0.02129
2821.75,0.02161
2798.61,0.02122
2775.46,0.02144
2752.32,0.02113
2729.17,0.02125
2706.03,0.02123
2682.88,0.02080
2659.74,0.02128
2636.59,0.02114
2613.45,0.02122
2590.3,0.02107
2567.16,0.02090
2544.01,0.02121
2520.87,0.02156
2497.72,0.02111
2474.58,0.02139
2451.43,0.02106
2428.29,0.02131
2405.14,0.02116
2382,0.02114
2358.85,0.02169
2335.71,0.02113
2312.56,0.02104
2289.42,0.02186
2266.27,0.02111
2243.13,0.02081
2219.98,0.02102
2196.84,0.02107
2173.69,0.02102
2150.55,0.02132
2127.4,0.02099
2104.26,0.02100
2081.11,0.02141
2057.97,0.02091
2034.82,0.02089
2011.68,0.02094
1988.53,0.02110
1965.39,0.02080
1942.24,0.02096
1919.1,0.02108
1895.95,0.02056
1872.81,0.02036
1849.66,0.02042
1826.52,0.01991
1803.37,0.01975
1780.23,0.01922
1757.08,0.01746
1733.94,0.01928
1710.79,0.02042
1687.65,0.01942
1664.5,0.01843
1641.36,0.01850
1618.21,0.01942
1595.07,0.01887
1571.93,0.01815
1548.78,0.01789
1525.64,0.01852
1502.49,0.01849
1479.35,0.01876
1456.2,0.01865
1433.06,0.01853
1409.91,0.01846
1386.77,0.01827
1363.62,0.01818
1340.48,0.01754
1317.33,0.01676
1294.19,0.01729
1271.04,0.01946
1247.9,0.01997
1224.75,0.01919
1201.61,0.01838
1178.46,0.01790
1155.32,0.01728
1132.17,0.01775
1109.03,0.01807
1085.88,0.01808
1062.74,0.01927
1039.59,0.01957
1016.45,0.01957
993.302,0.02099
970.157,0.01990
947.013,0.02002
923.868,0.01937
900.723,0.01912
877.578,0.01951
854.433,0.01894
831.288,0.01961
808.143,0.01847
784.998,0.01924
761.853,0.01804
738.708,0.01862
715.563,0.01905
692.419,0.01798
669.274,0.01832
646.129,0.01676
622.984,0.01651
599.839,0.01453

File: Luan_Panel_IS_T_220914_R6.dpt
7497.02,0.02474
7473.88,0.02052
7450.73,0.03386
7427.59,0.03439
7404.44,0.02580
7381.3,0.02461
7358.15,0.02363
7335.01,0.02359
7311.86,0.02343
7288.72,0.01926
7265.57,0.02937
7242.43,0.02944
7219.28,0.02595
7196.14,0.01992
7172.99,0.02043
7149.85,0.02158
7126.7,0.02857
7103.56,0.02363
7080.41,0.02731
7057.27,0.02272
7034.12,0.02393
7010.98,0.02664
6987.83,0.02364
6964.69,0.02736
6941.54,0.02401
6918.4,0.02234
6895.25,0.02947
6872.11,0.02859
6848.96,0.01915
6825.82,0.02351
6802.67,0.02175
6779.53,0.02122
6756.38,0.02488
6733.24,0.02625
6710.1,0.02560
6686.95,0.02346
6663.81,0.02371
6640.66,0.02245
6617.52,0.02576
6594.37,0.02535
6571.23,0.02232
6548.08,0.02314
6524.94,0.02110
6501.79,0.01865
6478.65,0.02305
6455.5,0.02456
6432.36,0.02442
6409.21,0.02258
6386.07,0.02289
6362.92,0.02131
6339.78,0.02287
6316.63,0.02008
6293.49,0.02029
6270.34,0.02146
6247.2,0.02283
6224.05,0.02173
6200.91,0.01950
6177.76,0.02258
6154.62,0.02225
6131.47,0.01995
6108.33,0.02060
6085.18,0.02172
6062.04,0.02350
6038.89,0.02254
6015.75,0.02093
5992.6,0.02249
5969.46,0.02274
5946.31,0.02057
5923.17,0.02249
5900.02,0.02172
5876.88,0.02042
5853.73,0.02225
5830.59,0.02089
5807.44,0.02126
5784.3,0.02121
5761.15,0.02425
5738.01,0.02274
5714.86,0.02404
5691.72,0.02213
5668.57,0.02296
5645.43,0.02229
5622.28,0.02432
5599.14,0.02323
5575.99,0.02077
5552.85,0.02210
5529.7,0.02284
5506.56,0.02250
5483.41,0.02183
5460.27,0.02199
5437.13,0.02283
5413.98,0.02124
5390.84,0.02275
5367.69,0.02265
5344.55,0.02193
5321.4,0.02259
5298.26,0.02443
5275.11,0.02363
5251.97,0.02075
5228.82,0.02246
5205.68,0.02374
5182.53,0.01986
5159.39,0.02194
5136.24,0.02384
5113.1,0.02188
5089.95,0.02319
5066.81,0.02293
5043.66,0.02244
5020.52,0.02212
4997.37,0.02337
4974.23,0.02371
4951.08,0.02255
4927.94,0.02251
4904.79,0.02273
4881.65,0.02199
4858.5,0.02255
4835.36,0.02292
4812.21,0.02287
4789.07,0.02276
4765.92,0.02252
4742.78,0.02061
4719.63,0.02206
4696.49,0.02317
4673.34,0.02235
4650.2,0.02262
4627.05,0.02261
4603.91,0.02223
4580.76,0.02356
4557.62,0.02301
4534.47,0.02233
4511.33,0.02162
4488.18,0.02229
4465.04,0.02290
4441.89,0.02282
4418.75,0.02290
4395.6,0.02255
4372.46,0.02178
4349.31,0.02224
4326.17,0.02216
4303.02,0.02232
4279.88,0.02310
4256.73,0.02255
4233.59,0.02306
4210.44,0.02287
4187.3,0.02297
4164.16,0.02238
4141.01,0.02266
4117.87,0.02279
4094.72,0.02280
4071.58,0.02268
4048.43,0.02287
4025.29,0.02270
4002.14,0.02262
3979,0.02240
3955.85,0.02276
3932.71,0.02368
3909.56,0.02340
3886.42,0.02250
3863.27,0.02280
3840.13,0.02332
3816.98,0.02241
3793.84,0.02293
3770.69,0.02288
3747.55,0.02342
3724.4,0.02250
3701.26,0.02276
3678.11,0.02318
3654.97,0.02196
3631.82,0.02150
3608.68,0.02230
3585.53,0.02211
3562.39,0.02141
3539.24,0.02095
3516.1,0.02127
3492.95,0.02228
3469.81,0.02081
3446.66,0.02096
3423.52,0.02109
3400.37,0.01997
3377.23,0.02112
3354.08,0.02011
3330.94,0.01998
3307.79,0.02080
3284.65,0.01985
3261.5,0.02123
3238.36,0.02128
3215.21,0.02095
3192.07,0.02101
3168.92,0.02131
3145.78,0.02114
3122.63,0.02104
3099.49,0.02135
3076.34,0.02045
3053.2,0.02059
3030.05,0.02069
3006.91,0.02054
2983.76,0.01992
2960.62,0.01938
2937.47,0.01961
2914.33,0.02068
2891.18,0.02025
2868.04,0.02052
2844.9,0.02091
2821.75,0.02148
2798.61,0.02137
2775.46,0.02126
2752.32,0.02108
2729.17,0.02140
2706.03,0.02120
2682.88,0.02123
2659.74,0.02119
2636.59,0.02138
2613.45,0.02159
2590.3,0.02172
2567.16,0.02167
2544.01,0.02151
2520.87,0.02085
2497.72,0.02160
2474.58,0.02140
2451.43,0.02130
2428.29,0.02131
2405.14,0.02109
2382,0.02124
2358.85,0.02155
2335.71,0.02124
2312.56,0.02118
2289.42,0.02143
2266.27,0.02121
2243.13,0.02106
2219.98,0.02136
2196.84,0.02158
2173.69,0.02128
2150.55,0.02124
2127.4,0.02123
2104.26,0.02120
2081.11,0.02132
2057.97,0.02128
2034.82,0.02125
2011.68,0.02115
1988.53,0.02107
1965.39,0.02101
1942.24,0.02127
1919.1,0.02076
1895.95,0.02053
1872.81,0.02091
1849.66,0.02060
1826.52,0.02061
1803.37,0.01991
1780.23,0.01960
1757.08,0.01778
1733.94,0.01994
1710.79,0.02079
1687.65,0.01935
1664.5,0.01870
1641.36,0.01854
1618.21,0.01930
1595.07,0.01900
1571.93,0.01878
1548.78,0.01821
1525.64,0.01868
1502.49,0.01893
1479.35,0.01853
1456.2,0.01880
1433.06,0.01884
1409.91,0.01836
1386.77,0.01830
1363.62,0.01787
1340.48,0.01760
1317.33,0.01772
1294.19,0.01736
1271.04,0.01928
1247.9,0.01999
1224.75,0.01969
1201.61,0.01892
1178.46,0.01777
1155.32,0.01760
1132.17,0.01780
1109.03,0.01872
1085.88,0.01737
1062.74,0.01944
1039.59,0.01988
1016.45,0.01919
993.302,0.02124
970.157,0.02038
947.013,0.02005
923.868,0.02008
900.723,0.01879
877.578,0.01930
854.433,0.01944
831.288,0.01836
808.143,0.01970
784.998,0.01907
761.853,0.01951
738.708,0.01812
715.563,0.01724
692.419,0.01768
669.274,0.01882
646.129,0.01653
622.984,0.01631
599.839,0.01724