Folder: fsri_materials_database/01_Data/Luan_Panel/FTIR/IS (part 3)

File: Luan_Panel_IS_T_220914_R7.dpt
7497.02,0.02574
7473.88,0.02551
7450.73,0.02116
7427.59,0.02323
7404.44,0.02296
7381.3,0.02226
7358.15,0.02193
7335.01,0.02861
7311.86,0.02236
7288.72,0.02270
7265.57,0.02076
7242.43,0.02970
7219.28,0.02408
7196.14,0.03148
7172.99,0.02642
7149.85,0.02212
7126.7,0.02059
7103.56,0.02449
7080.41,0.01440
7057.27,0.02668
7034.12,0.02628
7010.98,0.02340
6987.83,0.01734
6964.69,0.02149
6941.54,0.02162
6918.4,0.02692
6895.25,0.02727
6872.11,0.02086
6848.96,0.02544
6825.82,0.02702
6802.67,0.02017
6779.53,0.02244
6756.38,0.02471
6733.24,0.02605
6710.1,0.02377
6686.95,0.01905
6663.81,0.02770
6640.66,0.02405
6617.52,0.02393
6594.37,0.02431
6571.23,0.02248
6548.08,0.02132
6524.94,0.01824
6501.79,0.02066
6478.65,0.02280
6455.5,0.02230
6432.36,0.02087
6409.21,0.01955
6386.07,0.02043
6362.92,0.02391
6339.78,0.01930
6316.63,0.02110
6293.49,0.02000
6270.34,0.02337
6247.2,0.02098
6224.05,0.01721
6200.91,0.02330
6177.76,0.02198
6154.62,0.02525
6131.47,0.02140
6108.33,0.02285
6085.18,0.02049
6062.04,0.02434
6038.89,0.02374
6015.75,0.02147
5992.6,0.02264
5969.46,0.02184
5946.31,0.02226
5923.17,0.01889
5900.02,0.02212
5876.88,0.02214
5853.73,0.02120
5830.59,0.01954
5807.44,0.02270
5784.3,0.02008
5761.15,0.02215
5738.01,0.02317
5714.86,0.02199
5691.72,0.02317
5668.57,0.02100
5645.43,0.02351
5622.28,0.02210
5599.14,0.02201
5575.99,0.02203
5552.85,0.02211
5529.7,0.02163
5506.56,0.02151
5483.41,0.02228
5460.27,0.02168
5437.13,0.02114
5413.98,0.02301
5390.84,0.02268
5367.69,0.02186
5344.55,0.02044
5321.4,0.02226
5298.26,0.02161
5275.11,0.02225
5251.97,0.02171
5228.82,0.02191
5205.68,0.02088
5182.53,0.02289
5159.39,0.02255
5136.24,0.02289
5113.1,0.02344
5089.95,0.02277
5066.81,0.02171
5043.66,0.02255
5020.52,0.02239
4997.37,0.02096
4974.23,0.02199
4951.08,0.02315
4927.94,0.02196
4904.79,0.02206
4881.65,0.02206
4858.5,0.02196
4835.36,0.02327
4812.21,0.02224
4789.07,0.02250
4765.92,0.02205
4742.78,0.02207
4719.63,0.02203
4696.49,0.02407
4673.34,0.02249
4650.2,0.02226
4627.05,0.02241
4603.91,0.02324
4580.76,0.02275
4557.62,0.02169
4534.47,0.02278
4511.33,0.02255
4488.18,0.02236
4465.04,0.02263
4441.89,0.02187
4418.75,0.02233
4395.6,0.02334
4372.46,0.02251
4349.31,0.02199
4326.17,0.02263
4303.02,0.02201
4279.88,0.02216
4256.73,0.02301
4233.59,0.02218
4210.44,0.02168
4187.3,0.02203
4164.16,0.02305
4141.01,0.02292
4117.87,0.02328
4094.72,0.02208
4071.58,0.02361
4048.43,0.02283
4025.29,0.02251
4002.14,0.02247
3979,0.02310
3955.85,0.02232
3932.71,0.02312
3909.56,0.02251
3886.42,0.02372
3863.27,0.02336
3840.13,0.02360
3816.98,0.02263
3793.84,0.02260
3770.69,0.02367
3747.55,0.02284
3724.4,0.02245
3701.26,0.02249
3678.11,0.02278
3654.97,0.02170
3631.82,0.02223
3608.68,0.02223
3585.53,0.02117
3562.39,0.02106
3539.24,0.02105
3516.1,0.02082
3492.95,0.02143
3469.81,0.02084
3446.66,0.02102
3423.52,0.02091
3400.37,0.02073
3377.23,0.02015
3354.08,0.02067
3330.94,0.02067
3307.79,0.02058
3284.65,0.02082
3261.5,0.02046
3238.36,0.02107
3215.21,0.02081
3192.07,0.02031
3168.92,0.02141
3145.78,0.02156
3122.63,0.02082
3099.49,0.02100
3076.34,0.02137
3053.2,0.02087
3030.05,0.02016
3006.91,0.02006
2983.76,0.02009
2960.62,0.02017
2937.47,0.01929
2914.33,0.02014
2891.18,0.02073
2868.04,0.02127
2844.9,0.02108
2821.75,0.02126
2798.61,0.02147
2775.46,0.02163
2752.32,0.02147
2729.17,0.02152
2706.03,0.02163
2682.88,0.02162
2659.74,0.02132
2636.59,0.02141
2613.45,0.02140
2590.3,0.02162
2567.16,0.02171
2544.01,0.02106
2520.87,0.02164
2497.72,0.02135
2474.58,0.02179
2451.43,0.02181
2428.29,0.02142
2405.14,0.02115
2382,0.02155
2358.85,0.02173
2335.71,0.02143
2312.56,0.02116
2289.42,0.02090
2266.27,0.02155
2243.13,0.02124
2219.98,0.02151
2196.84,0.02127
2173.69,0.02136
2150.55,0.02126
2127.4,0.02094
2104.26,0.02068
2081.11,0.02114
2057.97,0.02092
2034.82,0.02093
2011.68,0.02099
1988.53,0.02081
1965.39,0.02078
1942.24,0.02024
1919.1,0.02082
1895.95,0.02092
1872.81,0.02069
1849.66,0.02016
1826.52,0.02028
1803.37,0.02003
1780.23,0.01946
1757.08,0.01773
1733.94,0.01984
1710.79,0.02074
1687.65,0.01883
1664.5,0.01884
1641.36,0.01821
1618.21,0.01884
1595.07,0.01862
1571.93,0.01857
1548.78,0.01822
1525.64,0.01876
1502.49,0.01896
1479.35,0.01861
1456.2,0.01909
1433.06,0.01921
1409.91,0.01837
1386.77,0.01832
1363.62,0.01834
1340.48,0.01784
1317.33,0.01699
1294.19,0.01794
1271.04,0.01931
1247.9,0.02019
1224.75,0.01901
1201.61,0.01850
1178.46,0.01793
1155.32,0.01747
1132.17,0.01816
1109.03,0.01868
1085.88,0.01841
1062.74,0.01935
1039.59,0.01994
1016.45,0.01973
993.302,0.02119
970.157,0.02022
947.013,0.02000
923.868,0.01981
900.723,0.01844
877.578,0.01907
854.433,0.01892
831.288,0.01866
808.143,0.01941
784.998,0.01965
761.853,0.01789
738.708,0.01850
715.563,0.01819
692.419,0.01826
669.274,0.01766
646.129,0.01553
622.984,0.01464
599.839,0.01406