Folder: fsri_materials_database/01_Data/Standard_Gypsum_Wallboard/Cone (part 2)

File: Standard_Gypsum_Wallboard_Cone_HF50Scan_220511_R2.csv
Names,Time,Stack TC,Smoke TC,Exh Press,Smoke Comp,Smoke Meas,CO Meter,CO2 Meter,O2 Meter,Sample Mass,Ext Coeff,Start Test,Flame Verif
Chan Gain,,500,500,1,1,1,1,1,1,1,1,1.0,1.0
Offset,,0,0,0.138628,0,0,0,0,0,0,0,0.0,0.0
Gain,,1,1,25.011,13.1256,14.6231,1,1,1,1.001,0.958019,1.0,1.0
Units,sec,C,C,Pa,%,%,%,%,%,g,/m,,
Baseline,,34.1308,35.3929,135.014,99.8102,100.539,0.000298685,0.0414269,21.006,-445.267,-0.06108,,
8,1.75,30.7058,31.7756,133.688,99.4857,100.336,0.000455031,0.0451721,21.0013,127.528,-0.0714924,0.0,0.0
16,3.75,30.5014,32.0525,131.215,99.4833,100.434,0.000512021,0.0455727,21.0009,127.618,-0.0799144,0.0,0.0
24,5.75,30.3486,31.4426,135.499,99.4576,100.239,0.000483853,0.045637,21.0007,127.558,-0.0657838,0.0,0.0
32,7.75,30.6688,31.8497,134.765,99.4464,99.892,0.000408086,0.0453268,21.0006,127.508,-0.0375741,0.0,0.0
40,9.75,30.7926,31.8953,136.005,99.4352,99.8653,0.000385924,0.0446783,21.0006,127.458,-0.0362691,0.0,0.0
48,11.75,31.3833,32.1126,137.898,99.4244,100.023,0.000400336,0.0441742,21.0005,127.418,-0.0504282,0.0,0.0
56,13.75,30.668,32.2699,132.841,99.4216,99.7506,0.000399849,0.0440279,21.0005,127.278,-0.027763,0.0,0.0
64,15.75,31.1376,32.2789,132.319,99.4148,100.099,0.00037372,0.0443657,21.0005,127.298,-0.0576508,0.0,0.0
72,17.75,31.2475,32.2728,135.564,99.4072,99.3168,0.000419597,0.0450278,21.0019,127.167,0.00764123,0.0,0.0
80,19.75,31.7186,32.8761,134.273,99.3859,99.4538,0.000598444,0.045705,21.002,127.117,-0.00573875,0.0,0.0
88,21.75,31.7154,32.6369,135.654,99.3807,99.5404,0.000801955,0.0458996,21.0021,127.047,-0.013491,0.0,0.0
96,23.75,31.1846,32.5165,136.563,99.3435,99.274,0.000929408,0.0457791,21.0021,126.987,0.00588049,0.0,0.0
104,25.75,31.8306,32.5429,134.228,99.289,99.2463,0.00100992,0.0458527,21.0013,126.887,0.0036137,0.0,0.0
112,27.75,32.1126,32.819,135.115,99.2549,99.0049,0.00117643,0.0463085,21.0005,126.777,0.0211993,0.0,0.0
120,29.75,31.7318,32.6999,131.862,99.2381,99.2811,0.001423,0.0469174,21.0001,126.707,-0.00363981,0.0,0.0
128,31.75,31.9319,33.1416,136.14,99.2113,97.8049,0.00162595,0.0477939,21,126.567,0.119981,0.0,0.0
136,33.75,31.8449,33.2078,133.676,99.1812,96.7829,0.0018526,0.0484701,20.9999,126.517,0.205706,0.0,0.0
144,35.75,32.3327,33.3378,135.411,99.1664,96.1403,0.00215433,0.0488432,20.9999,126.397,0.260435,0.0,0.0
152,37.75,32.2818,33.4656,131.102,99.1576,96.2791,0.0025097,0.0492912,20.9983,126.347,0.247565,0.0,0.0
160,39.75,31.684,33.3459,129.92,99.1324,96.351,0.00294637,0.0498869,20.9987,126.256,0.239157,0.0,0.0
168,41.75,32.2064,33.3451,135.587,99.1264,95.3973,0.00333117,0.0549493,20.9957,126.086,0.32224,0.0,0.0
176,43.75,32.2553,33.9269,124.577,99.1043,102.915,0.00339425,0.107195,20.9186,125.706,-0.317111,0.0,1.0
184,45.75,33.7376,34.1143,116.392,99.0843,104.572,0.00326087,0.220257,20.7832,125.516,-0.452961,0.0,1.0
192,47.75,36.2359,35.6173,120.302,99.0791,103.986,0.00309891,0.31846,20.6931,125.175,-0.406255,0.0,1.0
200,49.75,37.7835,37.4051,118.835,99.0667,102.615,0.00293142,0.3673,20.6539,124.915,-0.295708,0.0,1.0
208,51.75,38.5351,37.8588,121.273,99.0471,102.667,0.00306592,0.373727,20.6583,124.665,-0.301684,0.0,0.0
216,53.75,38.999,38.7707,122.383,99.0078,101.769,0.00384173,0.343151,20.6948,124.515,-0.231198,0.0,0.0
224,55.75,40.289,39.4259,129.418,98.9737,100.761,0.00581197,0.286759,20.7642,124.325,-0.150429,0.0,0.0
232,57.75,40.3939,40.2464,132.459,98.9485,99.8403,0.00814818,0.221972,20.8276,124.244,-0.0753978,0.0,0.0
240,59.75,39.9082,40.4804,134.41,98.9353,100.172,0.0105379,0.168621,20.8692,124.084,-0.104421,0.0,0.0
248,61.75,39.6601,40.1401,133.352,98.8948,100.636,0.0122765,0.138485,20.8895,123.954,-0.146667,0.0,0.0
256,63.75,38.6943,39.5665,132.728,98.884,100.004,0.0136043,0.125246,20.896,123.764,-0.0946513,0.0,0.0
264,65.75,38.2842,39.7264,132.467,98.8832,99.8438,0.0141036,0.120679,20.8988,123.714,-0.0812455,0.0,0.0
272,67.75,38.4172,39.3047,131.344,98.8584,100.068,0.0139091,0.117497,20.9036,123.604,-0.10219,0.0,0.0
280,69.75,38.5117,39.7617,133.701,98.8384,99.8621,0.0130556,0.11341,20.9091,123.474,-0.0865987,0.0,0.0
288,71.75,38.0348,39.485,133.97,98.8135,99.4699,0.0120456,0.107563,20.9168,123.424,-0.0556352,0.0,0.0
296,73.75,38.1248,39.4139,133.035,98.8187,99.6252,0.0110727,0.10184,20.9237,123.284,-0.0683033,0.0,0.0
304,75.75,37.8291,39.2318,132.985,98.8059,100.139,0.0101775,0.0968029,20.9308,123.173,-0.112609,0.0,0.0
312,77.75,37.5927,39.0882,133.909,98.7919,99.7903,0.00934393,0.0922016,20.9362,123.043,-0.0845027,0.0,0.0
320,79.75,36.6762,38.4997,130.279,98.7759,100.352,0.00861947,0.0878057,20.9416,122.983,-0.13301,0.0,0.0
328,81.75,37.2391,38.5533,133.454,98.7735,99.7042,0.00809532,0.0843436,20.946,122.863,-0.0788136,0.0,0.0
336,83.75,37.4628,38.7736,132.58,98.7631,100.173,0.00752926,0.0818137,20.9491,122.803,-0.119102,0.0,0.0
344,85.75,36.6814,39.0075,131.593,98.7534,99.9219,0.0070775,0.0787425,20.9531,122.653,-0.0988529,0.0,0.0
352,87.75,36.5407,38.3646,132.719,98.7546,100.344,0.00671954,0.076507,20.9563,122.643,-0.134181,0.0,0.0
360,89.75,36.6345,38.0446,133.338,98.7611,100.456,0.00643787,0.0747905,20.9579,122.493,-0.143011,0.0,0.0
368,91.75,36.0839,38.2098,130.83,98.7631,99.9148,0.00614029,0.0729046,20.9605,122.443,-0.0974344,0.0,0.0
376,93.75,36.2271,38.2547,131.465,98.7775,99.7653,0.00584977,0.0711598,20.9642,122.353,-0.0836239,0.0,0.0
384,95.75,36.2915,37.7095,132.374,98.7987,100.122,0.0056784,0.0697197,20.9664,122.242,-0.111837,0.0,0.0
392,97.75,36.2561,37.5296,129.927,98.8055,100.101,0.00551816,0.0683696,20.9688,122.132,-0.109497,0.0,0.0
400,99.75,36.4247,37.8814,132.538,98.8119,100.111,0.00519737,0.0670077,20.9709,122.042,-0.109739,0.0,0.0
408,101.75,35.9886,38.6167,132.209,98.8259,99.6484,0.00479671,0.0655629,20.9718,121.962,-0.0696472,0.0,0.0
416,103.75,35.6751,38.11,132.578,98.8307,100.234,0.00455189,0.0643182,20.974,121.842,-0.118508,0.0,0.0
424,105.75,35.7062,37.4688,130.859,98.85,100.017,0.00438987,0.0628314,20.9772,121.772,-0.0986699,0.0,0.0
432,107.75,35.4045,37.0255,131.471,98.8768,99.4253,0.00422084,0.0616364,20.9789,121.682,-0.046484,0.0,0.0
440,109.75,35.9076,37.5908,131.017,98.8808,100.834,0.004022,0.0605764,20.9802,121.602,-0.16435,0.0,0.0
448,111.75,35.157,37.4627,133.664,98.8932,99.9193,0.00382454,0.0591178,20.982,121.522,-0.0867404,0.0,0.0
456,113.75,35.3618,37.5282,134.501,98.88,99.8773,0.00351504,0.0577886,20.9843,121.432,-0.0843347,0.0,0.0
464,115.75,35.2466,37.2909,132.499,98.884,99.8894,0.00314703,0.0562631,20.9866,121.382,-0.0850077,0.0,0.0
472,117.75,35.2177,37.0575,138.654,98.8888,99.9719,0.00289327,0.054667,20.9903,121.302,-0.0915421,0.0,0.0
480,119.75,34.7932,37.0448,132.483,98.888,99.5939,0.00262771,0.0531073,20.9929,121.181,-0.0597764,0.0,0.0
488,121.75,35.0016,36.7146,134.08,98.8848,99.8041,0.00242255,0.0516963,20.994,121.121,-0.0777655,0.0,0.0
496,123.75,34.8071,36.4424,134.547,98.8904,99.9331,0.00226535,0.0503098,20.9945,120.981,-0.0881414,0.0,0.0
504,125.75,34.991,36.4211,133.855,98.8564,99.818,0.00206412,0.0489338,20.9955,120.901,-0.0813476,0.0,0.0
512,127.75,34.4705,36.9006,132.812,98.862,100.143,0.00190191,0.0476681,20.9965,120.871,-0.108179,0.0,0.0
520,129.75,34.541,36.7228,136.669,98.8456,99.9755,0.00177466,0.0464513,20.997,120.871,-0.0955191,0.0,0.0
528,131.75,34.5415,35.8559,136.534,98.8432,99.5752,0.00155055,0.0455733,20.9988,120.771,-0.0620075,0.0,0.0
536,133.75,34.6174,36.0902,134.548,98.8404,99.7876,0.0011574,0.0449025,20.9999,120.691,-0.0801551,0.0,0.0
544,135.75,34.4595,36.3555,133.231,98.8356,100.523,0.000844098,0.0444473,21.0016,120.651,-0.142272,0.0,0.0
552,137.75,34.8036,36.3809,134.489,98.8312,99.9211,0.000775571,0.0440418,21.0025,120.611,-0.0921675,0.0,0.0
560,139.75,34.058,36.0446,135.038,98.8372,99.4574,0.000831766,0.0437456,21.0028,120.561,-0.0525706,0.0,0.0
568,141.75,33.9624,35.9745,133.51,98.8239,99.7015,0.000772589,0.0435349,21.003,120.511,-0.0742946,0.0,0.0
576,143.75,34.4422,35.5246,136.554,98.8307,99.4427,0.000665358,0.0433691,21.003,120.411,-0.051871,0.0,0.0
584,145.75,34.2469,35.8428,129.811,98.8348,99.5582,0.000580964,0.0433091,21.0031,120.381,-0.0612925,0.0,0.0
592,147.75,34.395,35.9565,135.331,98.8288,99.8367,0.000526077,0.0432317,21.0031,120.341,-0.0852754,0.0,0.0
600,149.75,33.8502,35.9795,133.614,98.8384,100.01,0.00052813,0.0429918,21.0031,120.26,-0.0990201,0.0,0.0
608,151.75,33.7099,35.6835,132.88,98.8199,99.9688,0.000562807,0.0428607,21.0031,120.19,-0.0971364,0.0,0.0
616,153.75,34.1216,36.1364,135.818,98.8147,100.006,0.000541955,0.0429373,21.0034,120.11,-0.10073,0.0,0.0
624,155.75,33.5046,35.6676,136.824,98.8219,100.014,0.000523707,0.0428892,21.004,120,-0.100792,0.0,0.0
632,157.75,33.7961,35.2039,134.265,98.8223,100.053,0.000444169,0.0428665,21.0042,120,-0.104019,0.0,0.0
640,159.75,33.774,36.0561,132.16,98.8191,99.876,0.000432574,0.0428964,21.0043,119.88,-0.0893973,0.0,0.0
648,161.75,33.6249,35.3667,135.384,98.8131,99.7238,0.000569794,0.0428446,21.0044,119.9,-0.0770947,0.0,0.0
656,163.75,33.6482,35.1355,132.221,98.8111,99.6533,0.000670291,0.0428201,21.0044,119.84,-0.0713222,0.0,0.0
664,165.75,33.976,35.7611,131.548,98.8203,100.104,0.000699664,0.0427738,21.0044,119.8,-0.108462,0.0,0.0
672,167.75,33.5057,35.3692,133.68,98.8123,100.097,0.000799675,0.04284,21.0044,119.74,-0.108581,0.0,0.0
680,169.75,33.7233,35.9007,134.764,98.8211,100.091,0.000881484,0.0427949,21.0044,119.71,-0.107307,0.0,0.0
688,171.75,34.1511,35.1172,132.972,98.8195,100.079,,0.0428065,,119.68,-0.106431,0.0,0.0
696,173.75,33.688,35.0482,132.639,98.8087,99.8126,,,,119.61,-0.08495,0.0,0.0
704,175.75,33.4991,35.5302,134.806,98.7859,100.091,,,,119.57,-0.110267,0.0,0.0
712,177.75,33.0464,34.8943,135.824,98.7771,99.0687,,,,119.52,-0.0247733,0.0,0.0
720,179.75,33.0918,35.1071,131.308,98.747,99.6868,,,,119.44,-0.0795963,0.0,0.0
724,180.75,33.902,35.2605,134.382,98.733,99.2472,,,,119.46,-0.0436513,0.0,0.0

File: Standard_Gypsum_Wallboard_Cone_HF75Scalar_220511_R1.csv
LABORATORY,FSRI
TEST IDENT,Standard_Gypsum_75_1
OPERATOR,Dow
MATERIAL,Standard Gypsum
ORIENTATION,Horizontal
HEAT FLUX,75
SURF AREA,0.01
C FACTOR,0.0418584
SPEC HOLDER DIFF,-566
SPECIMEN MASS,76.21
SCAN TIME,0.25
O2 DELAY TIME,11
CO DELAY TIME,11
CO2 DELAY TIME,8
FLOW FACTOR,1
SCAN COUNT,613
TIME TO IGN,18.5
END OF TEST SCAN,133
END OF TEST TIME,33.25
TEST STATUS,1
PRE TEST CMT,Dimensions: 103.45 x 102.76 x 12.74 mm
POST TEST CMT,"The gypsum paper continued to have a glowing orange color after the flame self-extinguished, however the test was ended because there was no longer ignition."

File: Standard_Gypsum_Wallboard_Cone_HF75Scan_220511_R3.csv
Names,Time,Stack TC,Smoke TC,Exh Press,Smoke Comp,Smoke Meas,CO Meter,CO2 Meter,O2 Meter,Sample Mass,Ext Coeff,Start Test,Flame Verif
Chan Gain,,500,500,1,1,1,1,1,1,1,1,1.0,1.0
Offset,,0,0,0.138628,0,0,0,0,0,0,0,0.0,0.0
Gain,,1,1,25.011,13.1256,14.6231,1,1,1,1.001,0.958019,1.0,1.0
Units,sec,C,C,Pa,%,%,%,%,%,g,/m,,
Baseline,,45.0782,46.7764,130.602,99.3916,102.098,0.000172271,0.0411066,21.0091,-445.988,-0.225661,,
7,1.5,40.0867,42.0063,130.63,99.1364,100.906,0.000199612,0.046813,20.9995,132.182,-0.148645,0.0,0.0
14,3.25,40.4826,42.0779,126.251,99.1384,102.717,0.000503974,0.0697713,20.9712,132.202,-0.298029,0.0,0.0
21,5,41.0111,42.2702,128.214,99.0815,102.734,0.000944536,0.102107,20.9496,131.992,-0.304203,0.0,1.0
28,6.75,41.7001,42.7826,128.595,99.0451,102.305,0.00142598,0.108025,20.9428,131.832,-0.272178,0.0,1.0
35,8.5,40.9911,42.3909,129.561,99.013,101.815,0.00192748,0.0960934,20.9513,131.772,-0.234514,0.0,0.0
42,10.25,40.2412,42.0073,127.63,98.985,100.806,0.00226595,0.0823117,20.9643,131.662,-0.153235,0.0,0.0
49,12,40.75,42.1013,130.391,98.9473,100.894,0.00246434,0.0707728,20.9739,131.602,-0.163758,0.0,0.0
56,13.75,40.6894,42.7004,130.343,98.9405,100.11,0.00260498,0.0640257,20.9802,131.492,-0.0987728,0.0,0.0
63,15.5,41.0065,42.1433,126.711,98.9509,98.9344,0.00279212,0.0605807,20.9832,131.352,0.0014064,0.0,0.0
70,17.25,41.1279,42.4222,131.297,98.9673,98.0392,0.00314452,0.059374,20.9868,131.211,0.0791864,0.0,0.0
77,19,40.965,42.7761,131.789,98.979,94.6275,0.00334579,0.0729852,20.9728,130.961,0.377822,0.0,0.0
84,20.75,42.0206,42.9539,118.451,98.9621,103.375,0.00325742,0.135442,20.9077,130.851,-0.366591,0.0,0.0
91,22.5,42.559,43.5321,107.676,98.9786,105.121,0.00307873,0.232842,20.8028,130.351,-0.506003,0.0,0.0
98,24.25,44.4741,44.7014,111.663,99.0022,105.023,0.00299571,0.328552,20.698,130.15,-0.496108,0.0,0.0
105,26,46.4428,46.5704,115.875,99.0034,104.908,0.00295105,0.383321,20.6393,129.9,-0.48686,0.0,0.0
112,27.75,48.8057,49.1998,113.202,99.0122,104.733,0.00299025,0.398807,20.6249,129.59,-0.472051,0.0,0.0
119,29.5,50.5066,50.3571,118.871,99.0166,104.35,0.00351834,0.381159,20.6386,129.4,-0.440862,0.0,0.0
126,31.25,51.3051,51.5699,121.324,99.035,104.198,0.00470633,0.342887,20.6757,129.209,-0.427035,0.0,0.0
133,33,51.793,52.8485,127.657,99.0483,103.899,0.00659919,0.283496,20.7428,129.049,-0.4018,0.0,0.0
140,34.75,52.1769,52.4371,128.367,99.0483,102.198,0.00872482,0.224795,20.7991,128.989,-0.263104,0.0,0.0
147,36.5,51.9735,52.8339,127.784,99.0535,102.181,0.010704,0.177107,20.8466,128.779,-0.261267,0.0,0.0
154,38.25,51.8224,53.0139,126.851,99.0627,102.11,0.011962,0.145502,20.8776,128.729,-0.254574,0.0,0.0
161,40,51.1703,52.4243,127.541,99.0707,102.488,0.0124487,0.126664,20.8941,128.599,-0.285019,0.0,0.0
168,41.75,50.8526,52.7292,131.852,99.0855,103.265,0.0125254,0.116282,20.9029,128.539,-0.347228,0.0,0.0
175,43.5,49.3169,50.7725,127.915,99.0727,103.208,0.0122962,0.10914,20.9119,128.379,-0.343666,0.0,0.0
182,45.25,49.3231,50.2078,127.592,99.0919,103.718,0.0118797,0.104166,20.919,128.309,-0.383428,0.0,0.0
189,47,48.2717,50.3819,127.687,99.1063,102.517,0.0113032,0.100538,20.9259,128.178,-0.284337,0.0,0.0
196,48.75,48.6931,50.1196,129.84,99.1147,103.035,0.0107442,0.097051,20.9307,128.058,-0.325988,0.0,0.0
203,50.5,48.4465,50.2608,129.172,99.1143,103.502,0.0101695,0.0941413,20.9338,127.968,-0.364008,0.0,0.0
210,52.25,48.3024,50.4186,128.251,99.116,101.865,0.00963229,0.091428,20.9375,127.888,-0.229942,0.0,0.0
217,54,48.0967,49.543,126.629,99.132,102.484,0.00913731,0.0885944,20.9418,127.878,-0.279492,0.0,0.0
224,55.75,48.3205,49.5506,126.598,99.1488,103.266,0.0087938,0.0861791,20.9451,127.678,-0.341934,0.0,0.0
231,57.5,47.5441,49.6243,129.109,99.1632,102.157,0.00846166,0.0842419,20.949,127.628,-0.249979,0.0,0.0
238,59.25,47.1801,49.6517,124.655,99.1564,103.057,0.00808362,0.0828174,20.9511,127.568,-0.32424,0.0,0.0
245,61,47.0491,49.4569,127.862,99.1636,102.663,0.00774554,0.0809554,20.9533,127.418,-0.291471,0.0,0.0
252,62.75,47.4562,49.3708,130.036,99.1861,101.896,0.00747827,0.0794923,20.9559,127.318,-0.226504,0.0,0.0
259,64.5,47.6375,49.2012,131.384,99.1981,102.669,0.00721847,0.0783822,20.9582,127.288,-0.289027,0.0,0.0
266,66.25,46.4775,49.0182,127.825,99.1844,102.72,0.00695278,0.0773451,20.9602,127.167,-0.294308,0.0,0.0
273,68,46.7083,49.3522,130.401,99.2093,102.404,0.00665846,0.0762393,20.9621,127.057,-0.266315,0.0,0.0
280,69.75,46.8945,48.801,127.052,99.2173,101.69,0.00632398,0.0752736,20.9644,126.917,-0.206873,0.0,0.0
287,71.5,46.7232,49.2487,131.581,99.2417,102.288,0.00591102,0.0740998,20.966,126.767,-0.254114,0.0,0.0
294,73.25,46.6043,48.6889,127.592,99.2421,102.201,0.00557839,0.0728113,20.9679,126.717,-0.246854,0.0,0.0
301,75,46.1297,48.5718,129.225,99.2529,102.547,0.0053244,0.0713938,20.9699,126.637,-0.274365,0.0,0.0
308,76.75,46.3472,48.7195,127.53,99.2782,103.475,0.00510823,0.0701545,20.9714,126.527,-0.347954,0.0,0.0
315,78.5,46.1805,48.6774,126.325,99.2958,102.824,0.00490325,0.0688824,20.9727,126.427,-0.293417,0.0,0.0
322,80.25,46.4992,48.4211,130.72,99.327,102.684,0.00457816,0.0670901,20.9759,126.327,-0.279313,0.0,0.0
329,82,46.2558,48.1766,127.983,99.3315,104.564,0.00423082,0.0647978,20.9791,126.256,-0.43138,0.0,0.0
336,83.75,46.1755,48.2327,125.339,99.3559,102.809,0.00389627,0.0624888,20.9813,126.156,-0.287093,0.0,0.0
343,85.5,45.8364,48.482,131.447,99.3803,102.682,0.00363822,0.0603684,20.9832,126.086,-0.274625,0.0,0.0
350,87.25,45.8469,48.4601,128.689,99.4052,103.305,0.00343455,0.0584544,20.985,125.996,-0.323429,0.0,0.0
357,89,46.0662,48.017,132.288,99.4188,103.127,0.00330674,0.0563141,20.9879,125.886,-0.307781,0.0,0.0
364,90.75,46.0248,48.4954,125.277,99.4308,103.015,0.00312734,0.0544434,20.9899,125.816,-0.297559,0.0,0.0
371,92.5,45.5868,48.283,131.363,99.4532,103.08,0.00281068,0.052753,20.9925,125.726,-0.300977,0.0,0.0
378,94.25,45.2125,48.0994,130.752,99.4672,102.325,0.00242533,0.0513053,20.9943,125.616,-0.238045,0.0,0.0
385,96,45.5302,47.6979,128.673,99.4909,102.268,0.00212022,0.0502433,20.9952,125.556,-0.231355,0.0,0.0
392,97.75,45.7113,48.0167,127.09,99.4957,103.393,0.00193645,0.0493007,20.998,125.496,-0.322928,0.0,0.0
399,99.5,44.9953,48.0303,127.152,99.5201,103.372,0.00183068,0.0484034,20.9996,125.446,-0.319159,0.0,0.0
406,101.25,45.2433,48.1952,125.83,99.5518,102.456,0.00175482,0.0474743,21.0019,125.416,-0.241639,0.0,0.0
413,103,45.1055,47.6517,128.681,99.5766,101.732,0.00164897,0.0467153,21.0036,125.306,-0.179925,0.0,0.0
420,104.75,44.9112,47.3275,128.8,99.5966,102.533,0.00148776,0.0460267,21.0044,125.225,-0.244183,0.0,0.0
427,106.5,44.9012,47.7798,127.734,99.5926,102.819,0.00133125,0.0453243,21.0048,125.135,-0.267897,0.0,0.0
434,108.25,45.2766,47.101,126.277,99.6058,102.23,0.001191,0.0447392,21.0049,125.075,-0.218534,0.0,0.0
441,110,45.0061,47.3111,130.456,99.6375,101.853,0.00100343,0.0443236,21.0047,125.015,-0.184809,0.0,0.0
448,111.75,45.0753,47.6143,132.496,99.6455,101.953,0.000761097,0.0439884,21.0046,124.925,-0.192413,0.0,0.0
455,113.5,44.7128,46.9605,129.966,99.6599,102.229,0.000569752,0.0437462,21.0046,124.855,-0.213899,0.0,0.0
462,115.25,44.9101,47.073,131.426,99.6751,103.112,0.000489332,0.0435406,21.005,124.835,-0.284903,0.0,0.0
469,117,45.1328,47.3117,127.716,99.6799,102.929,0.000505394,0.0434304,21.0052,124.765,-0.269572,0.0,0.0
476,118.75,44.3808,47.3153,128.782,99.6952,103.731,0.000601008,0.0431104,21.0053,124.655,-0.333473,0.0,0.0
483,120.5,44.4894,47.0488,128.055,99.692,103.051,0.000676473,0.0430204,21.0053,124.635,-0.2785,0.0,0.0
490,122.25,44.7201,47.1828,130.076,99.6928,103.041,0.000706377,0.0429788,21.0053,124.595,-0.277595,0.0,0.0
497,124,44.4015,46.773,126.731,99.7132,102.987,0.000707886,0.0428039,21.0054,124.535,-0.271505,0.0,0.0
504,125.75,44.6702,47.1923,126.559,99.7152,102.318,0.000673514,0.0428433,21.0054,124.495,-0.216573,0.0,0.0
511,127.5,44.3435,46.7832,128.383,99.7064,103.756,0.000642785,0.0427125,21.0054,124.415,-0.334588,0.0,0.0
518,129.25,44.2545,47.1345,129.411,99.7108,102.22,0.000632117,0.0427641,21.0054,124.315,-0.208839,0.0,0.0
525,131,44.1986,47.0077,128.294,99.7056,103.265,0.000627727,0.0427541,21.0054,124.224,-0.294802,0.0,0.0
532,132.75,44.1246,46.6388,128.805,99.7308,102.863,0.000662832,0.0426844,21.0063,124.114,-0.259854,0.0,0.0
539,134.5,44.3095,46.6424,129.178,99.7256,102.991,0.000740345,0.0426013,21.0069,124.144,-0.27075,0.0,0.0
546,136.25,44.4322,46.4669,129.878,99.7344,102.495,0.000805379,0.0425751,21.0072,124.114,-0.229419,0.0,0.0
553,138,44.4923,46.3087,129.608,99.7268,103.142,0.000761278,0.0425119,21.0073,124.074,-0.282984,0.0,0.0
560,139.75,44.4807,46.9187,128.124,99.7396,102.669,0.000673256,0.0426175,21.0074,123.974,-0.243237,0.0,0.0
567,141.5,44.2792,46.7694,128.792,99.7484,103.345,0.000700185,0.0426925,21.0077,123.914,-0.297688,0.0,0.0
574,143.25,44.0623,46.4357,126.273,99.7408,102.344,0.000780951,0.0426545,21.0088,123.844,-0.216502,0.0,0.0
581,145,44.0874,46.4475,130.62,99.746,103.054,0.000800405,0.0426635,21.0093,123.834,-0.274162,0.0,0.0
588,146.75,43.8595,46.5685,131.053,99.7432,102.591,0.000700313,0.0425178,21.0095,123.784,-0.236612,0.0,0.0
595,148.5,43.7388,46.7061,127.958,99.7552,104.056,0.000576038,0.0424976,21.0094,123.744,-0.354689,0.0,0.0
602,150.25,44.2041,46.3993,129.263,99.7488,102.819,0.000555171,0.0425928,21.0084,123.654,-0.254762,0.0,0.0
609,152,43.6338,46.2705,125.274,99.7528,102.8,,0.0427067,,123.624,-0.252893,0.0,0.0
616,153.75,44.2379,46.1691,131.429,99.7512,102.394,,0.0428207,,123.554,-0.219764,0.0,0.0
623,155.5,43.9585,46.062,132.026,99.7689,102.694,,,,123.494,-0.242856,0.0,0.0
630,157.25,44.0229,46.3045,128.763,99.7773,102.489,,,,123.444,-0.225368,0.0,0.0
637,159,43.5806,46.0409,127.831,99.7685,102.967,,,,123.384,-0.265209,0.0,0.0
644,160.75,43.292,46.4038,129.459,99.7805,102.308,,,,123.344,-0.210229,0.0,0.0
650,162.25,43.7943,46.3714,128.963,99.7905,102.273,,,,123.243,-0.206489,0.0,0.0