Folder: fsri_materials_database/01_Data/Standard_Gypsum_Wallboard/Cone

Note: 01_Data/README.md
# Materials and Products Database
## 01_Data

Raw data generated from each apparatus are included here in plain-text format. The data is organized first by material, next by the short name of test apparatus used, and where applicable additional filtering by test settings.

### material.json

Each material directory contains a json file of the same name as the material. This file links the data stored in the repository as well as data and graphs produced by the accompanying scripts (__02_Scripts__) to the respective landing page for the material on the front-end website.

File: Standard_Gypsum_Wallboard_Cone_HF25Scalar_220510_R2.csv
LABORATORY,FSRI
TEST IDENT,Standard_Gypsum_25_2
OPERATOR,Dow
MATERIAL,Standard Gypsum
ORIENTATION,Horizontal
HEAT FLUX,25
SURF AREA,0.01
C FACTOR,0.0418584
SPEC HOLDER DIFF,-566
SPECIMEN MASS,78.1
SCAN TIME,0.25
O2 DELAY TIME,11
CO DELAY TIME,11
CO2 DELAY TIME,8
FLOW FACTOR,1
SCAN COUNT,2883
TIME TO IGN,0
END OF TEST SCAN,2403
END OF TEST TIME,600.75
TEST STATUS,1
PRE TEST CMT,Dimensions: 102.79 x 103.58 x 12.73 mm
POST TEST CMT,"The gypsum paper turned a dark color before shriveling and curling upwards. As it curled, the paper turned a glowing orange color, however there was no ignition. Test ended after 10 minutes. "

File: Standard_Gypsum_Wallboard_Cone_HF25Scan_220510_R2.csv
Names,Time,Stack TC,Smoke TC,Exh Press,Smoke Comp,Smoke Meas,CO Meter,CO2 Meter,O2 Meter,Sample Mass,Ext Coeff,Start Test,Flame Verif
Chan Gain,,500,500,1,1,1,1,1,1,1,1,1.0,1.0
Offset,,0,0,0.138628,0,0,0,0,0,0,0,0.0,0.0
Gain,,1,1,25.011,13.1256,14.6231,1,1,1,1.001,0.958019,1.0,1.0
Units,sec,C,C,Pa,%,%,%,%,%,g,/m,,
Baseline,,19.0576,19.647,141.855,99.1192,98.252,0.00032648,0.0413956,21.0093,-443.199,0.0738449,,
31,7.5,17.1545,17.3295,140.878,98.2283,97.2609,0.000280649,0.0443033,21.0074,131.332,0.0831759,0.0,0.0
62,15.25,17.5591,17.5211,138.098,98.0493,97.1917,0.00041922,0.0444002,21.0058,131.262,0.0738218,0.0,0.0
93,23,17.5349,17.5045,143.085,97.9203,96.9976,0.000336707,0.0456618,21.0052,131.191,0.0795606,0.0,0.0
124,30.75,17.2968,17.5555,139.968,97.8273,96.9793,0.000264844,0.044725,21.007,131.011,0.0731683,0.0,0.0
155,38.5,17.9246,17.9626,146.055,97.7925,96.8936,0.000545497,0.0427198,21.0076,130.911,0.0776014,0.0,0.0
186,46.25,17.6641,18.2816,141.287,97.8141,96.9922,0.000427246,0.0420631,21.0112,130.801,0.0709107,0.0,0.0
217,54,17.5402,18.258,142.171,97.8646,97.1181,0.000154333,0.0428311,21.0115,130.701,0.0643498,0.0,0.0
248,61.75,18.1709,18.7668,144.499,97.9768,96.9423,0.000416783,0.043091,21.01,130.601,0.0892027,0.0,0.0
279,69.5,17.5161,18.8936,139.818,98.115,97.2622,0.000597287,0.0424939,21.0098,130.431,0.073356,0.0,0.0
310,77.25,18.0483,18.2049,144.169,98.3028,97.2689,0.000698533,0.0419913,21.011,130.301,0.0888528,0.0,0.0
341,85,17.735,18.1471,143.922,98.5363,97.318,0.000229412,0.0416154,21.0136,130.14,0.104554,0.0,0.0
372,92.75,17.7725,18.7653,143.107,98.7715,97.5889,0.000339732,0.0415478,21.0102,130.06,0.101224,0.0,0.0
403,100.5,18.2199,19.1272,144.074,98.9814,97.6063,0.000401644,0.0417669,21.0062,129.78,0.117564,0.0,0.0
434,108.25,18.3662,18.5197,139.703,99.1464,97.6215,0.000441944,0.0443002,21.0055,129.66,0.130258,0.0,0.0
465,116,18.2856,18.8389,136.947,99.2678,97.7817,0.00069155,0.0436056,21.0073,129.52,0.126758,0.0,0.0
496,123.75,18.2188,19.591,140.893,99.3455,97.389,0.000874377,0.0432876,21.0069,129.31,0.167153,0.0,0.0
527,131.5,19.1474,18.9803,143.974,99.3607,97.4974,0.00109206,0.0439814,21.0068,129.189,0.159089,0.0,0.0
558,139.25,18.837,19.1713,144.91,99.4276,97.5804,0.000973384,0.0440339,21.0098,129.029,0.157592,0.0,0.0
589,147,18.5739,19.2409,142.289,99.5033,97.3823,0.000918776,0.0438646,21.0117,128.769,0.18107,0.0,0.0
620,154.75,18.4792,19.3317,138.258,99.5714,97.1962,0.00134187,0.0443669,21.0095,128.659,0.202893,0.0,0.0
651,162.5,18.6625,19.2384,142.743,99.6487,97.1975,0.00145475,0.0465346,21.0026,128.339,0.2093,0.0,0.0
682,170.25,18.5562,18.9499,140.575,99.7064,97.0587,0.00172967,0.0472053,21.001,128.148,0.226171,0.0,0.0
713,178,19.0473,19.9723,142.279,99.7276,96.7937,0.00252568,0.0483552,20.9997,127.958,0.250944,0.0,0.0
744,185.75,18.7742,19.5779,146.088,99.728,96.6776,0.00340576,0.0504624,20.9999,127.668,0.261056,0.0,0.0
775,193.5,19.1597,19.5668,136.462,99.7304,97.6,0.00426553,0.0550553,20.9917,127.388,0.181458,0.0,0.0
806,201.25,18.7862,19.7189,140.654,99.7244,97.933,0.00525976,0.0567325,20.9891,127.137,0.152336,0.0,0.0
837,209,19.5221,20.0035,137.805,99.7256,98.2685,0.00664731,0.0626711,20.9831,126.837,0.123689,0.0,0.0
868,216.75,19.3611,20.3754,140.774,99.7532,98.464,0.00879964,0.0744172,20.9682,126.587,0.109319,0.0,0.0
899,224.5,19.2502,19.7636,141.721,99.7861,98.9616,0.00965372,0.0790475,20.9613,126.256,0.0697255,0.0,0.0
930,232.25,19.4119,20.4064,138.435,99.8125,99.1379,0.0101376,0.0797414,20.9605,125.996,0.0569958,0.0,0.0
961,240,19.9562,20.4844,142.44,99.8366,99.0736,0.00972015,0.0806901,20.9584,125.696,0.0644681,0.0,0.0
992,247.75,20.3821,20.4792,140.19,99.8486,98.9817,0.00945807,0.08277,20.9573,125.426,0.0732806,0.0,0.0
1023,255.5,20.1263,20.5255,144.944,99.843,99.1191,0.00834398,0.0790794,20.9626,125.135,0.0611471,0.0,0.0
1054,263.25,20.084,20.7942,141.918,99.8446,99.1606,0.0068129,0.0735701,20.9694,124.995,0.057764,0.0,0.0
1085,271,20.3853,21.0104,143.132,99.8666,99.0861,0.00527931,0.0690675,20.9747,124.735,0.0659364,0.0,0.0
1116,278.75,20.5724,21.0003,144.779,99.849,99.203,0.00406934,0.0629852,20.9815,124.515,0.0545427,0.0,0.0
1147,286.5,20.0698,20.7269,140.27,99.8426,99.1472,0.00331357,0.0589185,20.9893,124.375,0.058731,0.0,0.0
1178,294.25,20.4213,21.0085,141.281,99.8137,99.2218,0.00275836,0.0567646,20.9922,124.204,0.0499879,0.0,0.0
1209,302,19.9909,20.9606,144.988,99.7817,99.0932,0.00248261,0.0533183,20.995,123.994,0.0581818,0.0,0.0
1240,309.75,19.5047,20.2502,141.28,99.756,98.9759,0.00200664,0.0511194,20.9987,123.904,0.0659821,0.0,0.0
1271,317.5,19.6798,20.6694,143.975,99.7661,99.0772,0.00171373,0.0493237,21.0007,123.824,0.0582286,0.0,0.0
1302,325.25,19.5873,20.2734,142.853,99.8169,99.0455,0.00161063,0.0471044,21.0034,123.674,0.0652008,0.0,0.0
1333,333,19.9744,20.8061,144.246,99.8358,99.0848,0.00113121,0.0456575,21.0065,123.534,0.0634541,0.0,0.0
1364,340.75,20.034,20.9567,140.827,99.8306,99.0187,0.00109607,0.0452836,21.0058,123.414,0.0686196,0.0,0.0
1395,348.5,19.9028,20.6965,140.06,99.8558,99.153,0.000827197,0.0446653,21.0073,123.284,0.0593507,0.0,0.0
1426,356.25,20.129,20.736,142.311,99.8382,99.0843,0.000865737,0.0440633,21.009,123.193,0.0636947,0.0,0.0
1457,364,20.1508,20.1629,142.236,99.7993,98.9973,0.000625292,0.0434808,21.0106,123.083,0.0678078,0.0,0.0
1488,371.75,19.7336,20.4714,143.231,99.6739,98.9576,0.000863187,0.0428625,21.0097,122.973,0.060615,0.0,0.0
1519,379.5,20.2808,20.8514,140.108,99.4464,98.8014,0.000677002,0.0424311,21.0095,122.873,0.0546851,0.0,0.0
1550,387.25,20.3536,20.7102,141.605,99.0583,98.4149,0.000190273,0.0421111,21.0116,122.813,0.0547567,0.0,0.0
1581,395,20.42,20.9768,141.66,98.5307,97.8901,0.000324906,0.0419929,21.0108,122.763,0.0548165,0.0,0.0
1612,402.75,20.7071,21.2744,139.413,98.0833,97.3542,0.000265074,0.0420755,21.0115,122.553,0.0627063,0.0,0.0
1643,410.5,20.4626,21.2287,141.199,97.835,97.1654,2.30252e-05,0.0421765,21.0119,122.513,0.0577112,0.0,0.0
1674,418.25,21.0401,21.4147,143.842,97.8478,97.1212,0.000219798,0.0429779,21.0116,122.403,0.0626338,0.0,0.0
1705,426,20.2902,21.713,141.462,98.1426,97.389,0.000343762,0.0428817,21.0107,122.363,0.0647793,0.0,0.0
1736,433.75,20.9081,21.3722,144.386,98.5728,97.7536,1.24731e-05,0.0420313,21.0138,122.283,0.0701338,0.0,0.0
1767,441.5,20.8312,21.359,142.842,98.9669,98.1061,-0.000159387,0.0419225,21.0108,122.162,0.0734166,0.0,0.0
1798,449.25,20.6023,21.1924,138.976,99.1808,98.4069,0.000316002,0.0417997,21.0117,122.132,0.065835,0.0,0.0
1829,457,20.3931,21.4049,140.393,99.1155,98.2931,-5.91776e-05,0.0415164,21.0133,122.062,0.0700245,0.0,0.0
1860,464.75,20.3099,21.199,142.919,98.9317,98.2922,-3.82926e-05,0.0414123,21.0102,121.962,0.054498,0.0,0.0
1891,472.5,20.3077,21.0709,144.136,99.0238,98.1931,6.3359e-05,0.0414606,21.0107,121.912,0.0707935,0.0,0.0
1922,480.25,20.2111,20.7073,141.878,99.6399,98.6684,0.000649853,0.0414234,21.012,121.812,0.0823377,0.0,0.0
1953,488,20.312,20.8567,141.444,99.2682,98.4493,0.000461399,0.0412202,21.0122,121.732,0.0696113,0.0,0.0
1984,495.75,19.7739,20.7908,140.43,99.4308,98.5827,0.000245009,0.04122,21.011,121.632,0.0719855,0.0,0.0
2015,503.5,20.0247,21.1521,139.084,99.8582,99.0495,0.000204619,0.041374,21.0117,121.602,0.0683325,0.0,0.0
2046,511.25,20.1232,20.9168,142.131,99.6311,98.7978,8.78913e-05,0.0414373,21.0121,121.482,0.0705789,0.0,0.0
2077,519,20.1606,20.8678,139.44,98.697,97.8022,0.000376198,0.0413864,21.0087,121.432,0.0765333,0.0,0.0
2108,526.75,19.6628,20.9482,142.471,97.9215,97.0453,0.000177552,0.0414418,21.0078,121.322,0.0755286,0.0,0.0
2139,534.5,19.8235,20.9465,142.972,98.0869,97.1881,0.000185853,0.0414347,21.0096,121.221,0.0773572,0.0,0.0
2170,542.25,20.301,20.4194,138.312,98.8412,97.9834,9.66472e-05,0.0415826,21.0108,121.211,0.0732488,0.0,0.0
2201,550,20.1029,20.5855,144.67,99.2017,98.3694,0.000204444,0.0415436,21.0119,121.131,0.0708014,0.0,0.0
2232,557.75,19.6773,20.8156,143.208,98.9609,98.1762,0.000164771,0.0416546,21.0105,121.081,0.0669064,0.0,0.0
2263,565.5,20.3727,20.6671,136.994,99.0679,98.535,0.000682931,0.0419955,21.01,120.981,0.045328,0.0,0.0
2294,573.25,20.3004,21.2364,139.951,99.6134,98.9473,0.000497045,0.0421528,21.01,120.811,0.0563859,0.0,0.0
2325,581,20.8804,21.0549,139.69,99.14,98.34,0.00032272,0.0418571,21.0085,120.861,0.068091,0.0,0.0
2356,588.75,20.1582,20.618,139.156,99.71,98.7871,0.000122136,0.0418338,21.0084,120.781,0.0781434,0.0,0.0
2387,596.5,20.1621,20.8858,138.113,99.8502,98.9486,0.000326676,0.0419758,21.0084,120.521,0.0762196,0.0,0.0
2418,604.25,19.708,20.4106,143.677,99.1764,98.676,0.000269499,0.0417044,21.0087,120.471,0.0425137,0.0,0.0
2449,612,19.8515,20.551,137.959,98.2728,97.5563,8.46055e-05,0.0418068,21.0101,120.381,0.0614912,0.0,0.0
2480,619.75,19.8095,20.5924,145.378,97.8786,97.1203,0.000419115,0.0420814,21.011,120.311,0.0653598,0.0,0.0
2511,627.5,19.7456,19.9383,139.625,98.1726,97.2149,8.17966e-05,0.0418232,21.0103,120.311,0.0823833,0.0,0.0
2542,635.25,19.0791,20.134,137.106,98.7042,98.0686,0.000240956,0.0417711,21.01,120.271,0.054286,0.0,0.0
2573,643,19.6691,20.4082,136.646,99.0935,98.5461,8.48462e-07,0.0415461,21.01,120.23,0.0465515,0.0,0.0
2604,650.75,19.9375,20.2561,142.458,99.1937,98.4872,7.3942e-05,0.0417534,21.0088,120.11,0.0600639,0.0,0.0
2635,658.5,19.3616,20.2435,139.761,99.0631,98.3654,1.13662e-05,0.0419594,21.0087,120.1,0.0593955,0.0,0.0
2666,666.25,19.7399,20.3439,143.714,98.9237,98.0686,0.000278316,0.0419089,21.0099,119.93,0.0729548,0.0,0.0
2697,674,19.3982,20.3529,141.631,98.8103,98.0753,6.6992e-06,0.041973,21.0094,119.84,0.0627441,0.0,0.0
2728,681.75,19.0521,20.3121,139.702,98.7278,97.8897,-8.46168e-05,0.0417109,21.0088,119.85,0.0716467,0.0,0.0
2759,689.5,19.5372,19.9364,140.612,98.7719,98.0351,3.75845e-05,0.042076,21.0093,119.76,0.0629161,0.0,0.0
2790,697.25,19.3235,19.9201,140.514,99.0615,98.5055,0.000284404,0.0423171,21.0113,119.73,0.0472967,0.0,0.0
2821,705,19.2727,20.1395,139.951,99.2529,98.4359,0.000319363,0.0424119,21.0096,119.64,0.0694662,0.0,0.0
2852,712.75,19.2185,20.3721,140.88,99.3867,98.709,,,,119.59,0.0575013,0.0,0.0
2883,720.5,19.3335,20.2382,139.028,99.5001,99.1508,,,,119.57,0.0295521,0.0,0.0

File: Standard_Gypsum_Wallboard_Cone_HF50Scalar_220511_R1.csv
LABORATORY,FSRI
TEST IDENT,Standard_Gypsum_50_1
OPERATOR,Dow
MATERIAL,Standard Gypsum
ORIENTATION,Horizontal
HEAT FLUX,50
SURF AREA,0.01
C FACTOR,0.0418584
SPEC HOLDER DIFF,-566
SPECIMEN MASS,79.06
SCAN TIME,0.25
O2 DELAY TIME,11
CO DELAY TIME,11
CO2 DELAY TIME,8
FLOW FACTOR,1
SCAN COUNT,722
TIME TO IGN,44.75
END OF TEST SCAN,242
END OF TEST TIME,60.5
TEST STATUS,1
PRE TEST CMT,Dimensions: 101.90 x 103.58 x 12.69 mm
POST TEST CMT,"The gypsum paper continued to have a glowing orange color after the flame self-extinguished, however the test was ended because there was no longer ignition."

File: Standard_Gypsum_Wallboard_Cone_HF50Scalar_220511_R2.csv
LABORATORY,FSRI
TEST IDENT,Standard_Gypsum_50_2
OPERATOR,Dow
MATERIAL,Standard Gypsum
ORIENTATION,Horizontal
HEAT FLUX,50
SURF AREA,0.01
C FACTOR,0.0418584
SPEC HOLDER DIFF,-566
SPECIMEN MASS,76.52
SCAN TIME,0.25
O2 DELAY TIME,11
CO DELAY TIME,11
CO2 DELAY TIME,8
FLOW FACTOR,1
SCAN COUNT,724
TIME TO IGN,45.5
END OF TEST SCAN,244
END OF TEST TIME,61
TEST STATUS,1
PRE TEST CMT,Dimensions: 100.67 x 102.50 x 12.75 mm
POST TEST CMT,"The gypsum paper continued to have a glowing orange color after the flame self-extinguished, however the test was ended because there was no longer ignition."

File: Standard_Gypsum_Wallboard_Cone_HF50Scan_220511_R1.csv
Names,Time,Stack TC,Smoke TC,Exh Press,Smoke Comp,Smoke Meas,CO Meter,CO2 Meter,O2 Meter,Sample Mass,Ext Coeff,Start Test,Flame Verif
Chan Gain,,500,500,1,1,1,1,1,1,1,1,1.0,1.0
Offset,,0,0,0.138628,0,0,0,0,0,0,0,0.0,0.0
Gain,,1,1,25.011,13.1256,14.6231,1,1,1,1.001,0.958019,1.0,1.0
Units,sec,C,C,Pa,%,%,%,%,%,g,/m,,
Baseline,,33.9426,35.2677,134.917,99.4946,100.201,0.000383343,0.0420457,21.0009,-445.244,-0.0594194,,
8,1.75,30.449,31.6465,134.826,99.3795,100.001,0.000275068,0.0463727,20.9979,126.567,-0.0524219,0.0,0.0
16,3.75,30.1535,31.1016,136.501,99.3615,99.9599,0.000304397,0.0462482,20.9981,126.527,-0.0504574,0.0,0.0
24,5.75,30.1399,31.5826,133.58,99.3751,100.089,0.000389358,0.0459836,20.9981,126.487,-0.060179,0.0,0.0
32,7.75,30.465,31.7722,136.308,99.3447,99.9353,0.000382155,0.0459425,20.9988,126.467,-0.0498164,0.0,0.0
40,9.75,30.8408,31.8197,135.7,99.3278,99.6908,0.000282305,0.0457238,20.9999,126.437,-0.0306507,0.0,0.0
48,11.75,31.1091,32.2622,135.47,99.305,100.118,0.000301219,0.0455662,21.0003,126.287,-0.0685437,0.0,0.0
56,13.75,30.8839,32.1814,135.225,99.2894,99.963,0.000445732,0.0454488,20.9983,126.287,-0.0568202,0.0,0.0
64,15.75,31.201,32.324,139.451,99.2946,99.9144,0.000506691,0.0454059,20.9974,126.156,-0.0522893,0.0,0.0
72,17.75,30.6068,32.5945,133.058,99.2918,100.202,0.000473087,0.0449828,20.997,126.126,-0.0766645,0.0,0.0
80,19.75,31.0497,32.2645,134.196,99.2838,99.5783,0.000457942,0.044666,20.9977,126.016,-0.0248939,0.0,0.0
88,21.75,31.1383,32.8082,133.454,99.2682,99.5422,0.000421166,0.044411,20.9998,126.026,-0.0231649,0.0,0.0
96,23.75,31.6232,32.6331,133.723,99.2658,99.564,0.00043289,0.0443327,21.0009,125.876,-0.0252139,0.0,0.0
104,25.75,31.8232,32.7774,133.332,99.2421,99.3012,0.000499901,0.0442611,21.0013,125.806,-0.00499995,0.0,0.0
112,27.75,31.2326,32.7822,132.239,99.2337,98.796,0.000508878,0.0444889,21.0015,125.766,0.0371475,0.0,0.0
120,29.75,31.7086,33.0069,134.944,99.2121,98.601,0.000449502,0.0446681,21.0016,125.696,0.0519197,0.0,0.0
128,31.75,31.6739,33.2785,132.941,99.166,97.3765,0.000611959,0.0444691,21.0012,125.636,0.153038,0.0,0.0
136,33.75,32.147,33.0258,134.483,99.146,98.1802,0.00106432,0.0446359,21.0001,125.516,0.0822633,0.0,0.0
144,35.75,31.7289,33.3334,137.852,99.1099,96.8686,0.0015885,0.0451424,20.9993,125.306,0.192226,0.0,0.0
152,37.75,31.9558,33.3739,136.122,99.0711,96.3938,0.00210339,0.0457399,20.9969,125.286,0.230225,0.0,0.0
160,39.75,32.3717,33.4907,132.013,99.0418,95.3103,0.00258568,0.0463767,20.9952,125.175,0.322742,0.0,0.0
168,41.75,32.2106,33.5667,134.132,99.0186,94.8667,0.00303297,0.0475213,20.9923,125.025,0.359974,0.0,0.0
176,43.75,32.2376,33.175,131.444,99.0214,96.5295,0.00332509,0.0626152,20.9911,124.905,0.214192,0.0,0.0
184,45.75,32.5485,33.3865,120.587,99.0294,102.236,0.00321978,0.126418,20.874,124.635,-0.26782,0.0,1.0
192,47.75,34.9478,34.309,117.722,99.0326,103.31,0.00290921,0.255586,20.733,124.244,-0.355344,0.0,1.0
200,49.75,35.7992,35.202,119.599,99.0434,104.23,0.00269042,0.346417,20.6638,123.954,-0.428947,0.0,1.0
208,51.75,37.4535,36.8662,125.137,99.0342,103.995,0.0028565,0.380658,20.6404,123.754,-0.41071,0.0,0.0
216,53.75,39.3039,38.7295,118.445,99.0515,102.026,0.00362365,0.366554,20.6673,123.484,-0.248655,0.0,0.0
224,55.75,40.2179,39.7245,129.363,99.0467,101.874,0.00521489,0.317932,20.7218,123.253,-0.236519,0.0,0.0
232,57.75,40.2489,40.3517,132.181,99.0515,100.425,0.00774793,0.252263,20.7858,123.253,-0.11576,0.0,0.0
240,59.75,40.5541,40.7299,133.085,99.0591,100.173,0.0106148,0.194075,20.8446,123.013,-0.0939888,0.0,0.0
248,61.75,39.0733,40.0958,132.961,99.0535,100.448,0.0127773,0.154201,20.8755,122.873,-0.117495,0.0,0.0
256,63.75,38.9275,40.135,134.1,99.0595,99.784,0.0137353,0.132472,20.8923,122.813,-0.0612456,0.0,0.0
264,65.75,39.0596,39.574,131.874,99.0975,100.469,0.0136821,0.120269,20.9019,122.683,-0.115474,0.0,0.0
272,67.75,38.6009,39.6911,131.907,99.0775,100.097,0.0131888,0.112714,20.9089,122.543,-0.0860212,0.0,0.0
280,69.75,38.2489,39.4378,132.483,99.0887,100.443,0.0126035,0.108037,20.9134,122.513,-0.114056,0.0,0.0
288,71.75,38.2688,39.1356,130.473,99.0887,100.608,0.0118027,0.104148,20.9205,122.353,-0.12786,0.0,0.0
296,73.75,37.9925,39.1862,131.143,99.1027,100.467,0.010982,0.0992457,20.9276,122.373,-0.114921,0.0,0.0
304,75.75,38.0597,38.6835,133.954,99.1264,101.044,0.0102221,0.0947097,20.9335,122.192,-0.161007,0.0,0.0
312,77.75,37.6132,39.0609,135.075,99.1091,100.395,0.00959053,0.0910906,20.9387,122.122,-0.108365,0.0,0.0
320,79.75,37.1919,38.2684,135.073,99.1184,100.367,0.00898437,0.0876919,20.9426,122.052,-0.105193,0.0,0.0
328,81.75,36.8543,38.4087,131.799,99.1272,100.667,0.00844277,0.0840319,20.9464,121.942,-0.129518,0.0,0.0
336,83.75,36.6779,38.4759,132.636,99.1332,100.032,0.0079693,0.0810797,20.9495,121.682,-0.0758664,0.0,0.0
344,85.75,36.3575,38.2262,132.152,99.138,99.8586,0.0076846,0.0787311,20.9527,121.572,-0.0608621,0.0,0.0
352,87.75,36.6207,38.0681,131.739,99.148,100.802,0.00738211,0.0767418,20.9562,121.502,-0.139033,0.0,0.0
360,89.75,36.2012,38.1523,130.412,99.1612,99.8461,0.00707582,0.0751159,20.9577,121.452,-0.0578415,0.0,0.0
368,91.75,36.3528,37.684,129.748,99.1704,99.9559,0.00669889,0.0734859,20.959,121.412,-0.0662952,0.0,0.0
376,93.75,35.4886,37.5261,130.783,99.1724,100.658,0.0063973,0.0718257,20.9624,121.251,-0.124937,0.0,0.0
384,95.75,36.1288,37.665,133.893,99.1772,100.583,0.00623435,0.0704474,20.9643,121.131,-0.118267,0.0,0.0
392,97.75,35.636,37.5298,134.515,99.1913,100.087,0.00612936,0.0693131,20.9651,121.021,-0.0755166,0.0,0.0
400,99.75,35.4492,37.7765,132.383,99.2081,99.9081,0.00593518,0.0682601,20.9667,120.851,-0.0590899,0.0,0.0
408,101.75,35.2424,37.597,133.426,99.2021,100.392,0.00555813,0.0669659,20.9693,120.821,-0.10019,0.0,0.0
416,103.75,35.7428,37.4513,135.151,99.2045,99.5917,0.0052785,0.0658883,20.9712,120.771,-0.0327393,0.0,0.0
424,105.75,35.4075,36.8774,134.607,99.2101,100.527,0.00503872,0.0645186,20.9728,120.651,-0.110823,0.0,0.0
432,107.75,35.1182,36.9233,131.559,99.2209,99.793,0.00475604,0.0625228,20.9748,120.601,-0.0483145,0.0,0.0
440,109.75,34.8845,36.9725,130.863,99.2161,100.489,0.00447883,0.0611812,20.9762,120.581,-0.107143,0.0,0.0
448,111.75,34.7168,36.9051,133.838,99.2249,100.455,0.0041912,0.0599659,20.979,120.471,-0.10356,0.0,0.0
456,113.75,34.4971,36.354,133.802,99.2337,99.8345,0.00387026,0.058516,20.9819,120.371,-0.050723,0.0,0.0
464,115.75,34.4021,37.2143,134.247,99.2317,100.081,0.00354437,0.0564186,20.9846,120.291,-0.071602,0.0,0.0
472,117.75,34.4281,36.56,135.064,99.2425,99.9153,0.0032484,0.0544491,20.9866,120.301,-0.0567733,0.0,0.0
480,119.75,34.4893,36.7619,132.303,99.2626,100.382,0.00292627,0.0527839,20.9888,120.15,-0.0942461,0.0,0.0
488,121.75,34.4867,36.677,132.067,99.2718,100.423,0.00261385,0.0511363,20.9909,120.12,-0.0969028,0.0,0.0
496,123.75,34.3104,35.9554,132.799,99.2846,100.14,0.00231066,0.0495716,20.993,120,-0.0720704,0.0,0.0
504,125.75,34.4531,36.5643,135.469,99.3018,100.138,0.00191802,0.0482681,20.995,119.95,-0.0704629,0.0,0.0
512,127.75,34.0912,36.0895,133.596,99.3022,100.3,0.00144751,0.0472006,20.9981,119.92,-0.0840504,0.0,0.0
520,129.75,34.0753,36.0018,131.583,99.3102,100.212,0.00110791,0.0462421,20.9997,119.81,-0.0759659,0.0,0.0
528,131.75,34.0097,35.685,135.528,99.3335,99.9755,0.000951649,0.0456495,21.0004,119.72,-0.0541428,0.0,0.0
536,133.75,33.6705,36.2619,130.743,99.3302,100.369,0.000851231,0.0448425,21.0003,119.64,-0.0873968,0.0,0.0
544,135.75,33.7873,35.8639,133.061,99.3355,100.215,0.000755629,0.0444215,20.9997,119.53,-0.074093,0.0,0.0
552,137.75,33.48,35.6335,136.67,99.3491,100.647,0.000647252,0.0441769,20.9995,119.55,-0.10905,0.0,0.0
560,139.75,33.3556,35.7562,133.291,99.3707,100.908,0.000550722,0.0439904,20.9994,119.49,-0.12899,0.0,0.0
568,141.75,33.697,35.4461,134.938,99.3663,100.685,0.000518952,0.0437029,20.9993,119.38,-0.11076,0.0,0.0
576,143.75,33.3884,35.7274,132.54,99.3799,100.127,0.000576122,0.0434805,21.0004,119.27,-0.0629189,0.0,0.0
584,145.75,33.5548,35.1485,133.824,99.3899,99.7898,0.000605373,0.0434068,21.001,119.31,-0.0337461,0.0,0.0
592,147.75,33.0759,35.4051,134.759,99.4024,100.082,0.000538161,0.0430547,21.0009,119.259,-0.0572383,0.0,0.0
600,149.75,33.5334,34.8472,133.81,99.416,100.827,0.000535767,0.0429227,21.0008,119.209,-0.118434,0.0,0.0
608,151.75,33.0136,35.5016,135.471,99.422,100.172,0.000556138,0.042833,21,119.149,-0.0631828,0.0,0.0
616,153.75,33.2379,35.1135,134.648,99.4384,100.408,0.000576387,0.042761,21.0004,119.119,-0.0815388,0.0,0.0
624,155.75,32.948,34.8599,136.047,99.466,100.727,0.000551762,0.0426336,21.0006,119.029,-0.105866,0.0,0.0
632,157.75,33.4324,35.4245,133.168,99.458,100.507,0.000509249,0.0425661,21.0017,118.929,-0.0881677,0.0,0.0
640,159.75,33.6033,35.3227,135.195,99.4672,100.512,0.000524899,0.0426643,21.003,118.949,-0.0878002,0.0,0.0
648,161.75,33.2057,34.7985,131.052,99.4833,100.34,0.0005452,0.0425836,21.0036,118.889,-0.072032,0.0,0.0
656,163.75,33.4524,34.9939,132.227,99.4937,100.442,0.000457754,0.0424852,21.0051,118.829,-0.0797071,0.0,0.0
664,165.75,32.9864,35.0751,133.914,99.5121,100.832,0.000441512,0.0425182,21.0047,118.779,-0.110757,0.0,0.0
672,167.75,33.3107,34.7341,134.08,99.5297,100.262,0.000586607,0.0422907,21.0041,118.759,-0.0615645,0.0,0.0
680,169.75,32.7408,34.9528,134.392,99.5474,100.2,,0.0423068,,118.659,-0.05495,0.0,0.0
688,171.75,33.2851,35.0993,134.809,99.563,100.651,,0.0423904,,118.619,-0.0913117,0.0,0.0
696,173.75,32.8047,34.7979,130.707,99.5918,100.295,,,,118.559,-0.0591292,0.0,0.0
704,175.75,33.0892,34.1864,133.19,99.6138,100.256,,,,118.619,-0.0539785,0.0,0.0
712,177.75,32.7334,34.6878,134.766,99.6315,100.493,,,,118.439,-0.0723689,0.0,0.0
720,179.75,32.8207,34.4201,131.323,99.6407,100.676,,,,118.399,-0.086878,0.0,0.0
722,180.25,32.5814,34.2993,132.189,99.6359,100.211,,,,118.399,-0.0483412,0.0,0.0