Folder: fsri_materials_database/01_Data/Particleboard/HFM

Note: 01_Data/README.md
# Materials and Products Database
## 01_Data

Raw data generated from each apparatus are included here in plain-text format. The data is organized first by material, next by the short name of test apparatus used, and where applicable additional filtering by test settings.

### material.json

Each material directory contains a json file of the same name as the material. This file links the data stored in the repository as well as data and graphs produced by the accompanying scripts (__02_Scripts__) to the respective landing page for the material on the front-end website.

File: Particleboard_Density_Dry_R1.csv
,Particleboard_1_DRY
Sample Mass [g],497.5
Sample Volume [cm3],785.2
Sample Density [kg/m3],634

File: Particleboard_Density_Dry_R2.csv
,Particleboard_2_DRY
Sample Mass [g],493.0
Sample Volume [cm3],788.0
Sample Density [kg/m3],626

File: Particleboard_Density_Dry_R3.csv
,Particleboard_3_DRY
Sample Mass [g],488.7
Sample Volume [cm3],787.6
Sample Density [kg/m3],621

File: Particleboard_Density_Wet_R1.csv
,Particleboard_1_WET
Sample Mass [g],537.0
Sample Volume [cm3],785.2
Sample Density [kg/m3],684

File: Particleboard_Density_Wet_R2.csv
,Particleboard_2_WET
Sample Mass [g],532.9
Sample Volume [cm3],788.0
Sample Density [kg/m3],676

File: Particleboard_Density_Wet_R3.csv
,Particleboard_3_WET
Sample Mass [g],528.2
Sample Volume [cm3],787.6
Sample Density [kg/m3],671

File: Particleboard_Ignition_Temp_Properties.csv
Thermal Conductivity (W/m-K),0.134
Heat Capacity (J/kg-K),1578.0
Density (kg/m3),677.0