Folder: fsri_materials_database/01_Data/Particleboard/MCC (part 2)

File: Particleboard_MCC_30K_min_211006_R3.txt
Sample ID:	C:\MCC\MCC Cal\Test\Particleboard_MCC_30K_min_211006_R3.txt
Sample Weight (mg):	4.51
Heating Rate (C/s):	0.5
Combustor Temp (C):	900
N2 Flow Rate (cc/min):	80
O2 Flow Rate (cc/min):	20
Calibration File:	C:\MCC\MCC Cal\Coeff1 JN10440_30_210304.txt.txt
T Correction Coefficients:	0	1.024463	0
Time Shift (s):	14
*
Time (s)	Temperature (C)	N2 flow rate (cc/min)	O2 flow rate (cc/min)	Flow Rate (cc/min)	Oxygen (%)	HRR (W/g)	Heating rate (C/s)
0.000	107.175	79.998	19.996	100.748	20.031	-0.279	0.010
8.000	107.142	79.998	19.995	100.763	20.029	-0.162	-0.003
16.000	107.179	80.000	19.995	100.794	20.024	0.232	0.030
24.000	107.235	79.997	19.995	100.819	20.014	0.915	-0.010
32.000	107.566	79.997	19.996	100.861	20.006	1.436	0.051
40.000	108.233	79.998	19.996	100.964	19.992	2.412	0.141
48.000	109.386	79.997	19.995	100.977	19.989	2.678	0.176
56.000	111.016	79.999	19.996	100.952	19.978	3.421	0.260
64.000	112.926	79.999	19.996	100.982	19.978	3.440	0.241
72.000	115.160	79.999	19.996	101.004	19.980	3.283	0.282
80.000	117.688	79.999	19.996	101.007	19.978	3.406	0.333
88.000	120.440	79.998	19.995	101.020	19.972	3.827	0.374
96.000	123.431	80.000	19.995	101.018	19.974	3.710	0.364
104.000	126.568	80.000	19.997	101.016	19.975	3.653	0.413
112.000	129.880	79.998	19.995	101.020	19.974	3.714	0.429
120.001	133.318	79.997	19.995	101.014	19.976	3.570	0.448
128.000	136.844	79.999	19.997	101.013	19.969	4.025	0.454
136.000	140.432	79.997	19.996	101.015	19.970	3.950	0.463
144.000	144.152	79.999	19.997	101.019	19.966	4.284	0.474
152.000	147.846	79.999	19.995	101.017	19.963	4.447	0.445
160.000	151.668	79.997	19.996	101.018	19.967	4.210	0.479
168.000	155.485	79.998	19.997	101.027	19.964	4.414	0.476
176.000	159.375	79.999	19.998	101.014	19.962	4.542	0.524
184.000	163.250	80.000	19.997	101.014	19.958	4.840	0.456
192.000	167.327	79.998	19.996	101.015	19.957	4.890	0.520
200.000	171.225	79.998	19.996	101.016	19.953	5.173	0.480
208.000	175.243	79.998	19.995	101.019	19.952	5.220	0.523
216.000	179.242	79.999	19.995	101.020	19.948	5.512	0.523
224.000	183.251	79.998	19.997	101.022	19.943	5.875	0.491
232.000	187.284	79.999	19.995	101.019	19.937	6.289	0.501
240.000	191.202	80.000	19.997	101.012	19.932	6.666	0.479
248.000	195.204	79.999	19.997	101.013	19.927	6.970	0.488
256.000	199.110	80.002	19.997	101.013	19.926	7.034	0.503
264.000	203.112	80.000	19.995	101.012	19.920	7.501	0.515
272.000	207.000	79.996	19.996	101.008	19.915	7.846	0.506
280.000	211.018	79.997	19.997	101.010	19.916	7.731	0.509
288.000	214.867	79.998	19.996	101.014	19.911	8.122	0.508
296.000	218.843	79.998	19.997	101.014	19.907	8.385	0.502
304.000	222.740	79.998	19.997	101.009	19.909	8.247	0.511
312.000	226.710	79.998	19.996	101.006	19.901	8.820	0.528
320.000	230.714	80.000	19.995	101.013	19.898	9.028	0.497
328.000	234.704	79.999	19.995	101.014	19.895	9.244	0.509
336.000	238.670	79.998	19.996	101.017	19.883	10.044	0.502
344.000	242.647	80.001	19.995	101.017	19.879	10.325	0.527
352.000	246.545	79.998	19.996	101.024	19.872	10.840	0.496
360.000	250.623	79.998	19.997	101.033	19.862	11.548	0.507
368.000	254.651	79.997	19.995	101.028	19.853	12.161	0.510
376.000	258.678	80.000	19.996	101.043	19.834	13.516	0.507
384.001	262.716	79.998	19.995	101.052	19.812	15.035	0.471
392.000	266.643	79.999	19.996	101.054	19.791	16.507	0.531
400.000	270.684	80.001	19.996	101.072	19.770	17.978	0.509
408.000	274.690	79.998	19.995	101.077	19.747	19.572	0.513
416.000	278.726	79.998	19.995	101.095	19.729	20.816	0.534
424.000	282.730	80.000	19.995	101.098	19.704	22.618	0.496
432.000	286.799	80.000	19.996	101.101	19.674	24.664	0.485
440.000	290.860	79.998	19.996	101.104	19.647	26.591	0.509
448.000	294.887	79.998	19.997	101.126	19.620	28.474	0.463
456.000	298.928	79.998	19.997	101.133	19.588	30.731	0.541
464.000	302.979	79.998	19.996	101.148	19.552	33.256	0.532
472.000	307.007	79.997	19.996	101.171	19.517	35.730	0.523
480.000	311.064	79.998	19.996	101.175	19.477	38.536	0.521
488.000	315.127	79.998	19.994	101.201	19.429	41.871	0.495
496.000	319.121	80.001	19.996	101.209	19.376	45.577	0.516
504.000	323.129	80.000	19.995	101.216	19.327	49.018	0.498
512.000	327.137	80.000	19.995	101.242	19.271	52.955	0.473
520.000	331.184	79.999	19.996	101.250	19.217	56.761	0.513
528.000	335.197	79.999	19.996	101.254	19.169	60.085	0.496
536.000	339.216	79.999	19.996	101.267	19.139	62.206	0.542
544.000	343.170	80.017	20.003	101.256	19.123	63.280	0.515
552.000	347.197	79.996	19.998	101.218	19.140	62.113	0.515
560.000	351.199	79.999	19.997	101.194	19.182	59.118	0.511
568.000	355.299	80.001	19.995	101.144	19.250	54.303	0.509
576.000	359.296	80.000	19.995	101.109	19.338	48.168	0.483
584.000	363.277	79.999	19.997	101.070	19.449	40.408	0.506
592.000	367.327	80.002	19.996	101.039	19.558	32.768	0.525
600.000	371.353	79.997	19.995	101.016	19.655	25.967	0.501
608.000	375.432	79.996	19.996	101.001	19.727	20.960	0.492
616.000	379.456	79.997	19.997	100.984	19.788	16.718	0.530
624.000	383.452	79.998	19.996	100.974	19.830	13.784	0.499
632.000	387.339	79.998	19.996	100.975	19.853	12.181	0.499
640.000	391.399	79.999	19.996	100.985	19.863	11.438	0.526
648.000	395.447	79.997	19.997	100.979	19.866	11.245	0.502
656.000	399.539	80.000	19.995	100.978	19.874	10.720	0.540
664.000	403.634	80.000	19.996	100.980	19.877	10.458	0.546
672.000	407.761	79.999	19.997	100.995	19.880	10.245	0.506
680.000	411.973	79.998	19.996	100.982	19.882	10.133	0.520
688.000	416.025	79.998	19.997	100.977	19.883	10.047	0.481
696.000	420.170	79.998	19.995	100.976	19.892	9.458	0.486
704.000	424.244	79.998	19.997	100.982	19.896	9.179	0.498
712.000	428.444	79.997	19.996	100.981	19.901	8.818	0.541
720.000	432.686	79.998	19.996	100.987	19.904	8.610	0.549
728.000	437.022	79.999	19.996	101.005	19.906	8.471	0.549
736.000	441.346	79.999	19.999	101.000	19.912	8.031	0.530
744.000	445.597	79.997	19.996	100.983	19.921	7.408	0.539
752.000	449.879	79.999	19.995	100.977	19.917	7.708	0.539
760.000	454.090	80.000	19.995	100.976	19.922	7.310	0.521
768.000	458.334	79.998	19.995	100.977	19.934	6.511	0.564
776.000	462.471	79.999	19.996	100.971	19.934	6.466	0.500
784.000	466.532	79.999	19.996	100.977	19.936	6.369	0.492
792.000	470.638	79.998	19.997	100.978	19.943	5.864	0.511
800.000	474.672	79.996	19.996	100.977	19.946	5.641	0.516
808.000	478.730	79.999	19.996	100.973	19.952	5.214	0.498
816.000	482.705	80.001	19.995	100.971	19.951	5.324	0.516
824.000	486.668	79.997	19.997	100.973	19.952	5.211	0.470
832.000	490.710	79.999	19.997	100.972	19.951	5.278	0.495
840.000	494.814	80.001	19.995	100.972	19.952	5.249	0.498
848.000	498.913	79.998	19.994	100.974	19.959	4.762	0.480
856.000	503.094	79.998	19.995	100.997	19.958	4.847	0.532
864.000	507.240	79.997	19.995	100.982	19.961	4.622	0.516
872.000	511.363	79.998	19.996	100.978	19.963	4.501	0.527
880.000	515.467	79.998	19.995	100.979	19.964	4.390	0.512
888.000	519.666	79.999	19.995	100.978	19.964	4.405	0.544
896.000	523.772	80.001	19.996	100.973	19.958	4.797	0.540
904.000	527.867	80.001	19.996	100.976	19.964	4.414	0.497
912.000	531.974	80.000	19.995	100.973	19.960	4.699	0.507
920.000	536.076	80.001	19.996	100.977	19.966	4.271	0.515
928.000	540.136	79.998	19.995	100.984	19.958	4.801	0.508
936.000	544.252	79.999	19.997	100.982	19.964	4.400	0.529
944.000	548.267	79.997	19.994	101.003	19.966	4.235	0.499
952.000	552.399	80.000	19.996	100.991	19.962	4.541	0.479
960.000	556.516	80.000	19.997	100.981	19.966	4.239	0.501
968.000	560.605	80.000	19.995	100.998	19.965	4.315	0.519
976.000	564.664	80.000	19.997	100.983	19.958	4.806	0.498
984.000	568.746	79.998	19.996	101.006	19.970	3.945	0.532
992.000	572.845	79.999	19.996	100.999	19.964	4.387	0.547
1000.000	576.988	80.002	19.995	101.009	19.966	4.270	0.497
1008.000	581.063	79.998	19.995	101.000	19.962	4.511	0.499
1016.000	585.147	79.998	19.997	100.984	19.962	4.567	0.508
1024.000	589.265	79.999	19.996	101.009	19.964	4.435	0.487
1032.000	593.396	79.999	19.996	101.002	19.959	4.744	0.519
1040.000	597.511	79.998	19.995	101.011	19.959	4.782	0.525
1048.000	601.634	79.999	19.996	101.002	19.963	4.493	0.513
1056.000	605.791	80.001	19.996	101.002	19.963	4.463	0.536
1064.000	609.854	79.999	19.994	101.015	19.968	4.131	0.545
1072.000	613.974	79.999	19.996	101.011	19.963	4.451	0.533
1080.000	618.036	80.003	19.996	101.003	19.960	4.646	0.511
1088.001	622.102	80.001	19.997	101.012	19.959	4.769	0.509
1096.000	626.159	79.999	19.997	101.011	19.965	4.310	0.507
1104.000	630.231	80.000	19.995	101.010	19.965	4.353	0.506
1112.001	634.317	79.999	19.997	101.006	19.962	4.523	0.511
1120.000	638.397	80.000	19.996	101.014	19.957	4.897	0.539
1128.001	642.479	79.998	19.995	101.015	19.962	4.552	0.531
1136.000	646.542	80.002	19.997	101.000	19.961	4.578	0.514
1144.000	650.656	80.001	19.995	101.004	19.960	4.697	0.519
1152.000	654.763	80.001	19.996	101.007	19.962	4.520	0.520
1160.000	658.864	80.004	19.995	101.013	19.958	4.799	0.487
1168.000	662.931	80.003	19.998	101.011	19.957	4.873	0.485
1176.000	666.977	79.999	19.996	101.010	19.956	4.937	0.498
1184.000	671.052	79.999	19.996	101.016	19.952	5.237	0.504
1192.000	675.182	80.000	19.995	101.000	19.958	4.788	0.541
1200.000	679.291	80.000	19.998	101.014	19.953	5.138	0.537
1208.001	683.340	79.998	19.997	101.009	19.954	5.110	0.475
1216.000	687.416	80.001	19.996	101.014	19.955	5.039	0.510
1224.001	691.486	80.001	19.996	101.011	19.950	5.364	0.483
1232.000	695.567	80.000	19.997	101.007	19.949	5.445	0.526
1240.000	699.551	80.001	19.996	101.006	19.953	5.198	0.486
1248.000	703.596	80.002	19.996	101.014	19.948	5.509	0.498
1256.000	707.579	80.000	19.994	101.017	19.946	5.685	0.527
1264.001	711.601	80.000	19.996	101.017	19.944	5.775	0.510
1272.000	715.658	79.999	19.996	101.016	19.950	5.381	0.517
1280.000	719.668	79.999	19.996	101.012	19.945	5.724	0.514
1288.001	723.746	79.998	19.997	101.012	19.949	5.462	0.524
1296.000	727.820	79.999	19.999	101.012	19.947	5.589	0.512
1304.001	731.919	80.001	19.995	101.017	19.947	5.562	0.515
1312.000	735.999	80.000	19.996	101.016	19.941	6.006	0.513
1320.000	740.036	80.001	19.996	101.015	19.942	5.936	0.517
1327.000	743.523	80.000	19.995	101.017	19.950	5.401	0.503

File: Particleboard_MCC_30K_min_211018_R4.txt
Sample ID:	C:\MCC\MCC Cal\Test\Particleboard\Particleboard_MCC_30K_min_211018_R4.txt
Sample Weight (mg):	4.81
Heating Rate (C/s):	0.5
Combustor Temp (C):	900
N2 Flow Rate (cc/min):	80
O2 Flow Rate (cc/min):	20
Calibration File:	C:\MCC\MCC Cal\Coeff1 JN10440_30_210304.txt.txt
T Correction Coefficients:	0	1.024463	0
Time Shift (s):	14
*
Time (s)	Temperature (C)	N2 flow rate (cc/min)	O2 flow rate (cc/min)	Flow Rate (cc/min)	Oxygen (%)	HRR (W/g)	Heating rate (C/s)
0.000	108.576	79.996	19.995	102.937	20.151	-0.115	-0.017
8.000	108.618	79.995	19.995	102.941	20.147	0.128	0.003
16.000	108.685	79.996	19.996	103.036	20.140	0.621	0.015
24.000	109.003	79.999	19.995	103.090	20.125	1.622	0.065
32.000	109.743	79.998	19.995	103.149	20.118	2.088	0.117
40.000	110.994	79.998	19.994	103.156	20.110	2.637	0.178
48.001	112.625	79.999	19.994	103.172	20.106	2.908	0.251
56.000	114.594	79.997	19.994	103.205	20.106	2.870	0.251
64.000	116.911	79.997	19.995	103.177	20.105	2.976	0.300
72.001	119.508	79.996	19.995	103.210	20.105	2.960	0.338
80.001	122.353	79.996	19.995	103.205	20.106	2.909	0.340
88.000	125.444	79.997	19.994	103.202	20.105	2.963	0.381
96.000	128.742	79.995	19.995	103.212	20.103	3.085	0.418
104.000	132.217	79.996	19.996	103.203	20.101	3.235	0.457
112.000	135.789	79.998	19.995	103.206	20.098	3.403	0.434
120.000	139.494	79.998	19.994	103.231	20.098	3.406	0.438
128.000	143.368	80.000	19.996	103.204	20.097	3.470	0.515
136.000	147.227	79.997	19.995	103.267	20.103	3.061	0.481
144.000	151.175	79.999	19.995	103.180	20.101	3.196	0.486
152.000	155.184	79.997	19.995	103.204	20.096	3.574	0.504
160.000	159.171	79.997	19.996	103.191	20.097	3.521	0.497
168.000	163.165	79.996	19.995	103.203	20.090	3.954	0.492
176.000	167.200	79.997	19.996	103.204	20.094	3.727	0.475
184.000	171.247	79.999	19.995	103.190	20.082	4.520	0.522
192.000	175.193	79.997	19.995	103.166	20.081	4.536	0.441
200.000	179.198	79.996	19.995	103.178	20.076	4.889	0.512
208.000	183.158	80.000	19.994	103.169	20.071	5.211	0.496
216.000	187.172	79.998	19.995	103.192	20.066	5.535	0.496
224.000	191.195	79.998	19.995	103.243	20.062	5.861	0.526
232.000	195.140	79.998	19.995	103.161	20.061	5.896	0.475
240.000	199.121	79.997	19.995	103.165	20.056	6.230	0.505
248.000	203.128	79.998	19.995	103.205	20.054	6.358	0.510
256.000	207.115	79.996	19.994	103.189	20.052	6.504	0.509
264.000	211.077	79.998	19.994	103.187	20.047	6.847	0.514
272.000	215.050	79.999	19.995	103.165	20.044	7.034	0.514
280.000	218.998	79.998	19.996	103.160	20.042	7.149	0.462
288.000	223.000	80.000	19.996	103.156	20.036	7.564	0.488
296.000	226.977	80.000	19.995	103.155	20.030	7.949	0.486
304.000	231.040	79.997	19.995	103.159	20.025	8.286	0.511
312.000	235.006	79.997	19.995	103.168	20.022	8.546	0.529
320.000	239.030	79.997	19.994	103.159	20.014	9.054	0.504
328.000	242.935	79.997	19.995	103.172	20.011	9.276	0.509
336.000	246.954	79.998	19.994	103.147	19.999	10.043	0.530
344.000	250.998	79.999	19.995	103.190	19.983	11.137	0.497
352.000	254.991	79.999	19.996	103.192	19.971	11.939	0.528
360.000	259.028	79.999	19.995	103.180	19.954	13.077	0.508
368.000	263.027	80.000	19.996	103.202	19.935	14.368	0.533
376.000	267.062	79.999	19.996	103.220	19.914	15.744	0.489
384.000	271.113	79.997	19.996	103.220	19.891	17.299	0.519
392.000	275.151	79.997	19.994	103.241	19.867	18.889	0.523
400.000	279.170	79.998	19.995	103.233	19.841	20.650	0.490
408.000	283.120	79.997	19.996	103.244	19.812	22.619	0.490
416.000	287.197	79.997	19.996	103.269	19.778	24.877	0.523
424.000	291.394	79.999	19.995	103.288	19.747	26.943	0.658
432.000	295.206	79.999	19.995	103.286	19.718	28.873	0.533
440.000	299.186	79.997	19.996	103.283	19.683	31.224	0.489
448.000	303.199	79.998	19.995	103.285	19.643	33.952	0.499
456.000	307.168	79.998	19.995	103.314	19.601	36.728	0.487
464.000	311.144	79.996	19.996	103.332	19.554	39.931	0.493
472.000	315.142	79.997	19.997	103.339	19.508	42.989	0.497
480.000	319.137	79.998	19.995	103.363	19.458	46.378	0.521
488.000	323.139	79.997	19.994	103.367	19.399	50.294	0.524
496.000	327.164	79.997	19.994	103.367	19.348	53.744	0.513
504.000	331.157	79.998	19.995	103.400	19.299	57.048	0.490
512.000	335.270	79.999	19.994	103.390	19.256	59.873	0.530
520.000	339.284	79.998	19.993	103.408	19.238	61.098	0.523
528.000	343.347	79.999	19.996	103.375	19.245	60.591	0.504
536.000	347.420	80.000	19.996	103.351	19.271	58.853	0.497
544.000	351.489	79.998	19.996	103.348	19.327	55.094	0.500
552.000	355.616	79.998	19.996	103.268	19.405	49.845	0.490
560.000	359.686	79.997	19.996	103.236	19.500	43.470	0.502
568.000	363.788	79.998	19.996	103.162	19.603	36.527	0.511
576.000	367.889	79.996	19.994	103.167	19.711	29.345	0.492
584.000	371.970	79.998	19.995	103.160	19.795	23.719	0.506
592.001	376.108	79.997	19.995	103.123	19.863	19.139	0.488
600.001	380.225	79.998	19.994	103.112	19.919	15.419	0.524
608.000	384.232	80.001	19.995	103.137	19.957	12.885	0.500
616.000	388.313	80.000	19.995	103.121	19.976	11.603	0.530
624.000	392.268	79.996	19.995	103.089	19.992	10.496	0.451
632.000	396.369	79.997	19.995	103.090	20.002	9.859	0.487
640.000	400.348	79.997	19.995	103.108	20.004	9.726	0.522
648.000	404.340	79.996	19.994	103.100	20.006	9.548	0.471
656.000	408.471	79.996	19.997	103.106	20.009	9.345	0.545
664.000	412.361	79.998	19.995	103.099	20.018	8.771	0.492
672.000	416.414	79.999	19.995	103.080	20.016	8.933	0.504
680.000	420.422	79.997	19.994	103.103	20.026	8.260	0.508
688.000	424.427	79.997	19.995	103.085	20.028	8.124	0.496
696.000	428.542	79.999	19.993	103.093	20.028	8.089	0.514
704.000	432.656	79.997	19.994	103.100	20.033	7.737	0.538
712.000	436.724	79.996	19.996	103.090	20.044	7.065	0.546
720.001	440.795	79.995	19.995	103.086	20.047	6.857	0.529
728.000	444.888	79.997	19.995	103.089	20.057	6.164	0.486
736.000	448.897	79.997	19.995	103.084	20.059	6.019	0.498
744.000	452.957	79.996	19.997	103.078	20.064	5.708	0.523
752.000	456.979	79.998	19.996	103.057	20.068	5.411	0.518
760.000	461.030	79.998	19.995	103.084	20.068	5.423	0.500
768.000	465.079	80.000	19.995	103.081	20.076	4.880	0.513
776.000	469.093	80.000	19.995	103.087	20.085	4.308	0.452
784.000	473.168	79.998	19.994	103.067	20.079	4.696	0.495
792.000	477.295	79.998	19.993	103.074	20.085	4.309	0.503
800.000	481.385	79.999	19.995	103.071	20.082	4.512	0.530
808.000	485.446	79.998	19.996	103.082	20.092	3.847	0.502
816.000	489.537	79.998	19.995	103.080	20.090	3.931	0.513
824.000	493.710	79.998	19.996	103.073	20.094	3.687	0.525
832.000	497.892	79.999	19.994	103.078	20.094	3.670	0.531
840.000	501.942	79.997	19.996	103.076	20.099	3.379	0.509
848.000	506.102	79.999	19.995	103.085	20.101	3.249	0.514
856.000	510.270	80.000	19.995	103.084	20.102	3.158	0.507
864.000	514.449	79.999	19.995	103.065	20.101	3.251	0.553
872.000	518.567	79.997	19.995	103.078	20.103	3.115	0.506
880.000	522.742	79.999	19.995	103.054	20.105	2.925	0.506
888.000	526.895	79.998	19.994	103.077	20.108	2.780	0.566
896.000	531.025	79.998	19.995	103.057	20.105	2.981	0.491
904.000	535.201	79.997	19.995	103.051	20.104	3.038	0.499
912.000	539.322	79.999	19.996	103.056	20.104	2.997	0.514
920.000	543.452	80.001	19.996	103.043	20.104	3.023	0.513
928.000	547.535	80.000	19.996	103.050	20.103	3.103	0.530
936.000	551.626	80.001	19.995	103.055	20.105	2.954	0.529
944.000	555.758	80.001	19.996	103.106	20.112	2.456	0.520
952.000	559.851	79.999	19.994	103.032	20.102	3.128	0.514
960.000	563.948	79.998	19.994	103.064	20.101	3.218	0.534
968.000	567.987	79.999	19.995	103.061	20.105	2.954	0.516
976.000	572.065	79.997	19.994	103.067	20.107	2.790	0.542
984.000	576.239	79.996	19.994	103.092	20.107	2.822	0.523
992.000	580.406	80.000	19.995	103.064	20.106	2.912	0.542
1000.000	584.447	79.996	19.996	103.046	20.102	3.181	0.511
1008.000	588.542	79.998	19.995	103.072	20.105	2.952	0.508
1016.000	592.677	80.002	19.996	103.077	20.106	2.891	0.518
1024.000	596.806	79.997	19.996	103.079	20.107	2.801	0.517
1032.000	600.898	79.997	19.996	103.068	20.110	2.631	0.533
1040.000	604.928	79.996	19.994	103.044	20.106	2.868	0.506
1048.000	608.964	79.998	19.994	103.042	20.103	3.083	0.493
1056.001	613.025	79.999	19.995	103.099	20.112	2.502	0.529
1064.000	617.107	80.000	19.995	103.049	20.104	3.001	0.511
1072.000	621.196	79.999	19.994	103.076	20.106	2.857	0.512
1080.000	625.287	79.999	19.996	103.063	20.109	2.688	0.521
1088.000	629.401	79.999	19.995	103.064	20.105	2.970	0.510
1096.000	633.505	79.999	19.995	103.066	20.106	2.880	0.506
1104.000	637.671	80.000	19.995	103.044	20.103	3.097	0.518
1112.001	641.809	79.996	19.996	103.045	20.097	3.459	0.538
1120.000	645.841	79.997	19.996	103.052	20.099	3.335	0.520
1128.000	649.900	79.997	19.993	103.054	20.098	3.446	0.513
1136.000	654.013	79.997	19.995	103.049	20.100	3.289	0.509
1144.000	658.107	79.997	19.995	103.050	20.093	3.765	0.497
1152.000	662.162	79.999	19.994	103.040	20.089	4.049	0.490
1160.000	666.198	80.000	19.995	103.058	20.093	3.781	0.470
1168.000	670.273	80.000	19.993	103.046	20.093	3.762	0.546
1176.000	674.315	80.000	19.995	103.042	20.094	3.694	0.491
1184.000	678.410	80.000	19.995	103.045	20.092	3.825	0.520
1192.001	682.483	79.998	19.995	103.048	20.086	4.254	0.489
1200.000	686.502	80.000	19.995	103.062	20.092	3.847	0.456
1208.000	690.552	79.997	19.995	103.045	20.089	3.997	0.502
1216.000	694.652	79.998	19.995	103.035	20.079	4.698	0.495
1224.000	698.689	79.998	19.994	103.061	20.090	3.936	0.523
1232.000	702.711	79.998	19.994	103.040	20.086	4.219	0.503
1240.000	706.759	80.001	19.994	103.047	20.082	4.461	0.513
1248.001	710.824	80.000	19.995	103.048	20.081	4.526	0.544
1256.000	714.890	80.002	19.994	103.050	20.084	4.338	0.484
1264.000	719.018	79.999	19.994	103.058	20.082	4.513	0.524
1272.000	723.096	79.997	19.994	103.050	20.081	4.580	0.483
1280.001	727.224	79.998	19.995	103.050	20.079	4.711	0.499
1288.000	731.271	79.997	19.996	103.043	20.080	4.619	0.494
1296.001	735.325	79.996	19.995	103.048	20.078	4.761	0.478
1304.000	739.284	79.998	19.996	103.044	20.079	4.664	0.495
1312.001	743.354	80.001	19.994	103.045	20.079	4.700	0.524
1312.500	743.623	80.000	19.994	103.045	20.079	4.664	0.521