Folder: fsri_materials_database/01_Data/Particleboard/MCC

Note: 01_Data/README.md
# Materials and Products Database
## 01_Data

Raw data generated from each apparatus are included here in plain-text format. The data is organized first by material, next by the short name of test apparatus used, and where applicable additional filtering by test settings.

### material.json

Each material directory contains a json file of the same name as the material. This file links the data stored in the repository as well as data and graphs produced by the accompanying scripts (__02_Scripts__) to the respective landing page for the material on the front-end website.

File: Particleboard_MCC_30K_min_211005_R1.txt
Sample ID:	C:\MCC\MCC Cal\Test\Particleboard_MCC_30K_min_211005_R1.txt
Sample Weight (mg):	4.63
Heating Rate (C/s):	0.5
Combustor Temp (C):	900
N2 Flow Rate (cc/min):	80
O2 Flow Rate (cc/min):	20
Calibration File:	C:\MCC\MCC Cal\Coeff1 JN10440_30_210304.txt.txt
T Correction Coefficients:	0	1.024463	0
Time Shift (s):	14
*
Time (s)	Temperature (C)	N2 flow rate (cc/min)	O2 flow rate (cc/min)	Flow Rate (cc/min)	Oxygen (%)	HRR (W/g)	Heating rate (C/s)
0.000	106.501	79.998	19.998	100.897	19.957	0.201	-0.018
8.000	106.450	80.000	19.995	100.900	19.955	0.304	-0.045
16.000	106.492	79.998	19.996	100.900	19.954	0.352	-0.004
24.000	106.509	79.998	19.996	100.930	19.954	0.390	-0.000
32.000	106.637	79.999	19.997	100.968	19.948	0.801	0.005
40.000	106.950	79.997	19.995	100.997	19.937	1.545	0.028
48.000	107.563	79.995	19.996	101.066	19.928	2.117	0.087
56.000	108.565	79.997	19.997	101.083	19.923	2.470	0.143
64.000	109.943	79.998	19.996	101.122	19.915	3.046	0.196
72.000	111.734	79.997	19.996	101.162	19.908	3.489	0.237
80.000	113.971	79.996	19.995	101.174	19.904	3.788	0.303
88.000	116.565	79.997	19.996	101.173	19.903	3.823	0.335
96.000	119.503	79.999	19.995	101.188	19.902	3.923	0.375
104.000	122.753	79.996	19.995	101.187	19.900	4.055	0.410
112.000	126.169	79.998	19.996	101.179	19.903	3.883	0.451
120.000	129.776	79.999	19.996	101.188	19.901	3.976	0.452
128.000	133.497	79.997	19.997	101.182	19.900	4.041	0.446
136.000	137.338	79.998	19.997	101.174	19.903	3.827	0.511
144.000	141.286	79.998	19.998	101.173	19.896	4.320	0.521
152.000	145.314	79.998	19.997	101.172	19.899	4.146	0.510
160.000	149.302	79.998	19.996	101.175	19.898	4.179	0.530
168.000	153.287	79.998	19.996	101.157	19.898	4.166	0.502
176.000	157.258	79.999	19.996	101.167	19.893	4.517	0.527
184.000	161.213	79.998	19.997	101.171	19.892	4.571	0.484
192.000	165.153	79.999	19.995	101.151	19.894	4.475	0.516
200.001	169.081	80.000	19.997	101.158	19.886	5.038	0.502
208.000	173.010	80.000	19.997	101.141	19.882	5.305	0.458
216.000	176.929	79.998	19.997	101.140	19.878	5.549	0.501
224.000	180.876	79.998	19.996	101.142	19.876	5.661	0.500
232.000	184.745	79.997	19.996	101.143	19.874	5.849	0.476
240.000	188.766	79.996	19.997	101.139	19.866	6.362	0.465
248.000	192.711	79.996	19.996	101.138	19.864	6.528	0.487
256.000	196.659	80.000	19.997	101.137	19.863	6.587	0.506
264.000	200.599	80.000	19.997	101.133	19.855	7.092	0.489
272.000	204.570	80.000	19.996	101.133	19.849	7.549	0.498
280.000	208.481	80.000	19.997	101.132	19.842	8.035	0.467
288.000	212.482	80.000	19.995	101.135	19.844	7.900	0.506
296.000	216.482	79.998	19.995	101.137	19.839	8.204	0.502
304.000	220.441	79.998	19.997	101.136	19.838	8.274	0.484
312.000	224.427	79.998	19.996	101.136	19.833	8.590	0.496
320.000	228.470	79.997	19.998	101.133	19.831	8.790	0.494
328.000	232.472	79.996	19.997	101.132	19.822	9.385	0.480
336.000	236.434	79.999	19.998	101.133	19.816	9.807	0.494
344.000	240.335	80.000	19.998	101.131	19.811	10.117	0.504
352.000	244.245	79.999	19.996	101.135	19.805	10.517	0.473
360.000	248.248	79.999	19.996	101.141	19.792	11.434	0.507
368.000	252.255	80.000	19.995	101.146	19.778	12.342	0.447
376.000	256.293	79.998	19.996	101.151	19.758	13.759	0.535
384.000	260.194	79.998	19.995	101.151	19.740	14.966	0.425
392.000	264.206	79.998	19.996	101.171	19.721	16.276	0.494
400.000	268.174	79.997	19.995	101.175	19.696	17.937	0.501
408.000	272.250	79.998	19.997	101.180	19.677	19.235	0.510
416.000	276.241	79.999	19.996	101.196	19.652	20.969	0.488
424.000	280.282	79.999	19.996	101.207	19.629	22.534	0.513
432.000	284.230	79.997	19.996	101.213	19.597	24.697	0.497
440.000	288.042	80.000	19.996	101.217	19.567	26.782	0.288
448.000	292.327	79.999	19.995	101.226	19.533	29.082	0.532
456.000	296.381	80.000	19.995	101.243	19.503	31.166	0.529
464.000	300.462	80.000	19.996	101.250	19.461	34.030	0.531
472.000	304.475	79.998	19.996	101.256	19.422	36.690	0.502
480.000	308.577	80.000	19.995	101.281	19.374	39.953	0.504
488.001	312.686	79.995	19.997	101.294	19.330	42.995	0.534
496.000	316.732	79.996	19.997	101.301	19.280	46.367	0.528
504.000	320.731	79.998	19.995	101.328	19.228	49.983	0.508
512.000	324.790	79.997	19.996	101.331	19.181	53.189	0.487
520.000	328.835	79.999	19.997	101.343	19.128	56.815	0.512
528.000	332.892	80.001	19.997	101.341	19.090	59.397	0.513
536.000	336.910	80.000	19.995	101.332	19.068	60.909	0.509
544.000	340.971	79.999	19.996	101.330	19.061	61.314	0.493
552.000	345.005	79.998	19.996	101.316	19.077	60.218	0.533
560.000	349.050	79.997	19.996	101.276	19.126	56.877	0.512
568.000	353.100	79.997	19.994	101.243	19.192	52.301	0.484
576.000	357.206	79.996	19.997	101.195	19.282	46.208	0.504
584.001	361.280	79.998	19.995	101.153	19.376	39.787	0.512
592.000	365.290	80.000	19.997	101.121	19.473	33.144	0.509
600.000	369.302	79.999	19.995	101.093	19.563	26.971	0.501
608.000	373.360	79.998	19.997	101.076	19.642	21.647	0.544
616.000	377.374	79.999	19.996	101.056	19.703	17.502	0.514
624.000	381.428	79.999	19.997	101.055	19.737	15.143	0.511
632.000	385.459	79.998	19.995	101.057	19.767	13.133	0.508
640.000	389.427	79.998	19.996	101.056	19.787	11.742	0.485
648.000	393.454	79.996	19.996	101.053	19.793	11.347	0.510
656.000	397.458	79.998	19.995	101.054	19.799	10.953	0.480
664.000	401.483	79.998	19.996	101.054	19.806	10.424	0.501
672.000	405.536	79.999	19.996	101.052	19.809	10.284	0.541
680.000	409.591	79.999	19.996	101.053	19.809	10.269	0.491
688.000	413.631	79.999	19.996	101.055	19.815	9.858	0.498
696.000	417.677	79.999	19.996	101.047	19.816	9.771	0.522
704.000	421.764	79.998	19.996	101.048	19.820	9.485	0.518
712.000	425.805	79.998	19.996	101.039	19.829	8.890	0.551
720.000	429.839	79.999	19.995	101.039	19.833	8.610	0.467
728.000	433.905	79.999	19.995	101.039	19.839	8.173	0.549
736.000	437.932	79.997	19.996	101.036	19.848	7.561	0.510
744.000	441.931	79.998	19.996	101.026	19.846	7.709	0.485
752.000	445.919	80.002	19.997	101.030	19.851	7.363	0.527
760.000	449.853	79.999	19.996	101.028	19.855	7.095	0.495
768.000	453.797	79.999	19.996	101.028	19.864	6.520	0.482
776.000	457.875	80.001	19.996	101.016	19.869	6.169	0.487
784.000	461.913	80.000	19.996	101.026	19.869	6.139	0.473
792.000	465.991	79.998	19.997	101.042	19.876	5.691	0.479
800.000	470.077	79.997	19.998	101.016	19.881	5.354	0.517
808.000	474.246	79.997	19.995	101.031	19.884	5.120	0.524
816.000	478.336	79.996	19.996	101.019	19.882	5.264	0.499
824.000	482.380	79.997	19.995	101.027	19.886	4.982	0.472
832.000	486.406	79.999	19.996	101.020	19.887	4.930	0.509
840.000	490.451	79.998	19.996	101.016	19.889	4.786	0.513
848.000	494.531	80.000	19.995	101.014	19.888	4.878	0.498
856.000	498.601	79.999	19.996	101.015	19.892	4.608	0.530
864.001	502.640	80.000	19.997	101.014	19.894	4.448	0.513
872.000	506.756	79.998	19.996	101.017	19.894	4.429	0.511
880.000	510.794	79.998	19.997	101.022	19.896	4.306	0.490
888.000	514.879	79.996	19.996	101.018	19.895	4.381	0.513
896.000	519.000	79.997	19.996	101.018	19.900	4.071	0.502
904.000	523.026	79.995	19.996	101.015	19.901	4.009	0.500
912.000	527.042	79.999	19.996	101.017	19.906	3.633	0.508
920.000	531.013	79.999	19.996	101.017	19.904	3.755	0.503
928.000	534.988	79.998	19.995	101.013	19.901	3.985	0.481
936.000	538.984	80.000	19.996	101.019	19.906	3.631	0.509
944.000	542.967	80.000	19.995	101.016	19.905	3.714	0.498
952.000	546.909	79.998	19.996	101.019	19.902	3.932	0.497
960.000	550.891	79.994	19.995	101.019	19.906	3.654	0.522
968.001	554.918	79.997	19.996	101.018	19.901	3.952	0.550
976.000	558.923	80.000	19.999	101.020	19.902	3.903	0.519
984.000	562.936	79.998	19.996	101.047	19.905	3.721	0.507
992.000	567.234	79.998	19.996	101.043	19.911	3.332	0.553
1000.000	571.788	80.000	19.995	101.046	19.906	3.616	0.568
1008.000	576.538	79.998	19.996	101.050	19.903	3.840	0.588
1016.000	581.241	79.998	19.994	101.050	19.900	4.021	0.602
1024.000	585.875	80.000	19.994	101.032	19.903	3.875	0.557
1032.000	590.511	79.998	19.994	101.031	19.897	4.242	0.578
1040.000	595.113	79.998	19.997	101.052	19.899	4.152	0.605
1048.000	599.603	79.998	19.998	101.045	19.896	4.327	0.563
1056.000	604.118	79.998	19.996	101.035	19.895	4.384	0.529
1064.000	608.574	80.000	19.996	101.036	19.896	4.327	0.543
1072.000	613.012	79.997	19.996	101.051	19.902	3.909	0.559
1080.000	617.425	79.999	19.996	101.049	19.898	4.167	0.547
1088.000	621.724	79.998	19.997	101.056	19.901	3.974	0.507
1096.000	626.008	79.998	19.998	101.036	19.895	4.363	0.538
1104.000	630.223	80.001	19.995	101.026	19.899	4.153	0.505
1112.000	634.470	80.000	19.997	101.029	19.894	4.443	0.551
1120.001	638.574	80.000	19.996	101.019	19.903	3.878	0.524
1128.000	642.686	80.001	19.996	101.019	19.900	4.031	0.501
1136.000	646.709	79.997	19.996	101.038	19.898	4.156	0.503
1144.000	650.721	79.998	19.996	101.027	19.896	4.291	0.501
1152.000	654.761	79.998	19.996	101.030	19.906	3.655	0.508
1160.000	658.745	80.000	19.997	101.019	19.899	4.134	0.508
1168.000	662.815	79.999	19.997	101.028	19.900	4.044	0.499
1176.000	666.840	80.000	19.996	101.024	19.899	4.103	0.525
1184.000	670.877	80.000	19.995	101.024	19.900	4.041	0.509
1192.001	674.991	80.000	19.995	101.031	19.901	3.983	0.516
1200.000	679.069	79.997	19.995	101.047	19.903	3.854	0.523
1208.000	683.152	79.999	19.996	101.022	19.900	4.059	0.512
1216.000	687.189	79.999	19.996	101.023	19.899	4.136	0.506
1224.000	691.172	79.997	19.995	101.026	19.897	4.269	0.461
1232.000	695.209	79.996	19.996	101.026	19.900	4.059	0.505
1240.000	699.236	79.998	19.997	101.030	19.902	3.926	0.476
1248.001	703.281	79.999	19.995	101.038	19.905	3.720	0.517
1256.000	707.302	79.999	19.996	101.029	19.905	3.693	0.527
1264.000	711.276	79.998	19.996	101.034	19.893	4.520	0.484
1272.000	715.377	80.001	19.996	101.039	19.896	4.330	0.482
1280.000	719.483	79.997	19.995	101.030	19.896	4.332	0.503
1288.000	723.538	79.998	19.998	101.035	19.893	4.556	0.506
1296.000	727.539	79.999	19.996	101.031	19.889	4.769	0.502
1304.000	731.576	79.998	19.995	101.028	19.891	4.651	0.499
1312.000	735.639	79.997	19.995	101.019	19.893	4.553	0.514
1320.000	739.676	79.999	19.996	101.033	19.889	4.801	0.509
1327.500	743.450	80.000	19.996	101.035	19.891	4.638	0.513

File: Particleboard_MCC_30K_min_211006_R2.txt
Sample ID:	C:\MCC\MCC Cal\Test\Particleboard_MCC_30K_min_211006_R2.txt
Sample Weight (mg):	4.92
Heating Rate (C/s):	0.5
Combustor Temp (C):	900
N2 Flow Rate (cc/min):	80
O2 Flow Rate (cc/min):	20
Calibration File:	C:\MCC\MCC Cal\Coeff1 JN10440_30_210304.txt.txt
T Correction Coefficients:	0	1.024463	0
Time Shift (s):	14
*
Time (s)	Temperature (C)	N2 flow rate (cc/min)	O2 flow rate (cc/min)	Flow Rate (cc/min)	Oxygen (%)	HRR (W/g)	Heating rate (C/s)
0.000	107.789	79.993	19.995	100.640	20.046	-0.038	-0.017
7.500	107.756	79.994	19.992	100.657	20.043	0.150	-0.002
15.000	107.857	79.999	19.997	100.707	20.033	0.796	0.038
22.500	108.109	79.996	19.995	100.798	20.018	1.759	0.092
30.000	108.778	79.995	19.993	100.864	20.009	2.312	0.120
37.500	109.859	79.997	19.995	100.861	20.000	2.884	0.158
45.000	111.407	79.994	19.997	100.859	19.999	2.931	0.206
52.500	113.166	79.995	19.996	100.878	19.998	3.032	0.264
60.000	115.186	79.995	19.996	100.888	19.996	3.136	0.275
67.500	117.506	79.995	19.996	100.909	19.994	3.285	0.332
75.000	120.134	79.994	19.996	100.914	19.992	3.406	0.346
82.500	123.034	79.995	19.996	100.917	19.994	3.256	0.407
90.000	126.066	79.990	19.998	100.920	19.992	3.418	0.433
97.500	129.334	79.998	19.996	100.908	19.996	3.148	0.416
105.001	132.684	79.995	19.994	100.903	19.994	3.281	0.485
112.500	136.164	79.994	19.996	100.905	19.990	3.499	0.446
120.000	139.735	79.995	19.996	100.903	19.994	3.298	0.481
127.501	143.325	79.995	19.996	100.897	20.000	2.864	0.495
135.000	146.946	79.995	19.994	100.893	20.000	2.887	0.489
142.500	150.631	79.992	19.998	100.891	20.000	2.873	0.488
150.000	154.241	79.994	19.995	100.900	20.001	2.840	0.469
157.501	157.887	79.994	19.996	100.893	19.997	3.080	0.476
165.001	161.502	79.995	19.996	100.891	19.996	3.163	0.467
172.500	165.241	79.995	19.997	100.898	19.992	3.414	0.477
180.000	168.916	79.997	19.996	100.869	19.989	3.599	0.478
187.500	172.598	79.996	19.996	100.888	19.982	4.036	0.513
195.000	176.319	79.995	19.996	100.898	19.980	4.174	0.519
202.500	180.081	79.995	19.995	100.901	19.977	4.360	0.532
210.001	183.800	79.996	19.996	100.890	19.978	4.326	0.462
217.501	187.700	79.994	19.996	100.871	19.978	4.303	0.505
225.000	191.523	79.995	19.997	100.885	19.969	4.866	0.524
232.500	195.352	79.996	19.996	100.862	19.964	5.198	0.503
240.001	199.060	79.997	19.995	100.864	19.961	5.353	0.507
247.500	202.805	79.996	19.994	100.869	19.960	5.431	0.512
255.000	206.511	79.997	19.996	100.861	19.956	5.735	0.480
262.500	210.185	79.997	19.995	100.851	19.954	5.804	0.473
270.000	213.818	79.996	19.995	100.855	19.951	6.000	0.504
277.500	217.467	79.996	19.995	100.854	19.949	6.166	0.485
285.000	221.082	79.995	19.994	100.865	19.945	6.392	0.502
292.500	224.702	79.996	19.994	100.863	19.940	6.731	0.495
300.000	228.376	79.996	19.995	100.861	19.941	6.637	0.490
307.500	232.095	79.994	19.996	100.862	19.937	6.905	0.474
315.000	235.804	79.998	19.994	100.866	19.931	7.286	0.473
322.500	239.469	79.997	19.995	100.860	19.931	7.303	0.477
330.000	243.224	79.995	19.996	100.865	19.926	7.595	0.522
337.500	246.972	79.997	19.994	100.873	19.923	7.843	0.520
345.000	250.738	79.999	19.996	100.865	19.913	8.479	0.530
352.500	254.459	79.994	19.996	100.889	19.902	9.186	0.514
360.000	258.240	79.996	19.995	100.894	19.890	9.955	0.488
367.500	262.034	79.997	19.996	100.897	19.875	10.918	0.482
375.000	265.839	79.996	19.996	100.893	19.860	11.857	0.479
382.500	269.698	79.995	19.997	100.901	19.841	13.072	0.533
390.000	273.521	79.996	19.996	100.922	19.825	14.127	0.513
397.500	277.369	79.998	19.995	100.888	19.801	15.642	0.517
405.000	281.208	79.997	19.995	100.927	19.785	16.654	0.514
412.500	284.996	79.997	19.996	100.932	19.761	18.187	0.483
420.000	288.844	79.998	19.996	100.936	19.739	19.592	0.498
427.500	292.716	79.999	19.995	100.938	19.715	21.149	0.511
435.000	296.492	79.996	19.997	100.938	19.689	22.786	0.499
442.500	300.286	79.995	19.997	100.940	19.664	24.426	0.499
450.000	303.947	79.996	19.997	100.946	19.636	26.208	0.486
457.500	307.582	79.995	19.995	100.946	19.605	28.210	0.503
465.000	311.144	79.995	19.997	100.976	19.572	30.331	0.496
472.500	314.718	79.994	19.997	100.982	19.539	32.447	0.470
480.000	318.311	79.996	19.995	101.015	19.502	34.819	0.490
487.500	321.991	79.998	19.995	101.018	19.459	37.561	0.505
495.000	325.785	79.997	19.995	101.028	19.416	40.305	0.525
502.500	329.589	79.998	19.995	101.044	19.367	43.475	0.488
510.000	333.436	79.996	19.996	101.057	19.325	46.152	0.521
517.500	337.357	79.995	19.995	101.060	19.282	48.880	0.504
525.000	341.243	79.995	19.995	101.059	19.254	50.681	0.513
532.500	345.050	79.997	19.996	101.049	19.246	51.201	0.515
540.000	348.838	79.994	19.997	101.020	19.263	50.099	0.490
547.500	352.596	79.995	19.995	100.991	19.299	47.745	0.521
555.000	356.516	79.996	19.995	100.959	19.363	43.620	0.549
562.500	360.338	79.998	19.996	100.904	19.449	38.162	0.486
570.000	364.201	79.997	19.997	100.880	19.542	32.192	0.499
577.500	368.032	79.997	19.995	100.854	19.638	26.017	0.495
585.000	371.830	79.998	19.994	100.825	19.724	20.560	0.515
592.500	375.604	79.997	19.995	100.807	19.794	16.039	0.487
600.000	379.413	79.995	19.995	100.796	19.846	12.736	0.530
607.500	383.069	79.995	19.996	100.806	19.880	10.556	0.479
615.000	386.782	79.998	19.996	100.804	19.903	9.106	0.473
622.500	390.573	79.995	19.995	100.803	19.921	7.960	0.503
630.000	394.451	79.995	19.998	100.798	19.928	7.513	0.519
637.500	398.359	79.997	19.995	100.804	19.934	7.077	0.527
645.000	402.249	79.998	19.995	100.793	19.941	6.688	0.517
652.500	406.126	79.996	19.995	100.796	19.940	6.699	0.520
660.000	410.041	79.997	19.995	100.790	19.942	6.612	0.505
667.500	413.900	79.997	19.996	100.791	19.948	6.204	0.516
675.000	417.698	79.997	19.995	100.799	19.950	6.095	0.534
682.500	421.555	79.996	19.995	100.786	19.950	6.087	0.534
690.000	425.271	79.996	19.996	100.784	19.959	5.506	0.476
697.500	429.020	79.996	19.996	100.782	19.961	5.370	0.489
705.000	432.702	79.996	19.995	100.781	19.963	5.280	0.489
712.500	436.324	79.994	19.996	100.784	19.970	4.776	0.474
720.000	439.940	79.997	19.997	100.786	19.970	4.773	0.497
727.500	443.654	79.997	19.997	100.786	19.977	4.386	0.506
735.000	447.502	79.996	19.995	100.788	19.982	4.056	0.527
742.500	451.378	79.998	19.995	100.787	19.988	3.629	0.535
750.000	455.272	79.998	19.995	100.784	19.988	3.680	0.530
757.500	459.145	79.997	19.994	100.828	19.990	3.515	0.502
765.000	463.035	79.995	19.995	100.783	19.997	3.058	0.531
772.500	466.800	79.996	19.995	100.781	20.000	2.892	0.510
780.000	470.542	79.995	19.996	100.778	20.006	2.490	0.467
787.500	474.195	79.995	19.996	100.782	20.006	2.498	0.498
795.000	477.857	79.997	19.995	100.781	20.008	2.393	0.495
802.500	481.528	79.997	19.996	100.783	20.010	2.241	0.487
810.000	485.146	79.996	19.996	100.781	20.016	1.868	0.484
817.500	488.886	79.997	19.997	100.786	20.013	2.027	0.509
825.000	492.764	79.999	19.996	100.783	20.011	2.181	0.558
832.500	496.873	79.999	19.995	100.783	20.012	2.152	0.535
840.000	501.054	79.996	19.996	100.784	20.012	2.140	0.561
847.500	505.287	79.994	19.996	100.788	20.011	2.158	0.571
855.000	509.495	79.995	19.995	100.795	20.016	1.889	0.525
862.500	513.721	79.994	19.995	100.786	20.017	1.796	0.546
870.000	517.982	79.996	19.996	100.786	20.011	2.215	0.551
877.500	522.207	79.996	19.995	100.796	20.015	1.927	0.554
885.000	526.358	79.996	19.996	100.781	20.017	1.823	0.533
892.500	530.522	79.997	19.997	100.778	20.022	1.509	0.565
900.000	534.617	79.996	19.996	100.780	20.021	1.573	0.549
907.500	538.652	79.997	19.996	100.782	20.019	1.697	0.532
915.000	542.601	79.997	19.995	100.783	20.021	1.516	0.536
922.500	546.496	79.995	19.995	100.782	20.022	1.494	0.526
930.000	550.449	79.996	19.995	100.784	20.020	1.614	0.515
937.500	554.366	79.996	19.995	100.775	20.022	1.483	0.542
945.000	558.236	79.996	19.996	100.783	20.016	1.848	0.520
952.500	562.068	79.995	19.996	100.774	20.022	1.459	0.481
960.000	565.852	79.997	19.996	100.782	20.022	1.513	0.524
967.500	569.684	79.997	19.996	100.782	20.019	1.663	0.493
975.000	573.471	79.996	19.995	100.781	20.027	1.193	0.527
982.500	577.273	79.995	19.996	100.785	20.027	1.160	0.485
990.000	581.022	79.997	19.997	100.777	20.026	1.229	0.485
997.500	584.663	79.996	19.997	100.781	20.030	0.979	0.473
1005.000	588.181	79.995	19.996	100.779	20.027	1.146	0.467
1012.500	591.707	79.996	19.995	100.775	20.030	0.991	0.486
1020.000	595.176	79.996	19.995	100.779	20.024	1.364	0.481
1027.501	598.700	79.996	19.996	100.778	20.025	1.288	0.465
1035.000	602.138	79.995	19.995	100.784	20.026	1.197	0.453
1042.500	605.730	79.996	19.996	100.787	20.026	1.243	0.485
1050.000	609.293	79.997	19.995	100.785	20.026	1.195	0.466
1057.501	613.016	79.997	19.996	100.786	20.024	1.357	0.498
1065.000	616.829	79.996	19.996	100.791	20.027	1.148	0.514
1072.500	620.592	79.998	19.995	100.778	20.026	1.240	0.501
1080.000	624.406	79.996	19.997	100.781	20.024	1.324	0.520
1087.500	628.277	79.995	19.997	100.782	20.025	1.286	0.483
1095.000	632.211	79.997	19.996	100.781	20.029	1.029	0.520
1102.501	636.182	79.996	19.996	100.785	20.030	0.996	0.536
1110.000	640.134	79.995	19.996	100.782	20.029	1.048	0.532
1117.501	644.041	79.996	19.996	100.783	20.026	1.244	0.528
1125.000	647.860	79.997	19.995	100.744	20.025	1.266	0.477
1132.501	651.785	79.998	19.995	100.778	20.027	1.133	0.508
1140.001	655.615	79.997	19.995	100.772	20.028	1.124	0.529
1147.500	659.426	79.997	19.996	100.776	20.029	1.015	0.501
1155.001	663.143	79.999	19.996	100.771	20.025	1.281	0.482
1162.500	666.895	79.997	19.995	100.819	20.022	1.480	0.465
1170.001	670.582	79.997	19.997	100.784	20.026	1.212	0.476
1177.501	674.267	79.996	19.996	100.781	20.024	1.362	0.519
1185.000	677.874	79.997	19.996	100.783	20.027	1.157	0.467
1192.500	681.462	79.995	19.997	100.785	20.029	1.005	0.458
1200.000	685.195	79.996	19.996	100.784	20.024	1.380	0.509
1207.500	689.220	79.997	19.995	100.784	20.024	1.330	0.560
1215.001	693.394	79.997	19.996	100.783	20.022	1.464	0.552
1222.501	697.781	79.998	19.995	100.786	20.026	1.250	0.575
1230.000	702.151	79.998	19.995	100.786	20.021	1.519	0.601
1237.500	706.486	79.998	19.996	100.786	20.021	1.521	0.571
1245.000	710.825	79.995	19.997	100.788	20.021	1.563	0.533
1252.500	715.176	79.995	19.996	100.798	20.018	1.761	0.588
1260.000	719.357	79.996	19.996	100.783	20.016	1.868	0.561
1267.500	723.468	79.995	19.996	100.785	20.020	1.578	0.537
1275.000	727.569	79.995	19.998	100.782	20.024	1.362	0.530
1282.500	731.613	79.997	19.996	100.784	20.017	1.798	0.546
1290.001	735.614	79.997	19.995	100.794	20.017	1.777	0.527
1297.500	739.502	79.996	19.994	100.784	20.017	1.777	0.498
1305.000	743.423	79.997	19.994	100.789	20.020	1.594	0.511