Folder: fsri_materials_database/01_Data/Lightweight_Gypsum_Wallboard_Painted_Paper/MCC (part 2)

File: Lightweight_Gypsum_Wallboard_Painted_Paper_MCC_30K_min_211202_R2.txt
Sample ID:	C:\MCC\MCC Cal\Test\LW_GypBoard_Painted_Paper_MCC_30K_min_211202_R2.txt
Sample Weight (mg):	4.96
Heating Rate (C/s):	0.5
Combustor Temp (C):	900
N2 Flow Rate (cc/min):	80
O2 Flow Rate (cc/min):	20
Calibration File:	C:\MCC\MCC Cal\Coeff1 JN10440_30_210304.txt.txt
T Correction Coefficients:	0	1.024463	0
Time Shift (s):	14
*
Time (s)	Temperature (C)	N2 flow rate (cc/min)	O2 flow rate (cc/min)	Flow Rate (cc/min)	Oxygen (%)	HRR (W/g)	Heating rate (C/s)
0.000	112.177	80.003	19.995	103.060	20.028	-0.122	-0.041
7.500	112.163	80.004	19.996	103.059	20.029	-0.204	0.005
15.000	112.182	80.006	19.995	103.127	20.016	0.642	-0.001
22.500	112.473	80.007	19.996	103.296	19.991	2.267	0.055
30.000	113.320	80.006	19.995	103.305	19.987	2.548	0.134
37.501	114.705	80.005	19.995	103.245	19.983	2.788	0.247
45.001	116.418	80.006	19.995	103.324	19.981	2.936	0.264
52.501	118.594	80.005	19.995	103.325	19.981	2.911	0.330
60.001	121.067	80.002	19.996	103.337	19.978	3.130	0.342
67.500	123.847	80.005	19.995	103.339	19.975	3.305	0.388
75.000	126.752	80.005	19.996	103.337	19.975	3.323	0.395
82.500	129.934	80.004	19.995	103.341	19.975	3.320	0.416
90.000	133.200	80.004	19.997	103.339	19.976	3.273	0.447
97.500	136.646	80.005	19.996	103.334	19.973	3.415	0.464
105.001	140.244	80.005	19.995	103.341	19.974	3.382	0.502
112.501	143.964	80.005	19.996	103.331	19.975	3.329	0.491
120.000	147.690	80.001	19.995	103.345	19.977	3.154	0.499
127.501	151.534	80.006	19.995	103.333	19.972	3.518	0.524
135.000	155.291	80.007	19.995	103.336	19.975	3.308	0.490
142.500	159.143	80.003	19.994	103.316	19.972	3.478	0.520
150.000	162.971	80.005	19.995	103.304	19.974	3.379	0.503
157.500	166.811	80.005	19.995	103.300	19.971	3.562	0.503
165.000	170.608	80.006	19.995	103.297	19.972	3.496	0.496
172.500	174.382	80.006	19.995	103.297	19.969	3.713	0.526
180.000	178.117	80.007	19.995	103.288	19.968	3.793	0.498
187.500	181.903	80.003	19.995	103.281	19.963	4.069	0.512
195.000	185.622	80.002	19.994	103.274	19.962	4.161	0.509
202.500	189.311	80.005	19.994	103.284	19.960	4.306	0.484
210.000	193.015	80.003	19.995	103.278	19.960	4.266	0.487
217.500	196.670	80.003	19.995	103.274	19.955	4.601	0.504
225.001	200.379	80.004	19.995	103.288	19.955	4.597	0.509
232.500	204.051	80.006	19.994	103.288	19.951	4.881	0.487
240.000	207.768	80.006	19.997	103.277	19.945	5.249	0.486
247.500	211.449	80.006	19.995	103.281	19.947	5.098	0.483
255.000	215.233	80.006	19.995	103.262	19.944	5.308	0.511
262.500	218.939	80.005	19.995	103.278	19.941	5.500	0.496
270.000	222.725	80.002	19.995	103.263	19.940	5.595	0.501
277.500	226.475	80.001	19.995	103.258	19.937	5.743	0.491
285.000	230.240	80.005	19.996	103.260	19.935	5.899	0.498
292.500	233.950	80.005	19.994	103.261	19.940	5.549	0.481
300.000	237.732	80.003	19.995	103.257	19.938	5.684	0.492
307.500	241.440	80.004	19.996	103.257	19.938	5.711	0.487
315.000	245.242	80.005	19.994	103.265	19.936	5.837	0.496
322.501	248.986	80.005	19.994	103.263	19.937	5.756	0.498
330.000	252.749	80.002	19.995	103.261	19.931	6.177	0.470
337.500	256.588	80.004	19.995	103.262	19.923	6.703	0.521
345.000	260.313	80.005	19.995	103.268	19.912	7.386	0.501
352.500	264.062	80.005	19.996	103.265	19.910	7.551	0.499
360.000	267.803	80.002	19.995	103.260	19.900	8.158	0.522
367.500	271.642	80.004	19.996	103.257	19.885	9.131	0.535
375.000	275.383	80.002	19.996	103.266	19.869	10.165	0.491
382.500	279.140	80.004	19.995	103.298	19.856	11.012	0.492
390.000	282.853	80.005	19.995	103.298	19.840	12.054	0.511
397.500	286.590	80.003	19.995	103.298	19.823	13.197	0.489
405.000	290.381	80.003	19.995	103.301	19.807	14.239	0.530
412.500	294.164	80.008	19.993	103.293	19.785	15.633	0.534
420.000	297.990	80.005	19.994	103.305	19.761	17.222	0.544
427.500	301.697	80.005	19.995	103.323	19.744	18.340	0.500
435.000	305.490	80.002	19.996	103.335	19.719	19.943	0.506
442.500	309.374	80.005	19.995	103.341	19.690	21.844	0.538
450.000	313.149	80.002	19.995	103.338	19.661	23.721	0.483
457.500	316.938	80.005	19.995	103.356	19.637	25.322	0.488
465.000	320.773	80.005	19.996	103.376	19.603	27.505	0.525
472.500	324.552	80.003	19.995	103.378	19.565	29.942	0.492
480.000	328.365	80.009	19.994	103.391	19.528	32.418	0.505
487.501	332.148	80.004	19.995	103.410	19.484	35.262	0.516
495.000	335.975	80.005	19.995	103.413	19.436	38.356	0.499
502.500	339.809	80.005	19.995	103.438	19.376	42.316	0.516
510.000	343.576	80.002	19.994	103.455	19.316	46.242	0.485
517.500	347.335	80.004	19.995	103.466	19.248	50.637	0.502
525.000	351.160	80.005	19.995	103.494	19.187	54.613	0.530
532.500	354.992	80.003	19.995	103.496	19.135	58.002	0.525
540.000	358.777	80.002	19.996	103.492	19.102	60.110	0.483
547.500	362.570	80.004	19.996	103.460	19.104	60.001	0.508
555.000	366.350	80.005	19.996	103.419	19.149	56.987	0.481
562.500	370.212	80.006	19.995	103.381	19.228	51.815	0.497
570.000	374.101	80.006	19.996	103.309	19.340	44.544	0.525
577.500	377.991	80.006	19.994	103.264	19.453	37.214	0.519
585.000	381.782	80.004	19.995	103.229	19.547	31.118	0.472
592.500	385.676	80.004	19.996	103.227	19.600	27.633	0.481
600.000	389.513	80.004	19.993	103.223	19.599	27.741	0.494
607.500	393.399	80.001	19.995	103.218	19.568	29.712	0.514
615.000	397.191	80.003	19.994	103.224	19.526	32.447	0.483
622.500	401.023	80.004	19.995	103.236	19.486	35.040	0.509
630.000	404.806	80.003	19.995	103.222	19.454	37.147	0.479
637.500	408.624	80.003	19.995	103.220	19.461	36.696	0.531
645.000	412.382	80.005	19.995	103.216	19.504	33.872	0.503
652.500	416.023	80.006	19.995	103.192	19.581	28.892	0.444
660.000	419.950	80.005	19.995	103.195	19.692	21.680	0.454
667.500	423.756	80.006	19.996	103.194	19.787	15.515	0.535
675.000	427.550	80.005	19.996	103.183	19.849	11.452	0.495
682.501	431.238	80.008	19.994	103.182	19.888	8.970	0.468
690.000	435.075	80.003	19.995	103.185	19.911	7.488	0.511
697.501	438.810	80.004	19.995	103.182	19.926	6.517	0.467
705.000	442.552	80.004	19.996	103.187	19.938	5.709	0.488
712.500	446.300	80.005	19.995	103.182	19.949	5.003	0.484
720.000	450.046	80.003	19.995	103.186	19.953	4.716	0.492
727.500	453.829	80.002	19.996	103.187	19.958	4.427	0.506
735.000	457.602	80.006	19.995	103.178	19.967	3.823	0.513
742.500	461.446	80.005	19.996	103.177	19.967	3.843	0.498
750.000	465.237	80.004	19.995	103.182	19.971	3.578	0.486
757.500	469.038	80.004	19.995	103.180	19.974	3.356	0.509
765.000	472.848	80.006	19.994	103.180	19.979	3.049	0.529
772.500	476.741	80.005	19.995	103.183	19.980	2.974	0.513
780.000	480.571	80.003	19.994	103.180	19.982	2.833	0.492
787.500	484.390	80.003	19.995	103.181	19.984	2.729	0.491
795.000	488.295	80.006	19.995	103.175	19.986	2.565	0.516
802.500	492.194	80.005	19.995	103.179	19.990	2.313	0.495
810.000	496.076	80.007	19.995	103.162	19.992	2.193	0.496
817.500	499.937	80.007	19.995	103.149	19.992	2.172	0.504
825.000	503.799	80.002	19.996	103.178	19.993	2.134	0.496
832.500	507.595	80.004	19.995	103.177	19.996	1.964	0.467
840.000	511.421	80.004	19.994	103.165	19.997	1.881	0.512
847.500	515.247	80.004	19.996	103.171	19.997	1.906	0.510
855.000	519.073	80.004	19.994	103.172	19.996	1.949	0.513
862.500	522.900	80.004	19.995	103.168	19.999	1.765	0.516
870.000	526.710	80.004	19.995	103.157	20.002	1.550	0.490
877.500	530.539	80.005	19.994	103.174	20.003	1.464	0.488
885.000	534.436	80.005	19.996	103.171	20.003	1.491	0.558
892.500	538.275	80.009	19.995	103.158	20.005	1.335	0.549
900.000	542.099	80.006	19.996	103.177	20.008	1.155	0.524
907.500	545.924	80.004	19.995	103.179	20.006	1.306	0.520
915.000	549.734	80.003	19.996	103.177	20.009	1.109	0.500
922.500	553.553	80.003	19.995	103.166	20.007	1.204	0.487
930.000	557.410	80.003	19.995	103.171	20.009	1.078	0.493
937.500	561.269	80.003	19.995	103.166	20.009	1.066	0.550
945.000	565.074	80.008	19.996	103.159	20.015	0.695	0.507
952.500	568.875	80.006	19.996	103.174	20.015	0.706	0.497
960.000	572.744	80.004	19.995	103.177	20.015	0.702	0.516
967.500	576.646	80.005	19.994	103.165	20.014	0.756	0.505
975.000	580.488	80.006	19.994	103.158	20.014	0.749	0.493
982.500	584.293	80.003	19.995	103.165	20.015	0.740	0.518
990.000	588.101	80.003	19.995	103.162	20.014	0.749	0.502
997.500	591.915	80.002	19.995	103.157	20.013	0.813	0.505
1005.000	595.743	80.004	19.996	103.144	20.011	0.967	0.516
1012.500	599.550	80.003	19.996	103.145	20.014	0.799	0.499
1020.000	603.301	80.004	19.996	103.149	20.012	0.880	0.494
1027.500	607.094	80.004	19.995	103.166	20.013	0.813	0.525
1035.000	610.892	80.005	19.994	103.147	20.014	0.770	0.511
1042.501	614.729	80.005	19.995	103.166	20.015	0.724	0.510
1050.000	618.567	80.007	19.995	103.158	20.018	0.523	0.508
1057.500	622.357	80.004	19.994	103.161	20.017	0.595	0.513
1065.000	626.186	80.006	19.994	103.143	20.016	0.652	0.531
1072.500	629.984	80.005	19.995	103.145	20.014	0.747	0.500
1080.001	633.754	80.002	19.994	103.156	20.017	0.605	0.534
1087.500	637.504	80.003	19.995	103.163	20.017	0.559	0.481
1095.000	641.267	80.003	19.996	103.173	20.014	0.790	0.525
1102.500	645.033	80.004	19.996	103.169	20.012	0.928	0.488
1110.000	648.755	80.007	19.996	103.169	20.013	0.826	0.522
1117.500	652.498	80.008	19.994	103.151	20.015	0.731	0.455
1125.000	656.356	80.003	19.995	103.149	20.014	0.799	0.556
1132.500	660.060	80.007	19.994	103.152	20.015	0.695	0.486
1140.000	663.800	80.005	19.995	103.172	20.012	0.890	0.526
1147.500	667.589	80.002	19.994	103.168	20.013	0.845	0.489
1155.000	671.342	80.006	19.993	103.179	20.013	0.831	0.516
1162.500	675.101	80.003	19.997	103.173	20.011	0.978	0.511
1170.000	678.874	80.003	19.996	103.156	20.014	0.749	0.487
1177.500	682.688	80.005	19.995	103.151	20.015	0.738	0.490
1185.000	686.531	80.005	19.996	103.145	20.015	0.704	0.536
1192.500	690.348	80.007	19.996	103.143	20.016	0.634	0.479
1200.000	694.161	80.001	19.996	103.146	20.017	0.557	0.507
1207.500	697.960	80.006	19.994	103.142	20.012	0.912	0.505
1215.000	701.755	80.007	19.996	103.139	20.018	0.523	0.505
1222.500	705.510	80.004	19.995	103.140	20.012	0.901	0.534
1230.000	709.286	80.003	19.995	103.144	20.014	0.767	0.489
1237.500	713.049	80.004	19.995	103.143	20.017	0.571	0.491
1245.000	716.903	80.004	19.994	103.142	20.012	0.901	0.527
1252.500	720.650	80.003	19.995	103.141	20.016	0.634	0.507
1260.000	724.381	80.005	19.996	103.134	20.018	0.518	0.511
1267.500	728.139	80.010	19.994	103.137	20.015	0.691	0.500
1275.000	731.837	80.004	19.995	103.142	20.015	0.722	0.462
1282.500	735.608	80.006	19.996	103.136	20.017	0.598	0.496
1290.000	739.406	80.005	19.994	103.139	20.012	0.926	0.508
1297.500	743.100	80.003	19.994	103.130	20.012	0.915	0.492
1298.500	743.636	80.003	19.994	103.141	20.011	0.960	0.512