Folder: fsri_materials_database/01_Data/Lightweight_Gypsum_Wallboard_Painted_Paper/MCC

Note: 01_Data/README.md
# Materials and Products Database
## 01_Data

Raw data generated from each apparatus are included here in plain-text format. The data is organized first by material, next by the short name of test apparatus used, and where applicable additional filtering by test settings.

### material.json

Each material directory contains a json file of the same name as the material. This file links the data stored in the repository as well as data and graphs produced by the accompanying scripts (__02_Scripts__) to the respective landing page for the material on the front-end website.

File: Lightweight_Gypsum_Wallboard_Painted_Paper_MCC_30K_min_211130_R1.txt
Sample ID:	C:\MCC\MCC Cal\Test\LW_GypBoard_Painted_Paper_MCC_30K_min_211130_R1.txt
Sample Weight (mg):	4.49
Heating Rate (C/s):	0.5
Combustor Temp (C):	900
N2 Flow Rate (cc/min):	80
O2 Flow Rate (cc/min):	20
Calibration File:	C:\MCC\MCC Cal\Coeff1 JN10440_30_210304.txt.txt
T Correction Coefficients:	0	1.024463	0
Time Shift (s):	14
*
Time (s)	Temperature (C)	N2 flow rate (cc/min)	O2 flow rate (cc/min)	Flow Rate (cc/min)	Oxygen (%)	HRR (W/g)	Heating rate (C/s)
0.000	110.761	80.012	19.996	103.071	20.200	-0.100	0.002
7.500	110.743	80.002	19.995	103.063	20.199	-0.083	-0.017
15.000	110.768	79.999	19.996	103.098	20.189	0.665	0.011
22.500	110.968	80.002	19.996	103.162	20.179	1.350	0.053
30.000	111.432	80.005	19.994	103.246	20.163	2.525	0.078
37.500	112.394	80.003	19.993	103.254	20.159	2.847	0.158
45.000	113.711	80.003	19.994	103.272	20.156	3.056	0.212
52.500	115.364	79.996	19.993	103.290	20.152	3.289	0.211
60.000	117.342	80.018	19.992	103.305	20.151	3.376	0.246
67.500	119.687	79.995	19.996	103.325	20.144	3.860	0.321
75.001	122.230	80.002	19.992	103.325	20.144	3.902	0.373
82.500	125.061	80.001	19.995	103.323	20.135	4.508	0.386
90.000	128.101	80.006	19.993	103.323	20.135	4.534	0.405
97.500	131.418	80.001	19.994	103.329	20.138	4.306	0.482
105.001	134.833	80.003	19.993	103.326	20.140	4.154	0.475
112.501	138.349	80.006	19.995	103.330	20.141	4.095	0.491
120.000	142.005	80.003	19.995	103.327	20.141	4.101	0.527
127.500	145.750	80.005	19.994	103.331	20.137	4.429	0.499
135.000	149.524	79.975	19.998	103.318	20.140	4.167	0.507
142.500	153.334	79.997	19.995	103.315	20.139	4.227	0.485
150.000	157.167	80.011	19.993	103.294	20.139	4.265	0.508
157.500	160.985	79.997	19.996	103.299	20.139	4.231	0.473
165.000	164.794	80.013	19.994	103.288	20.140	4.186	0.504
172.500	168.633	79.986	19.995	103.292	20.138	4.317	0.508
180.000	172.425	80.005	19.994	103.276	20.141	4.126	0.527
187.500	176.181	79.994	19.995	103.271	20.144	3.907	0.504
195.000	179.906	79.999	19.998	103.285	20.140	4.194	0.502
202.500	183.591	79.998	19.998	103.261	20.137	4.397	0.498
210.000	187.322	79.984	19.997	103.251	20.130	4.887	0.484
217.500	190.970	80.014	19.992	103.255	20.135	4.523	0.487
225.000	194.645	80.002	19.996	103.260	20.126	5.161	0.504
232.500	198.325	80.018	19.995	103.255	20.128	5.064	0.531
240.000	202.012	79.986	19.997	103.268	20.126	5.164	0.506
247.500	205.681	79.998	19.993	103.262	20.120	5.580	0.500
255.000	209.407	80.008	19.993	103.260	20.124	5.349	0.447
262.500	213.139	79.991	19.997	103.263	20.118	5.746	0.545
270.000	216.823	80.008	19.995	103.252	20.116	5.871	0.483
277.500	220.605	80.001	19.994	103.249	20.111	6.286	0.530
285.000	224.288	79.991	20.000	103.246	20.117	5.831	0.487
292.500	228.058	79.997	20.000	103.250	20.113	6.103	0.500
300.000	231.899	80.024	19.994	103.248	20.116	5.882	0.509
307.500	235.669	80.014	19.995	103.233	20.118	5.722	0.557
315.000	239.369	80.004	19.991	103.251	20.114	6.038	0.491
322.500	243.159	80.001	19.993	103.249	20.111	6.246	0.506
330.000	246.903	80.005	19.988	103.252	20.116	5.904	0.528
337.500	250.701	79.981	19.993	103.247	20.106	6.603	0.525
345.000	254.445	79.990	19.995	103.260	20.102	6.884	0.480
352.500	258.191	80.000	19.995	103.239	20.096	7.358	0.539
360.000	261.943	80.000	20.000	103.254	20.087	7.995	0.528
367.500	265.714	80.011	19.992	103.253	20.080	8.449	0.527
375.000	269.472	79.997	19.993	103.254	20.074	8.909	0.528
382.500	273.257	80.003	19.998	103.251	20.060	9.884	0.519
390.000	277.029	79.997	19.995	103.261	20.045	10.970	0.502
397.500	280.753	80.004	19.993	103.256	20.034	11.795	0.490
405.000	284.519	79.995	19.996	103.262	20.017	12.980	0.496
412.500	288.293	80.002	19.997	103.262	19.999	14.292	0.490
420.000	292.134	80.001	19.996	103.283	19.981	15.560	0.497
427.500	295.891	80.004	19.993	103.292	19.960	17.122	0.507
435.000	299.613	79.993	19.994	103.290	19.942	18.405	0.512
442.500	303.420	79.996	19.993	103.291	19.918	20.106	0.543
450.000	307.186	80.002	19.995	103.301	19.897	21.626	0.521
457.500	310.950	80.003	19.994	103.306	19.872	23.430	0.479
465.000	314.832	80.006	19.992	103.322	19.843	25.485	0.537
472.500	318.620	80.004	19.995	103.323	19.818	27.279	0.479
480.000	322.447	80.000	20.001	103.324	19.787	29.550	0.500
487.500	326.219	80.001	19.998	103.330	19.748	32.320	0.503
495.000	330.027	79.999	19.991	103.365	19.713	34.865	0.521
502.500	333.807	79.996	19.995	103.373	19.669	38.017	0.496
510.000	337.663	80.022	19.990	103.385	19.625	41.205	0.562
517.500	341.398	80.000	19.995	103.405	19.574	44.852	0.501
525.000	345.211	80.002	19.996	103.416	19.518	48.884	0.496
532.500	349.007	80.002	19.995	103.442	19.460	53.069	0.500
540.000	352.838	80.006	19.995	103.442	19.409	56.765	0.532
547.500	356.580	80.003	19.999	103.444	19.365	59.909	0.508
555.000	360.332	80.004	19.997	103.441	19.348	61.055	0.488
562.500	364.131	80.000	19.994	103.405	19.353	60.662	0.515
570.000	367.905	80.001	19.997	103.373	19.399	57.344	0.526
577.500	371.641	79.999	19.992	103.324	19.479	51.626	0.514
585.000	375.472	80.001	19.996	103.262	19.578	44.465	0.501
592.500	379.243	80.004	19.996	103.224	19.677	37.399	0.489
600.000	383.021	80.002	19.996	103.210	19.754	31.876	0.524
607.500	386.819	80.006	19.994	103.201	19.789	29.318	0.521
615.000	390.607	80.005	19.995	103.214	19.790	29.310	0.526
622.500	394.426	80.004	19.994	103.216	19.758	31.558	0.512
630.000	398.331	80.002	19.998	103.216	19.716	34.619	0.506
637.500	402.078	80.001	19.994	103.218	19.680	37.141	0.509
645.000	405.883	80.003	19.991	103.214	19.659	38.699	0.501
652.500	409.716	80.005	19.994	103.211	19.661	38.544	0.497
660.000	413.540	80.003	19.996	103.184	19.706	35.291	0.510
667.500	417.282	80.002	19.996	103.170	19.790	29.237	0.512
675.000	421.108	80.003	19.997	103.171	19.887	22.331	0.517
682.500	424.875	80.002	19.993	103.175	19.974	16.079	0.514
690.000	428.697	80.005	19.994	103.175	20.025	12.454	0.503
697.500	432.512	80.006	19.997	103.176	20.052	10.508	0.481
705.000	436.316	80.008	19.993	103.175	20.070	9.166	0.534
712.500	440.059	80.000	19.996	103.172	20.082	8.303	0.484
720.000	443.805	80.005	19.993	103.172	20.091	7.693	0.484
727.500	447.587	80.001	19.997	103.170	20.102	6.924	0.559
735.000	451.323	80.004	19.996	103.170	20.107	6.566	0.522
742.500	455.123	80.003	19.994	103.170	20.111	6.269	0.521
750.000	458.932	80.000	19.993	103.172	20.112	6.163	0.511
757.500	462.751	79.997	19.996	103.171	20.118	5.738	0.496
765.000	466.522	80.003	19.991	103.172	20.113	6.077	0.508
772.500	470.356	80.001	19.996	103.170	20.121	5.539	0.515
780.000	474.203	80.005	19.989	103.174	20.122	5.439	0.538
787.500	478.042	80.007	19.995	103.168	20.124	5.299	0.535
795.000	481.919	80.003	19.995	103.170	20.129	4.952	0.543
802.500	485.698	80.007	19.993	103.167	20.129	4.938	0.500
810.000	489.563	80.001	19.996	103.167	20.133	4.647	0.522
817.500	493.454	80.002	19.994	103.171	20.131	4.838	0.514
825.000	497.356	80.005	19.993	103.175	20.133	4.660	0.530
832.500	501.284	80.009	19.994	103.168	20.134	4.629	0.480
840.000	505.178	80.004	19.992	103.161	20.135	4.554	0.509
847.500	509.095	80.000	19.993	103.168	20.136	4.469	0.515
855.000	512.850	80.006	19.998	103.159	20.137	4.365	0.501
862.500	516.728	80.003	19.995	103.152	20.135	4.541	0.504
870.000	520.574	80.006	19.991	103.146	20.139	4.263	0.503
877.500	524.423	80.003	19.996	103.148	20.143	3.972	0.507
885.000	528.242	80.008	19.988	103.171	20.149	3.551	0.529
892.500	532.012	80.002	19.995	103.157	20.146	3.746	0.502
900.000	535.775	80.009	19.988	103.166	20.146	3.747	0.479
907.500	539.596	80.001	19.997	103.157	20.143	3.966	0.489
915.000	543.429	80.005	19.993	103.158	20.139	4.243	0.485
922.500	547.200	80.000	19.996	103.148	20.140	4.145	0.481
930.000	550.972	80.002	19.994	103.149	20.144	3.867	0.504
937.500	554.855	80.005	19.996	103.148	20.143	3.957	0.565
945.000	558.693	80.002	19.993	103.158	20.143	3.964	0.535
952.500	562.639	79.997	19.997	103.156	20.144	3.870	0.549
960.000	566.530	80.003	19.995	103.159	20.140	4.178	0.522
967.500	570.412	80.006	19.995	103.152	20.146	3.772	0.501
975.000	574.316	80.005	19.995	103.158	20.142	4.029	0.487
982.500	578.243	79.999	19.993	103.147	20.144	3.881	0.523
990.000	582.127	80.002	19.996	103.143	20.143	3.993	0.529
997.500	585.921	80.002	19.996	103.148	20.146	3.750	0.458
1005.000	589.793	79.999	19.994	103.143	20.143	3.956	0.540
1012.500	593.732	79.997	19.997	103.157	20.142	4.002	0.533
1020.000	597.684	80.003	19.996	103.161	20.140	4.170	0.524
1027.500	601.739	80.002	19.996	103.149	20.142	4.017	0.558
1035.000	605.717	79.999	19.999	103.168	20.143	3.952	0.576
1042.501	609.672	80.004	19.993	103.151	20.135	4.512	0.543
1050.001	613.975	80.003	19.996	103.154	20.142	4.031	0.557
1057.500	617.909	80.001	19.996	103.157	20.144	3.911	0.627
1065.000	621.736	79.999	19.994	103.160	20.143	3.942	0.445
1072.500	625.673	80.005	19.994	103.153	20.143	3.989	0.521
1080.000	629.603	80.002	19.998	103.153	20.141	4.129	0.510
1087.501	633.487	80.003	19.991	103.152	20.141	4.131	0.538
1095.001	637.379	80.001	19.999	103.144	20.139	4.251	0.488
1102.500	641.171	80.008	19.991	103.151	20.134	4.585	0.499
1110.001	644.952	80.007	19.988	103.158	20.137	4.424	0.473
1117.500	648.740	80.005	19.999	103.148	20.136	4.472	0.482
1125.000	652.589	80.002	19.995	103.149	20.127	5.136	0.504
1132.500	656.381	80.001	19.997	103.155	20.132	4.772	0.554
1140.000	660.122	80.003	19.994	103.173	20.134	4.590	0.689
1147.500	663.943	80.001	19.993	103.166	20.131	4.784	0.496
1155.000	667.852	80.001	19.995	103.165	20.127	5.093	0.539
1162.500	671.761	79.997	20.000	103.155	20.132	4.778	0.521
1170.000	675.675	80.006	19.994	103.153	20.132	4.732	0.546
1177.500	679.637	80.001	19.996	103.158	20.132	4.721	0.523
1185.001	683.548	80.006	19.993	103.156	20.131	4.848	0.518
1192.500	687.408	79.999	19.989	103.157	20.131	4.785	0.747
1200.001	691.354	80.008	19.995	103.141	20.134	4.602	0.537
1207.501	695.288	80.002	19.996	103.141	20.134	4.634	0.537
1215.000	699.154	80.002	19.989	103.135	20.135	4.561	0.505
1222.500	703.015	79.999	19.999	103.136	20.140	4.173	0.518
1230.000	706.850	80.001	19.997	103.132	20.137	4.354	0.517
1237.501	710.683	80.005	19.997	103.132	20.136	4.427	0.487
1245.000	714.511	80.004	19.992	103.134	20.134	4.571	0.515
1252.501	718.367	79.999	19.999	103.134	20.132	4.712	0.499
1260.000	722.081	79.998	20.001	103.135	20.133	4.671	0.493
1267.501	725.758	80.003	20.000	103.136	20.133	4.705	0.492
1275.001	729.502	80.003	19.991	103.136	20.135	4.508	0.531
1282.500	733.173	80.003	19.996	103.138	20.137	4.372	0.462
1290.000	736.900	80.004	19.994	103.130	20.134	4.604	0.475
1297.500	740.570	80.003	19.993	103.131	20.133	4.704	0.467
1303.500	743.570	80.005	19.996	103.133	20.135	4.563	0.498

File: Lightweight_Gypsum_Wallboard_Painted_Paper_MCC_30K_min_211202_O3.txt
Sample ID:	C:\MCC\MCC Cal\Test\LW_GypBoard_Painted_Paper_MCC_30K_min_211202_R3.txt
Sample Weight (mg):	4.37
Heating Rate (C/s):	0.5
Combustor Temp (C):	900
N2 Flow Rate (cc/min):	80
O2 Flow Rate (cc/min):	20
Calibration File:	C:\MCC\MCC Cal\Coeff1 JN10440_30_210304.txt.txt
T Correction Coefficients:	0	1.024463	0
Time Shift (s):	14
*
Time (s)	Temperature (C)	N2 flow rate (cc/min)	O2 flow rate (cc/min)	Flow Rate (cc/min)	Oxygen (%)	HRR (W/g)	Heating rate (C/s)
0.000	108.339	80.001	19.995	103.012	20.102	0.195	-0.037
8.000	108.318	80.002	19.995	103.001	20.098	0.483	-0.032
16.000	108.361	80.002	19.995	103.028	20.100	0.354	0.000
24.000	108.515	80.003	19.995	103.105	20.091	1.038	0.025
32.000	108.995	80.003	19.996	103.134	20.083	1.578	0.080
40.000	109.710	80.002	19.995	103.155	20.081	1.764	0.112
48.001	110.792	80.004	19.995	103.207	20.067	2.802	0.135
56.001	112.333	80.004	19.995	103.248	20.063	3.056	0.213
64.000	114.277	80.001	19.996	103.267	20.058	3.450	0.255
72.001	116.564	80.002	19.995	103.262	20.056	3.582	0.315
80.001	119.173	80.001	19.995	103.260	20.056	3.625	0.352
88.001	122.050	80.000	19.997	103.265	20.055	3.670	0.373
96.000	125.217	79.999	19.998	103.273	20.056	3.576	0.407
104.000	128.637	80.003	19.995	103.278	20.052	3.896	0.445
112.000	132.150	80.003	19.996	103.270	20.053	3.786	0.448
120.000	135.831	80.003	19.996	103.265	20.052	3.910	0.458
128.000	139.634	80.003	19.995	103.267	20.053	3.780	0.469
136.000	143.528	80.002	19.995	103.314	20.055	3.702	0.509
144.000	147.518	80.003	19.995	103.262	20.055	3.696	0.483
152.000	151.553	80.001	19.996	103.260	20.055	3.641	0.509
160.000	155.569	80.001	19.996	103.258	20.052	3.864	0.508
168.000	159.630	80.002	19.995	103.243	20.050	4.051	0.517
176.001	163.655	80.001	19.996	103.237	20.053	3.778	0.495
184.000	167.740	80.002	19.996	103.233	20.055	3.638	0.483
192.000	171.749	80.002	19.995	103.224	20.053	3.845	0.516
200.000	175.755	80.001	19.994	103.224	20.049	4.103	0.487
208.000	179.705	80.005	19.995	103.218	20.047	4.242	0.451
216.000	183.678	80.002	19.996	103.218	20.048	4.156	0.498
224.000	187.625	80.002	19.996	103.220	20.049	4.105	0.473
232.000	191.605	80.001	19.995	103.219	20.047	4.274	0.530
240.000	195.525	80.001	19.995	103.213	20.038	4.899	0.491
248.000	199.424	80.001	19.995	103.217	20.040	4.801	0.498
256.000	203.367	80.000	19.994	103.220	20.041	4.734	0.462
264.000	207.356	80.001	19.995	103.208	20.037	4.986	0.511
272.000	211.319	80.001	19.997	103.214	20.032	5.383	0.519
280.000	215.271	80.001	19.997	103.211	20.028	5.630	0.508
288.000	219.219	80.004	19.995	103.200	20.031	5.412	0.473
296.000	223.192	80.002	19.995	103.207	20.029	5.589	0.491
304.000	227.136	80.000	19.995	103.194	20.027	5.697	0.461
312.000	231.251	80.002	19.994	103.209	20.028	5.690	0.500
320.000	235.246	80.002	19.994	103.195	20.028	5.643	0.487
328.000	239.257	80.001	19.996	103.205	20.025	5.849	0.508
336.000	243.291	80.001	19.997	103.188	20.022	6.114	0.510
344.000	247.280	80.003	19.995	103.185	20.021	6.177	0.488
352.000	251.360	80.002	19.995	103.188	20.020	6.280	0.519
360.000	255.375	80.002	19.996	103.191	20.011	6.894	0.499
368.000	259.444	80.003	19.996	103.202	20.001	7.643	0.481
376.000	263.418	80.002	19.994	103.196	19.992	8.284	0.511
384.000	267.381	80.003	19.994	103.191	19.981	9.097	0.512
392.000	271.430	80.001	19.995	103.204	19.972	9.762	0.503
400.000	275.400	80.002	19.995	103.211	19.963	10.452	0.487
408.000	279.455	80.001	19.995	103.196	19.942	11.968	0.494
416.000	283.493	80.003	19.995	103.215	19.927	13.110	0.490
424.000	287.462	80.003	19.995	103.219	19.906	14.618	0.489
432.000	291.467	80.002	19.994	103.223	19.892	15.665	0.518
440.000	295.559	80.003	19.994	103.228	19.872	17.169	0.536
448.000	299.563	80.002	19.995	103.229	19.849	18.875	0.510
456.000	303.588	79.999	19.997	103.254	19.828	20.371	0.500
464.001	307.609	80.001	19.996	103.257	19.805	22.111	0.498
472.000	311.728	80.002	19.994	103.259	19.779	24.041	0.523
480.000	315.842	80.001	19.995	103.260	19.750	26.157	0.504
488.000	319.860	79.999	19.996	103.284	19.724	28.048	0.515
496.000	323.951	80.003	19.995	103.298	19.690	30.569	0.499
504.000	327.970	80.003	19.994	103.300	19.653	33.291	0.471
512.000	332.092	80.001	19.995	103.306	19.613	36.290	0.524
520.000	336.172	80.004	19.995	103.334	19.565	39.834	0.505
528.000	340.210	80.004	19.994	103.345	19.511	43.810	0.500
536.000	344.244	80.003	19.995	103.362	19.453	48.107	0.528
544.000	348.288	80.002	19.996	103.377	19.392	52.579	0.498
552.000	352.387	80.002	19.995	103.388	19.343	56.243	0.530
560.000	356.436	80.001	19.995	103.389	19.296	59.703	0.506
568.000	360.462	80.002	19.994	103.378	19.275	61.231	0.494
576.000	364.503	80.002	19.993	103.368	19.286	60.351	0.508
584.000	368.535	80.001	19.995	103.317	19.341	56.289	0.491
592.001	372.580	80.002	19.994	103.260	19.423	50.267	0.506
600.000	376.649	80.004	19.995	103.209	19.533	42.108	0.523
608.000	380.681	80.005	19.995	103.189	19.627	35.169	0.516
616.000	384.729	80.003	19.995	103.180	19.690	30.538	0.498
624.000	388.807	80.002	19.996	103.176	19.702	29.668	0.534
632.000	392.865	80.002	19.996	103.180	19.683	31.053	0.521
640.000	396.938	80.000	19.995	103.182	19.645	33.901	0.523
648.000	400.954	80.000	19.996	103.183	19.603	36.980	0.512
656.000	404.968	80.003	19.995	103.176	19.574	39.059	0.502
664.000	408.972	80.002	19.995	103.159	19.579	38.749	0.500
672.000	412.967	80.002	19.995	103.140	19.619	35.741	0.463
680.000	417.027	80.004	19.995	103.142	19.700	29.792	0.519
688.000	421.022	80.004	19.995	103.149	19.794	22.850	0.487
696.000	425.057	80.000	19.996	103.153	19.875	16.911	0.488
704.000	429.159	80.002	19.995	103.147	19.924	13.340	0.503
712.000	433.202	80.001	19.995	103.144	19.956	10.985	0.492
720.000	437.340	80.001	19.996	103.140	19.974	9.605	0.542
728.000	441.451	80.001	19.996	103.188	19.986	8.774	0.533
736.000	445.532	80.004	19.994	103.139	19.989	8.511	0.513
744.000	449.599	80.003	19.994	103.139	19.996	7.975	0.503
752.000	453.646	80.003	19.994	103.132	20.003	7.460	0.530
760.000	457.745	80.004	19.995	103.141	20.006	7.282	0.532
768.000	461.858	80.003	19.994	103.137	20.009	7.066	0.528
776.000	465.889	80.002	19.995	103.139	20.013	6.777	0.474
784.000	469.954	80.001	19.995	103.138	20.017	6.487	0.510
792.000	474.066	80.001	19.995	103.140	20.020	6.265	0.541
800.000	478.220	80.001	19.996	103.139	20.021	6.135	0.515
808.000	482.321	80.001	19.996	103.136	20.020	6.230	0.511
816.000	486.489	80.003	19.997	103.130	20.021	6.155	0.552
824.000	490.562	80.002	19.995	103.142	20.023	6.038	0.517
832.000	494.664	80.002	19.994	103.138	20.023	6.047	0.551
840.000	498.788	80.004	19.994	103.140	20.025	5.856	0.496
848.000	502.951	80.001	19.995	103.138	20.028	5.643	0.531
856.000	507.070	80.001	19.995	103.141	20.028	5.683	0.528
864.000	511.180	80.003	19.994	103.132	20.027	5.722	0.511
872.000	515.306	80.002	19.995	103.138	20.030	5.491	0.540
880.000	519.469	80.000	19.996	103.141	20.028	5.678	0.529
888.000	523.595	80.002	19.994	103.142	20.028	5.623	0.519
896.000	527.735	80.002	19.996	103.133	20.031	5.417	0.506
904.001	531.982	80.002	19.995	103.137	20.031	5.455	0.559
912.000	536.106	80.001	19.995	103.133	20.028	5.657	0.521
920.000	540.244	80.005	19.994	103.130	20.034	5.191	0.535
928.000	544.329	80.002	19.995	103.134	20.031	5.409	0.516
936.000	548.451	80.001	19.995	103.127	20.033	5.305	0.532
944.000	552.557	80.002	19.994	103.129	20.028	5.648	0.528
952.000	556.668	80.001	19.994	103.131	20.030	5.516	0.508
960.000	560.760	80.002	19.996	103.131	20.029	5.543	0.532
968.000	564.834	80.004	19.996	103.136	20.031	5.420	0.541
976.000	568.858	80.004	19.996	103.125	20.029	5.551	0.499
984.000	572.818	80.002	19.995	103.131	20.034	5.246	0.472
992.000	576.954	80.003	19.996	103.123	20.031	5.449	0.492
1000.000	580.907	80.003	19.995	103.134	20.033	5.305	0.487
1008.000	584.880	80.002	19.994	103.116	20.037	4.990	0.481
1016.000	588.899	80.001	19.994	103.123	20.032	5.353	0.495
1024.000	592.940	80.001	19.995	103.125	20.033	5.312	0.527
1032.000	597.026	80.003	19.994	103.114	20.034	5.181	0.498
1040.001	601.037	80.001	19.994	103.121	20.028	5.678	0.459
1048.000	605.245	80.003	19.994	103.139	20.033	5.301	0.538
1056.000	608.890	80.003	19.996	103.131	20.028	5.650	1.097
1064.000	613.501	80.002	19.994	103.124	20.025	5.854	0.591
1072.000	617.724	80.004	19.996	103.128	20.024	5.978	0.558
1080.000	621.863	80.004	19.994	103.126	20.024	5.941	0.497
1088.000	626.090	80.002	19.995	103.129	20.037	4.961	0.510
1096.000	630.218	80.003	19.993	103.133	20.037	5.000	0.511
1104.000	634.403	80.004	19.995	103.116	20.027	5.752	0.531
1112.000	638.520	80.002	19.995	103.126	20.025	5.850	0.539
1120.001	642.603	80.001	19.995	103.137	20.025	5.840	0.505
1128.000	646.606	80.003	19.994	103.139	20.022	6.098	0.482
1136.000	650.669	80.003	19.995	103.131	20.016	6.549	0.489
1144.000	654.684	80.002	19.995	103.133	20.023	6.015	0.501
1152.000	658.893	80.003	19.996	103.141	20.026	5.836	0.518
1160.000	662.817	80.002	19.995	103.133	20.020	6.271	0.536
1168.000	666.854	80.003	19.995	103.138	20.022	6.075	0.498
1176.000	670.824	80.002	19.996	103.135	20.023	6.019	0.431
1184.001	674.864	80.004	19.995	103.125	20.021	6.174	0.503
1192.000	678.959	80.001	19.995	103.119	20.017	6.469	0.558
1200.000	682.853	80.002	19.994	103.127	20.018	6.386	1.149
1208.000	686.942	80.003	19.995	103.116	20.022	6.097	0.490
1216.001	691.095	80.002	19.995	103.130	20.020	6.241	0.537
1224.001	695.291	80.003	19.995	103.125	20.021	6.129	0.510
1232.000	699.555	80.003	19.995	103.115	20.022	6.064	0.558
1240.001	703.688	80.003	19.995	103.115	20.023	6.007	0.499
1248.000	707.869	80.002	19.995	103.103	20.019	6.310	0.544
1256.001	712.026	80.002	19.995	103.126	20.021	6.194	0.519
1264.000	716.137	80.002	19.995	103.114	20.017	6.446	0.502
1272.000	720.270	80.001	19.995	103.109	20.018	6.389	0.490
1280.000	724.370	80.001	19.994	103.108	20.020	6.255	0.508
1288.001	728.417	80.004	19.994	103.114	20.020	6.210	0.522
1296.000	732.458	80.003	19.996	103.105	20.020	6.217	0.522
1304.001	736.440	80.003	19.995	103.108	20.015	6.594	0.485
1312.001	740.510	80.004	19.995	103.103	20.018	6.356	0.548
1318.001	743.552	80.004	19.994	103.105	20.019	6.282	0.537