Folder: fsri_materials_database/01_Data/High_Temperature_SCBA_Facepiece/Cone

Note: 01_Data/README.md
# Materials and Products Database
## 01_Data

Raw data generated from each apparatus are included here in plain-text format. The data is organized first by material, next by the short name of test apparatus used, and where applicable additional filtering by test settings.

### material.json

Each material directory contains a json file of the same name as the material. This file links the data stored in the repository as well as data and graphs produced by the accompanying scripts (__02_Scripts__) to the respective landing page for the material on the front-end website.

File: High_Temperature_SCBA_Facepiece_Cone_HF50-FrameScalar_201103_R1.csv
LABORATORY,FSRI
TEST IDENT,FacePiece_HF50_1
OPERATOR,Dow
MATERIAL,Phoenix Arizona SCBA Facepiece
ORIENTATION,Horizontal
HEAT FLUX,50
SURF AREA,0.01
C FACTOR,0.0377677
SPEC HOLDER DIFF,332.6
SPECIMEN MASS,41.39
SCAN TIME,0.25
O2 DELAY TIME,11
CO DELAY TIME,11
CO2 DELAY TIME,8
FLOW FACTOR,1
SCAN COUNT,804
TIME TO IGN,61.5
END OF TEST SCAN,324
END OF TEST TIME,81
TEST STATUS,1
,
POST TEST CMT,Sample removed 10 seconds after ignition.