Folder: fsri_materials_database/01_Data/High_Temperature_SCBA_Facepiece/MCC

Note: 01_Data/README.md
# Materials and Products Database
## 01_Data

Raw data generated from each apparatus are included here in plain-text format. The data is organized first by material, next by the short name of test apparatus used, and where applicable additional filtering by test settings.

### material.json

Each material directory contains a json file of the same name as the material. This file links the data stored in the repository as well as data and graphs produced by the accompanying scripts (__02_Scripts__) to the respective landing page for the material on the front-end website.

File: High_Temperature_SCBA_Facepiece_MCC_30K_min_220204_R1.txt
Sample ID:	C:\MCC\MCC Cal\Test\Scott_HT_SCBA_MCC_30K_min_220204_R1.txt
Sample Weight (mg):	4.7
Heating Rate (C/s):	0.5
Combustor Temp (C):	900
N2 Flow Rate (cc/min):	80
O2 Flow Rate (cc/min):	20
Calibration File:	C:\MCC\MCC Cal\Coeff1 JN10440_30_210304.txt.txt
T Correction Coefficients:	0	1.024463	0
Time Shift (s):	14
*
Time (s)	Temperature (C)	N2 flow rate (cc/min)	O2 flow rate (cc/min)	Flow Rate (cc/min)	Oxygen (%)	HRR (W/g)	Heating rate (C/s)
0.000	113.326	80.003	19.995	103.765	20.092	0.142	-0.014
8.000	113.314	80.004	19.995	103.784	20.095	-0.055	-0.033
16.000	113.301	80.006	19.996	103.806	20.093	0.046	-0.012
24.000	113.423	80.006	19.996	103.822	20.087	0.497	0.046
32.000	113.735	80.006	19.995	103.940	20.069	1.727	0.050
40.000	114.562	80.006	19.995	103.956	20.057	2.521	0.140
48.000	115.782	80.007	19.996	104.009	20.053	2.802	0.186
56.000	117.550	80.003	19.995	103.998	20.053	2.823	0.268
64.000	119.575	80.002	19.996	103.998	20.048	3.183	0.265
72.000	121.870	80.004	19.995	104.028	20.049	3.140	0.256
80.000	124.514	80.006	19.996	104.021	20.045	3.356	0.349
88.000	127.296	80.004	19.995	104.001	20.044	3.459	0.358
96.000	130.288	80.004	19.995	104.042	20.045	3.357	0.399
104.001	133.497	80.006	19.994	104.040	20.050	3.020	0.396
112.001	136.879	80.006	19.995	104.068	20.038	3.900	0.433
120.000	140.485	80.006	19.995	104.052	20.043	3.514	0.417
128.000	144.128	80.006	19.996	104.035	20.038	3.845	0.461
136.000	147.904	80.003	19.996	104.031	20.036	4.031	0.479
144.000	151.682	80.004	19.996	104.037	20.036	4.012	0.475
152.000	155.514	80.002	19.996	104.034	20.035	4.056	0.490
160.000	159.402	80.004	19.996	104.037	20.036	4.031	0.472
168.000	163.336	80.003	19.995	104.023	20.035	4.107	0.507
176.000	167.357	80.005	19.995	104.023	20.036	4.023	0.496
184.000	171.339	80.006	19.995	104.027	20.037	3.949	0.508
192.000	175.390	80.006	19.995	104.011	20.035	4.068	0.510
200.000	179.389	80.006	19.996	104.008	20.037	3.924	0.479
208.000	183.484	80.008	19.994	103.998	20.035	4.041	0.503
216.000	187.551	80.007	19.995	104.000	20.038	3.891	0.518
224.000	191.536	80.005	19.996	103.994	20.043	3.553	0.463
232.000	195.500	80.003	19.995	103.996	20.040	3.747	0.458
240.000	199.493	80.004	19.995	103.983	20.043	3.522	0.485
248.000	203.440	80.003	19.996	103.994	20.041	3.636	0.476
256.000	207.406	80.004	19.995	103.995	20.043	3.514	0.495
264.000	211.346	80.006	19.995	103.987	20.040	3.706	0.490
272.000	215.197	80.006	19.995	103.960	20.043	3.540	0.463
280.000	219.115	80.006	19.994	103.973	20.040	3.759	0.488
288.000	222.976	80.007	19.996	103.973	20.042	3.599	0.483
296.000	226.920	80.007	19.994	103.960	20.041	3.662	0.497
304.000	230.849	80.006	19.994	103.960	20.039	3.785	0.498
312.000	234.729	80.005	19.996	103.959	20.040	3.705	0.520
320.000	238.565	80.006	19.997	103.948	20.036	4.003	0.494
328.000	242.410	80.005	19.996	103.956	20.038	3.868	0.470
336.000	246.333	80.004	19.995	103.954	20.036	4.033	0.492
344.000	250.225	80.004	19.996	103.955	20.044	3.464	0.503
352.000	254.186	80.006	19.995	103.950	20.039	3.785	0.502
360.000	258.200	80.005	19.995	103.947	20.036	3.982	0.538
368.000	262.068	80.006	19.995	103.959	20.037	3.935	0.489
376.000	266.051	80.008	19.996	103.951	20.040	3.741	0.460
384.000	270.054	80.005	19.995	103.943	20.042	3.600	0.536
392.000	274.152	80.004	19.994	103.945	20.046	3.298	0.513
400.000	278.170	80.004	19.994	103.920	20.042	3.554	0.510
408.000	282.129	80.005	19.996	103.922	20.042	3.601	0.508
416.000	286.086	80.003	19.995	103.926	20.046	3.330	0.491
424.000	290.088	80.005	19.995	103.939	20.043	3.539	0.503
432.000	294.104	80.005	19.995	103.936	20.045	3.412	0.494
440.000	298.069	80.005	19.998	103.925	20.047	3.220	0.519
448.000	302.071	80.006	19.996	103.918	20.049	3.091	0.513
456.000	305.976	80.008	19.996	103.925	20.051	2.937	0.510
464.000	309.998	80.005	19.996	103.918	20.050	3.062	0.502
472.000	314.033	80.004	19.996	103.921	20.049	3.137	0.493
480.000	318.054	80.005	19.996	103.923	20.052	2.907	0.528
488.000	322.047	80.005	19.995	103.923	20.050	3.000	0.491
496.000	326.067	80.003	19.994	103.922	20.052	2.910	0.486
504.000	330.074	80.005	19.997	103.919	20.052	2.925	0.511
512.000	334.103	80.005	19.996	103.915	20.050	3.051	0.483
520.000	338.154	80.006	19.995	103.919	20.048	3.144	0.502
528.000	342.185	80.006	19.996	103.924	20.048	3.189	0.533
536.001	346.210	80.006	19.996	103.914	20.050	3.039	0.513
544.000	350.278	80.006	19.995	103.920	20.047	3.214	0.538
552.001	354.449	80.005	19.996	103.924	20.046	3.338	0.513
560.000	358.541	80.004	19.995	103.926	20.044	3.455	0.489
568.000	362.714	80.004	19.996	103.924	20.047	3.239	0.516
576.000	366.980	80.005	19.995	103.913	20.048	3.161	0.537
584.000	371.191	80.003	19.995	103.903	20.047	3.214	0.536
592.000	375.329	80.006	19.996	103.912	20.042	3.580	0.517
600.000	379.505	80.004	19.995	103.899	20.046	3.284	0.521
608.000	383.544	80.004	19.994	103.907	20.046	3.343	0.517
616.000	387.581	80.005	19.996	103.901	20.046	3.307	0.495
624.000	391.619	80.007	19.996	103.900	20.045	3.350	0.506
632.000	395.644	80.004	19.995	103.902	20.044	3.438	0.514
640.000	399.713	80.004	19.996	103.903	20.041	3.676	0.522
648.000	403.777	80.005	19.995	103.910	20.041	3.620	0.490
656.000	407.790	80.004	19.994	103.903	20.035	4.088	0.496
664.000	411.933	80.003	19.995	103.894	20.033	4.210	0.505
672.000	415.903	80.004	19.995	103.895	20.031	4.339	0.495
680.000	420.158	80.004	19.995	103.914	20.020	5.101	0.525
688.000	423.690	80.004	19.994	103.904	20.013	5.554	0.266
696.000	428.234	80.006	19.995	103.916	19.993	6.979	0.543
704.000	432.352	80.007	19.995	103.911	19.971	8.465	0.508
712.000	436.503	80.004	19.995	103.916	19.948	10.065	0.512
720.000	440.597	80.004	19.996	103.917	19.898	13.508	0.551
728.000	444.741	80.004	19.996	103.918	19.829	18.292	0.529
736.000	448.828	80.004	19.995	103.917	19.765	22.691	0.535
744.000	452.984	80.002	19.995	103.921	19.707	26.726	0.475
752.000	457.070	80.004	19.995	103.923	19.684	28.274	0.481
760.000	461.183	80.006	19.995	103.924	19.631	31.931	0.510
768.000	465.279	80.005	19.996	103.968	19.632	31.845	0.483
776.000	469.458	80.005	19.995	103.851	19.516	39.904	0.529
784.000	473.613	80.006	19.995	103.889	19.420	46.549	0.525
792.000	477.630	80.005	19.995	103.974	19.244	58.725	0.495
800.000	481.773	80.004	19.997	103.897	19.085	69.519	0.513
808.000	485.866	80.005	19.997	103.990	18.825	87.697	0.524
816.000	489.957	80.003	19.995	104.322	18.374	119.085	0.530
824.000	494.143	80.003	19.996	103.884	18.200	130.608	0.574
832.000	498.311	80.004	19.993	104.100	17.589	173.349	0.509
840.000	502.391	80.005	19.995	104.247	17.291	193.868	0.512
848.000	506.527	80.006	19.995	104.181	16.900	221.132	0.554
856.000	510.602	80.006	19.994	104.255	16.533	246.565	0.474
864.000	514.785	80.007	19.992	104.302	16.103	276.413	0.514
872.000	518.923	80.006	19.995	104.343	15.705	304.014	0.495
880.000	522.985	80.003	19.995	104.307	15.639	308.407	0.495
888.000	527.098	80.003	19.996	104.312	16.134	273.921	0.553
896.000	531.116	80.005	19.996	104.233	17.176	201.718	0.525
904.000	535.154	80.005	19.996	104.180	18.303	123.661	0.493
912.000	539.191	80.003	19.996	104.071	19.083	69.783	0.506
920.000	543.136	80.004	19.997	103.956	19.504	40.666	0.477
928.000	547.094	80.005	19.995	103.900	19.714	26.233	0.519
936.000	551.116	80.005	19.994	103.886	19.820	18.914	0.514
944.000	555.183	80.006	19.995	103.885	19.875	15.083	0.489
952.000	559.254	80.007	19.995	103.878	19.905	13.030	0.485
960.000	563.398	80.005	19.994	103.858	19.926	11.597	0.497
968.000	567.516	80.004	19.995	103.882	19.936	10.904	0.533
976.000	571.694	80.006	19.996	103.878	19.949	9.997	0.527
984.000	575.958	80.004	19.997	103.873	19.950	9.894	0.554
992.000	580.099	80.004	19.997	103.879	19.962	9.075	0.486
1000.001	584.171	80.005	19.995	103.880	19.965	8.879	0.487
1008.000	588.238	80.005	19.998	103.879	19.973	8.369	0.478
1016.000	592.241	80.004	19.996	103.874	19.979	7.955	0.505
1024.000	596.236	80.007	19.995	103.865	19.977	8.060	0.490
1032.001	600.373	80.008	19.994	103.875	19.990	7.187	0.539
1040.001	604.515	80.004	19.995	103.881	19.988	7.287	0.514
1048.000	608.809	80.005	19.995	103.876	19.994	6.860	0.491
1056.000	613.054	80.004	19.995	103.866	19.995	6.828	0.521
1064.000	617.449	80.003	19.996	103.871	20.000	6.494	0.529
1072.000	621.648	80.004	19.996	103.881	19.999	6.516	0.534
1080.000	625.894	80.003	19.997	103.868	20.007	6.025	0.520
1088.000	630.032	80.005	19.995	103.874	20.008	5.907	0.484
1096.000	634.192	80.005	19.995	103.872	20.009	5.842	0.508
1104.000	638.319	80.005	19.997	103.853	20.008	5.932	0.504
1112.000	642.374	80.006	19.995	103.861	20.012	5.649	0.491
1120.000	646.465	80.003	19.993	103.877	20.020	5.133	0.504
1128.000	650.591	80.005	19.995	103.877	20.018	5.251	0.554
1136.000	654.676	80.006	19.994	103.861	20.016	5.386	0.480
1144.000	658.762	80.006	19.997	103.863	20.018	5.215	0.533
1152.000	662.847	80.005	19.994	103.872	20.027	4.592	0.480
1160.000	666.949	80.004	19.997	103.853	20.023	4.922	0.510
1168.001	671.059	80.006	19.995	103.851	20.022	4.941	0.484
1176.001	675.218	80.005	19.998	103.861	20.024	4.818	0.579
1184.001	679.324	80.005	19.994	103.864	20.025	4.774	0.554
1192.001	683.313	80.005	19.995	103.863	20.025	4.741	0.498
1200.000	687.373	80.005	19.995	103.851	20.021	5.013	0.507
1208.001	691.342	80.003	19.996	103.859	20.022	4.958	0.483
1216.000	695.324	80.003	19.995	103.852	20.019	5.191	0.502
1224.000	699.334	80.005	19.994	103.863	20.021	5.003	0.502
1232.000	703.351	80.004	19.997	103.853	20.018	5.258	0.521
1240.000	707.399	80.005	19.996	103.846	20.022	4.931	0.526
1248.000	711.437	80.005	19.995	103.844	20.024	4.845	0.517
1256.001	715.459	80.003	19.997	103.847	20.023	4.925	0.517
1264.000	719.561	80.004	19.996	103.848	20.022	4.991	0.518
1272.000	723.487	80.006	19.996	103.852	20.023	4.866	0.508
1280.000	727.456	80.007	19.997	103.869	20.019	5.185	0.492
1288.000	731.486	80.002	19.997	103.843	20.018	5.221	0.506
1296.000	735.501	80.003	19.996	103.844	20.019	5.196	0.504
1304.001	739.657	80.004	19.994	103.848	20.019	5.163	0.552
1311.000	743.306	80.004	19.995	103.851	20.017	5.288	0.525

File: High_Temperature_SCBA_Facepiece_MCC_30K_min_220204_R3.txt
Sample ID:	C:\MCC\MCC Cal\Test\Scott_HT_SCBA_MCC_30K_min_220204_R3.txt
Sample Weight (mg):	4.38
Heating Rate (C/s):	0.5
Combustor Temp (C):	900
N2 Flow Rate (cc/min):	80
O2 Flow Rate (cc/min):	20
Calibration File:	C:\MCC\MCC Cal\Coeff1 JN10440_30_210304.txt.txt
T Correction Coefficients:	0	1.024463	0
Time Shift (s):	14
*
Time (s)	Temperature (C)	N2 flow rate (cc/min)	O2 flow rate (cc/min)	Flow Rate (cc/min)	Oxygen (%)	HRR (W/g)	Heating rate (C/s)
0.000	112.764	80.004	19.995	103.780	20.052	-0.242	-0.007
8.000	112.760	79.990	19.995	103.772	20.053	-0.305	0.013
16.001	112.729	79.994	19.995	103.808	20.046	0.257	-0.017
24.000	112.861	80.007	19.993	103.862	20.033	1.202	0.006
32.000	113.233	80.009	19.995	103.958	20.020	2.142	0.061
40.000	114.042	79.998	19.996	103.965	20.016	2.474	0.120
48.000	115.336	80.002	19.995	103.963	20.008	3.046	0.185
56.000	116.961	80.010	19.993	103.985	20.009	2.946	0.183
64.001	118.866	79.995	19.997	103.986	20.010	2.879	0.239
72.000	121.065	80.006	19.994	103.997	20.005	3.233	0.275
80.000	123.423	80.013	19.994	104.020	20.003	3.387	0.291
88.000	126.029	80.004	19.996	104.008	20.002	3.526	0.317
96.001	128.916	80.005	19.994	104.010	20.000	3.654	0.383
104.000	131.974	80.001	19.997	104.027	19.997	3.873	0.390
112.001	135.190	80.008	19.995	104.051	19.999	3.711	0.387
120.001	138.607	80.011	19.994	104.012	19.999	3.688	0.467
128.000	142.007	80.006	19.994	104.016	20.001	3.585	0.418
136.000	145.636	80.002	19.993	104.002	19.998	3.789	0.429
144.000	149.246	80.007	19.994	104.010	19.999	3.685	0.469
152.000	152.924	80.008	19.991	104.028	20.002	3.475	0.482
160.000	156.567	79.999	19.993	104.018	20.002	3.456	0.428
168.000	160.306	80.004	19.993	104.017	20.001	3.552	0.431
176.000	164.150	80.006	19.995	104.032	20.002	3.484	0.469
184.000	167.996	80.002	19.998	104.028	20.001	3.531	0.487
192.000	171.895	80.006	19.996	104.000	20.001	3.556	0.491
200.000	175.823	80.005	19.994	103.997	19.999	3.733	0.500
208.000	179.737	80.004	19.991	104.012	20.004	3.366	0.470
216.000	183.678	80.003	19.998	104.007	20.004	3.317	0.480
224.000	187.666	80.003	19.989	104.001	20.005	3.239	0.502
232.000	191.581	80.006	19.996	103.988	20.004	3.362	0.460
240.000	195.519	80.004	19.995	103.991	20.003	3.447	0.479
248.000	199.450	80.003	19.994	103.986	20.004	3.323	0.490
256.000	203.325	80.005	19.996	103.991	20.010	2.931	0.487
264.000	207.292	80.002	19.994	103.985	20.009	2.994	0.524
272.000	211.288	80.004	19.994	103.964	20.010	2.874	0.503
280.000	215.254	80.001	19.997	103.966	20.010	2.918	0.489
288.000	219.211	80.003	19.994	103.958	20.009	2.965	0.465
296.000	223.176	80.003	19.994	103.976	20.010	2.877	0.487
304.000	227.138	80.004	19.996	103.948	20.005	3.248	0.512
312.000	231.160	80.005	19.995	103.949	20.007	3.130	0.510
320.000	235.044	80.005	19.992	103.949	20.007	3.083	0.485
328.000	238.984	80.004	19.994	103.956	20.011	2.857	0.499
336.000	242.915	80.002	19.995	103.957	20.009	2.973	0.502
344.000	246.914	80.001	19.995	103.949	20.009	2.963	0.472
352.000	250.791	80.003	19.993	103.942	20.012	2.744	0.468
360.000	254.686	80.003	19.994	103.943	20.012	2.747	0.474
368.000	258.556	80.003	19.994	103.943	20.015	2.502	0.479
376.000	262.413	80.004	19.996	103.954	20.010	2.920	0.485
384.000	266.432	80.004	19.994	103.956	20.013	2.698	0.481
392.001	270.504	80.004	19.995	103.954	20.009	2.939	0.533
400.000	274.631	80.006	19.994	103.953	20.009	2.937	0.514
408.000	278.753	80.003	19.995	103.945	20.014	2.572	0.514
416.000	282.905	80.004	19.994	103.937	20.013	2.688	0.529
424.000	287.075	80.004	19.995	103.951	20.015	2.547	0.520
432.000	291.251	80.003	19.994	103.943	20.016	2.436	0.527
440.000	295.297	80.003	19.995	103.928	20.014	2.575	0.513
448.000	299.358	80.004	19.994	103.930	20.015	2.539	0.494
456.000	303.361	80.006	19.994	103.922	20.019	2.257	0.507
464.000	307.265	80.004	19.994	103.922	20.015	2.536	0.519
472.000	311.247	80.005	19.995	103.917	20.016	2.426	0.482
480.000	315.168	80.007	19.994	103.922	20.014	2.614	0.494
488.000	319.045	80.004	19.995	103.918	20.016	2.461	0.495
496.000	322.887	80.004	19.994	103.914	20.014	2.593	0.450
504.000	326.809	80.003	19.995	103.917	20.011	2.787	0.458
512.000	330.762	80.005	19.994	103.915	20.012	2.730	0.514
520.000	334.760	80.002	19.994	103.926	20.007	3.134	0.512
528.000	338.741	80.003	19.995	103.916	20.014	2.626	0.498
536.000	342.870	80.006	19.994	103.922	20.014	2.565	0.553
544.000	346.973	80.004	19.993	103.925	20.011	2.845	0.531
552.001	351.134	80.004	19.995	103.876	20.011	2.803	0.501
560.000	355.404	80.006	19.994	103.911	20.017	2.349	0.536
568.001	359.555	80.006	19.994	103.913	20.010	2.889	0.528
576.000	363.710	80.004	19.995	103.916	20.010	2.907	0.510
584.000	367.881	80.001	19.996	103.915	20.010	2.899	0.518
592.000	372.065	80.003	19.995	103.920	20.010	2.925	0.532
600.001	376.277	80.002	19.994	103.909	20.014	2.615	0.536
608.000	380.407	80.001	19.994	103.912	20.007	3.136	0.489
616.000	384.474	80.004	19.995	103.851	20.010	2.907	0.488
624.000	388.510	80.004	19.994	103.900	20.006	3.208	0.490
632.000	392.599	80.005	19.994	103.911	20.007	3.084	0.503
640.000	396.659	80.006	19.994	103.915	20.003	3.378	0.528
648.000	400.758	80.005	19.994	103.912	20.003	3.439	0.493
656.000	404.943	80.003	19.994	103.912	20.001	3.553	0.526
664.000	409.112	80.004	19.995	103.931	20.001	3.577	0.531
672.000	413.323	80.003	19.994	103.910	20.001	3.571	0.549
680.000	417.406	80.004	19.996	103.892	19.995	4.004	0.519
688.000	421.519	80.001	19.995	103.901	19.988	4.504	0.477
696.000	425.562	80.004	19.994	103.906	19.984	4.844	0.469
704.000	429.564	80.005	19.994	103.912	19.965	6.200	0.505
712.000	433.558	80.004	19.994	103.899	19.950	7.326	0.534
720.000	437.540	80.006	19.994	103.914	19.924	9.232	0.518
728.000	441.593	80.008	19.995	103.906	19.882	12.391	0.509
736.000	445.592	80.004	19.995	103.915	19.830	16.250	0.494
744.000	449.642	80.004	19.994	103.915	19.777	20.111	0.517
752.000	453.700	80.004	19.995	103.916	19.731	23.542	0.497
760.000	457.836	80.005	19.996	103.919	19.712	24.929	0.498
768.000	462.016	80.004	19.995	103.887	19.730	23.608	0.537
776.000	466.044	80.004	19.996	103.925	19.656	29.069	0.548
784.000	470.120	80.005	19.995	103.958	19.502	40.463	0.503
792.000	474.275	80.006	19.994	103.926	19.461	43.589	0.422
800.000	478.356	80.005	19.993	104.084	19.467	43.076	0.724
808.000	482.646	80.006	19.996	103.910	19.073	72.218	0.456
816.000	486.608	80.004	19.994	103.947	18.878	86.858	0.500
824.000	490.672	80.005	19.994	104.052	18.821	90.968	0.477
832.000	494.732	80.005	19.993	103.967	18.655	103.302	0.525
840.000	498.767	80.006	19.995	104.086	18.243	133.934	0.544
848.000	502.752	80.003	19.994	104.055	17.920	157.989	0.518
856.000	506.843	80.005	19.994	104.099	17.623	180.009	0.502
864.000	510.938	80.006	19.994	104.146	17.301	204.095	0.497
872.000	515.071	80.004	19.995	104.247	16.934	231.383	0.534
880.000	519.188	80.005	19.995	104.260	16.494	264.174	0.505
888.000	523.248	80.008	19.993	104.289	16.155	289.223	0.507
896.000	527.292	80.007	19.993	104.312	16.059	296.339	0.467
904.000	531.437	80.004	19.994	104.288	16.390	271.557	0.533
912.000	535.530	80.006	19.994	104.224	17.187	212.294	0.508
920.001	539.535	80.005	19.993	104.184	18.190	137.798	0.508
928.000	543.580	80.004	19.994	104.106	18.991	78.368	0.497
936.000	547.622	80.004	19.996	103.994	19.442	44.958	0.518
944.000	551.660	80.006	19.994	103.929	19.662	28.659	0.491
952.000	555.749	80.005	19.994	103.901	19.766	20.936	0.484
960.000	559.839	80.006	19.995	103.890	19.821	16.880	0.511
968.000	563.931	80.006	19.995	103.891	19.855	14.328	0.531
976.000	567.980	80.005	19.995	103.878	19.876	12.816	0.496
984.000	572.190	80.003	19.994	103.890	19.886	12.101	0.547
992.000	576.290	80.003	19.994	103.885	19.895	11.412	0.507
1000.000	580.485	80.005	19.995	103.886	19.899	11.072	0.522
1008.000	584.526	80.004	19.993	103.876	19.905	10.634	0.476
1016.000	588.672	80.004	19.994	103.887	19.907	10.515	0.531
1024.001	592.750	80.006	19.995	103.895	19.913	10.106	0.538
1032.000	596.773	80.006	19.995	103.886	19.911	10.186	0.515
1040.000	600.857	80.005	19.993	103.878	19.916	9.827	0.528
1048.000	604.903	80.006	19.994	103.891	19.924	9.257	0.520
1056.000	608.920	80.007	19.995	103.876	19.930	8.801	0.501
1064.001	613.016	80.004	19.995	103.878	19.933	8.564	0.476
1072.000	617.155	80.006	19.995	103.831	19.938	8.208	0.543
1080.001	621.165	80.004	19.995	103.858	19.944	7.776	0.506
1088.000	625.197	80.004	19.995	103.871	19.949	7.410	0.492
1096.000	629.328	80.004	19.996	103.874	19.952	7.199	0.558
1104.001	633.383	80.006	19.994	103.879	19.957	6.810	0.497
1112.000	637.513	80.007	19.993	103.878	19.959	6.630	0.512
1120.000	641.610	80.004	19.994	103.876	19.959	6.673	0.516
1128.000	645.713	80.005	19.995	103.872	19.963	6.379	0.506
1136.000	649.742	80.007	19.994	103.869	19.967	6.051	0.535
1144.000	653.762	80.003	19.995	103.866	19.967	6.066	0.482
1152.000	657.847	80.002	19.995	103.879	19.971	5.783	0.503
1160.000	661.834	80.004	19.995	103.869	19.972	5.704	0.522
1168.000	665.924	80.002	19.995	103.848	19.967	6.071	0.508
1176.000	670.001	80.003	19.994	103.880	19.971	5.793	0.508
1184.000	674.028	80.004	19.994	103.854	19.968	5.970	0.504
1192.000	677.969	80.006	19.995	103.870	19.971	5.798	0.401
1200.000	682.102	80.004	19.995	103.876	19.971	5.810	0.495
1208.001	686.163	80.004	19.994	103.874	19.973	5.653	0.481
1216.000	690.190	80.007	19.995	103.872	19.970	5.835	0.516
1224.000	694.089	80.005	19.994	103.867	19.968	5.999	0.464
1232.000	697.872	80.005	19.995	103.874	19.967	6.085	0.473
1240.000	701.666	80.002	19.995	103.878	19.965	6.193	0.469
1248.000	705.557	80.003	19.995	103.875	19.967	6.046	0.507
1256.000	709.473	80.003	19.995	103.877	19.963	6.335	0.500
1264.001	713.466	80.005	19.995	103.879	19.967	6.078	0.514
1272.000	717.566	80.006	19.994	103.874	19.971	5.797	0.509
1280.000	721.699	80.004	19.993	103.859	19.966	6.157	0.484
1288.001	725.792	80.005	19.994	103.872	19.967	6.048	0.526
1296.000	729.871	80.008	19.994	103.873	19.970	5.822	0.513
1304.000	734.078	80.005	19.994	103.874	19.972	5.716	0.568
1312.001	738.143	80.004	19.997	103.877	19.969	5.936	0.509
1320.000	742.259	80.004	19.994	103.870	19.968	6.004	0.518
1322.501	743.555	80.004	19.994	103.879	19.967	6.107	0.518