Folder: fsri_materials_database/01_Data/Plastic_Laminate_Countertop/Cone

Note: 01_Data/README.md
# Materials and Products Database
## 01_Data

Raw data generated from each apparatus are included here in plain-text format. The data is organized first by material, next by the short name of test apparatus used, and where applicable additional filtering by test settings.

### material.json

Each material directory contains a json file of the same name as the material. This file links the data stored in the repository as well as data and graphs produced by the accompanying scripts (__02_Scripts__) to the respective landing page for the material on the front-end website.

File: Plastic_Laminate_Countertop_Cone_HF25Scalar_220504_R1.csv
LABORATORY,FSRI
TEST IDENT,Countertop_HF25_1
OPERATOR,Dow
MATERIAL,laminate - particle board countertop
ORIENTATION,Horizontal
HEAT FLUX,25
SURF AREA,0.01
C FACTOR,0.0422903
SPEC HOLDER DIFF,-566
SPECIMEN MASS,265.6
SCAN TIME,0.25
O2 DELAY TIME,11
CO DELAY TIME,11
CO2 DELAY TIME,8
FLOW FACTOR,1
SCAN COUNT,24698
TIME TO IGN,313.75
END OF TEST SCAN,24218
END OF TEST TIME,6054.5
TEST STATUS,1
PRE TEST CMT,Dimensions: 99.95 x 99.30 x 39.76 mm; with frame and grid
POST TEST CMT,"The laminate bubbled, then popped at about 1 minute causing a spike in mass data. There were intermittant candle-sized flames prior to ignition. Marked ignition began as a candle sized flame near center of sample, and remained steady for about 2.5 minutes until extinguishing at 7:42. The spark ignitor was reinserted, and reignition occurred at 9:30, and flames spread across the entire sample surface and sustained until end of test. "

File: Plastic_Laminate_Countertop_Cone_HF25Scan_220509_R3.csv
Names,Time,Stack TC,Smoke TC,Exh Press,Smoke Comp,Smoke Meas,CO Meter,CO2 Meter,O2 Meter,Sample Mass,Ext Coeff,Start Test,Flame Verif
Chan Gain,,500,500,1,1,1,1,1,1,1,1,1.0,1.0
Offset,,0,0,0.136848,0,0,0,0,0,0,0,0.0,0.0
Gain,,1,1,25.011,13.1423,14.7137,1,1,1,1.0009,1.01396,1.0,1.0
Units,sec,C,C,Pa,%,%,%,%,%,g,/m,,
Baseline,,24.772,25.3013,146.622,99.2701,102.9,0.000548772,0.041724,20.9914,-443.153,-0.319379,,
159,39.5,22.7723,23.5624,145.121,99.4764,103.306,0.000653177,0.0422416,20.9951,757.44,-0.336007,0.0,0.0
318,79.25,23.381,23.6194,146.638,99.3846,101.939,0.000790034,0.0441069,20.993,757.2,-0.225718,0.0,0.0
477,119,24.0987,24.3857,143.818,99.2779,101.712,0.00322431,0.0493027,20.9899,756.749,-0.215464,0.0,0.0
636,158.75,23.7632,24.867,144.952,99.308,101.703,0.00257571,0.0485952,20.9928,756.239,-0.211985,0.0,0.0
795,198.5,23.8908,24.7137,148.115,99.2021,102.145,0.00253728,0.0461581,20.9924,755.728,-0.26003,0.0,0.0
954,238.25,24.1245,25.2507,145.236,99.2286,102.409,0.00249208,0.0464935,20.9939,755.288,-0.280578,0.0,0.0
1113,278,25.2332,25.4365,145.476,99.2562,102.635,0.00238572,0.0485285,20.9897,754.787,-0.297732,0.0,0.0
1272,317.75,24.967,25.5482,142.107,99.1732,102.702,0.00251048,0.0482128,20.9897,754.287,-0.31097,0.0,0.0
1431,357.5,24.6172,25.2197,147.772,99.5903,102.927,0.00224796,0.0471185,20.9927,753.817,-0.293101,0.0,0.0
1590,397.25,24.7053,25.6234,145.762,99.9252,103,0.00197447,0.0464317,20.9887,753.376,-0.269525,0.0,0.0
1749,437,24.819,25.8779,147.612,100.023,103.279,0.0023022,0.046846,20.9918,752.956,-0.284978,0.0,0.0
1908,476.75,25.4122,25.7322,149.809,99.8835,102.907,0.00228837,0.0488565,20.9901,752.495,-0.265248,0.0,0.0
2067,516.5,24.9809,25.9714,146.865,99.5811,102.127,0.00173574,0.048649,20.993,751.975,-0.224509,0.0,0.0
2226,556.25,25.3614,25.7436,147.71,99.8807,102.43,0.00201143,0.0495179,20.992,751.404,-0.224186,0.0,0.0
2385,596,25.4546,25.9066,143.354,100.016,101.674,0.00285998,0.0516655,20.9917,750.644,-0.146215,0.0,0.0
2544,635.75,25.61,26.0148,144.553,100.07,101.631,0.00350983,0.0556687,20.9887,749.803,-0.137744,0.0,0.0
2703,675.5,26.6058,26.8074,141.468,100.315,103.646,0.00256756,0.0856936,20.9563,748.682,-0.290516,0.0,1.0
2862,715.25,29.4517,29.6268,137.287,100.36,102.019,0.00444454,0.158838,20.8679,746.8,-0.14586,0.0,0.0
3021,755,34.6383,34.2237,138.798,100.358,100.807,0.00628835,0.197333,20.8295,743.858,-0.0396711,0.0,0.0
3180,794.75,36.1238,36.3728,140.851,100.178,102.432,0.00593561,0.190978,20.835,740.715,-0.197877,0.0,0.0
3339,834.5,35.5715,37.3992,140.67,100.114,103.196,0.00636402,0.165515,20.8631,737.852,-0.269655,0.0,0.0
3498,874.25,34.3915,36.3952,140.255,99.934,104.279,0.00433161,0.149309,20.8769,735.46,-0.378568,0.0,0.0
3657,914,33.6898,35.4262,146.794,99.9729,104.185,0.00335529,0.134642,20.8944,733.498,-0.367059,0.0,0.0
3816,953.75,32.7905,33.9965,141.26,100.155,104.697,0.00242275,0.125239,20.9029,731.797,-0.394467,0.0,0.0
3975,993.5,32.5453,33.7095,144.111,100.366,105.252,0.00260344,0.119876,20.907,730.195,-0.422741,0.0,0.0
4134,1033.25,31.6014,33.1532,137.789,100.125,103.775,0.00227644,0.120239,20.9065,728.664,-0.318514,0.0,0.0
4293,1073,31.6442,33.1191,141.707,99.2338,103.777,0.0021148,0.121562,20.9038,727.193,-0.398152,0.0,0.0
4452,1112.75,31.7928,32.8223,142.148,98.5804,103.367,0.00210446,0.123725,20.902,725.701,-0.421739,0.0,0.0
4611,1152.5,32.1718,33.1439,139.533,99.5779,104.941,0.00196876,0.124463,20.9002,724.15,-0.466596,0.0,0.0
4770,1192.25,31.9713,33.2804,142.712,99.559,104.056,0.00209595,0.125045,20.9005,722.689,-0.392951,0.0,0.0
4929,1232,32.0388,33.1553,137.879,99.3625,104.129,0.00266051,0.127967,20.896,721.267,-0.41678,0.0,0.0
5088,1271.75,31.8189,33.3445,143.441,99.9433,104.752,0.00237059,0.125832,20.8957,719.736,-0.417985,0.0,0.0
5247,1311.5,31.9642,32.7754,138.903,99.7969,103.895,0.00237529,0.126256,20.8974,718.255,-0.357901,0.0,0.0
5406,1351.25,31.7726,33.5372,138.041,100.398,106.119,0.00234468,0.126091,20.8976,716.743,-0.492979,0.0,0.0
5565,1391,32.3348,32.6899,137.774,99.8073,104.764,0.00245957,0.125095,20.8971,715.262,-0.431122,0.0,0.0
5724,1430.75,31.081,33.2649,139.281,98.6113,102.882,0.00249146,0.124074,20.9007,713.761,-0.377088,0.0,0.0
5883,1470.5,31.6844,32.8988,141.094,99.6072,104.937,0.00292413,0.122865,20.9005,712.309,-0.46364,0.0,0.0
6042,1510.25,31.7069,32.9996,142.961,99.8125,104.441,0.00339962,0.120836,20.9048,710.818,-0.403205,0.0,0.0
6201,1550,31.1073,32.3691,142.438,99.3605,104.737,0.00325092,0.119215,20.9065,709.347,-0.468739,0.0,0.0
6360,1589.75,31.1966,32.2627,143.55,99.7243,105.082,0.00354705,0.11615,20.9069,707.965,-0.465435,0.0,0.0
6519,1629.5,30.8469,31.4225,141.013,99.7792,104.785,0.00421135,0.114176,20.9112,706.584,-0.435377,0.0,0.0
6678,1669.25,30.537,31.4832,140.445,99.7544,104.229,0.00399564,0.112094,20.9131,705.253,-0.390245,0.0,0.0
6837,1709,29.8793,31.117,140.931,100.016,104.68,0.00473555,0.106254,20.9234,703.882,-0.405388,0.0,0.0
6996,1748.75,29.8811,30.721,142.261,100.051,104.598,0.00505055,0.108015,20.918,702.621,-0.395336,0.0,0.0
7155,1788.5,29.9572,31.2852,139.188,100.273,104.402,0.00489469,0.10447,20.9204,701.349,-0.358905,0.0,0.0
7314,1828.25,29.8864,30.3027,141.055,100.266,105.238,0.00500064,0.101511,20.9254,700.078,-0.430416,0.0,0.0
7473,1868,29.4643,29.7887,143.733,99.5562,104.115,0.00540597,0.0974943,20.9296,698.847,-0.398267,0.0,0.0
7632,1907.75,29.1209,29.4997,144.352,99.3344,104.031,0.00563653,0.0980624,20.9281,697.636,-0.410851,0.0,0.0
7791,1947.5,27.9972,29.1994,148.157,99.7098,104.546,0.00560919,0.0940718,20.9343,696.415,-0.421303,0.0,0.0
7950,1987.25,28.086,29.113,148.14,100.22,104.778,0.00560814,0.0885438,20.9395,695.184,-0.395563,0.0,0.0
8109,2027,28.3842,28.7119,141.049,100.315,104.348,0.0055149,0.0884485,20.9406,694.053,-0.350578,0.0,0.0
8268,2066.75,27.6972,28.5252,139.642,100.426,104.612,0.0055349,0.0885966,20.9419,692.892,-0.363248,0.0,0.0
8427,2106.5,27.6779,28.3322,142.797,100.37,105.06,0.00543614,0.0866309,20.9443,691.731,-0.406204,0.0,0.0
8586,2146.25,27.3995,28.0722,143.902,100.276,104.436,0.00610043,0.0834528,20.9457,690.57,-0.361524,0.0,0.0
8745,2186,27.2518,28.5077,145.376,100.231,104.893,0.00642226,0.0836233,20.9476,689.449,-0.404357,0.0,0.0
8904,2225.75,27.3324,27.6635,145.949,100.066,103.957,0.00587602,0.0861016,20.944,688.318,-0.33929,0.0,0.0
9063,2265.5,27.1618,27.4945,141.494,99.9336,103.946,0.00589844,0.0869085,20.9422,687.157,-0.350101,0.0,0.0
9222,2305.25,27.479,27.8524,140.639,99.9216,104.863,0.0058594,0.0876491,20.9466,686.076,-0.429324,0.0,0.0
9381,2345,27.3547,28.1709,145.822,99.9846,104.019,0.00670938,0.0923047,20.9349,684.945,-0.35183,0.0,0.0
9540,2384.75,27.7883,28.3338,142.183,100.17,104.222,0.00650524,0.0911093,20.9373,683.794,-0.352702,0.0,0.0
9699,2424.5,28.0267,28.7201,143.99,100.328,104.992,0.0057176,0.0935643,20.9366,682.593,-0.404195,0.0,0.0
9858,2464.25,28.3155,28.7188,143.919,100.424,104.972,0.00525696,0.0941215,20.9363,681.432,-0.39395,0.0,0.0
10017,2504,27.5945,28.4785,142.065,100.417,105.336,0.00593296,0.0969701,20.9312,680.24,-0.42543,0.0,0.0
10176,2543.75,28.4115,28.9567,141.442,100.414,105.535,0.00519889,0.098989,20.9281,679.019,-0.442385,0.0,0.0
10335,2583.5,28.6188,29.4794,141.611,100.405,104.427,0.00506532,0.0980794,20.931,677.808,-0.349424,0.0,0.0
10494,2623.25,27.8759,29.2805,142.345,100.355,104.933,0.00520688,0.0981298,20.9313,676.597,-0.396716,0.0,0.0
10653,2663,27.8855,29.2796,144.974,100.159,105.104,0.00549599,0.0980132,20.9298,675.346,-0.428642,0.0,0.0
10812,2702.75,28.1304,29.6374,141.475,100.037,104.03,0.00497918,0.101805,20.9256,674.045,-0.348152,0.0,0.0
10971,2742.5,28.5345,29.6697,141.13,99.8988,104.092,0.00565374,0.102855,20.9278,672.764,-0.365724,0.0,0.0
11130,2782.25,28.7641,29.4193,144.044,99.9016,104.613,0.00505629,0.10565,20.9232,671.413,-0.409909,0.0,0.0
11289,2822,28.6687,29.3194,141.916,100.04,104.901,0.00483837,0.106673,20.925,670.031,-0.421997,0.0,0.0
11448,2861.75,29.1037,30.1208,143.021,100.21,105.451,0.00542101,0.109468,20.921,668.6,-0.453443,0.0,0.0
11607,2901.5,29.7013,30.3394,146.228,100.354,105.42,0.00503856,0.111972,20.9166,667.169,-0.438096,0.0,0.0
11766,2941.25,30.0061,30.5504,144.531,100.412,105.576,0.00528789,0.115912,20.9166,665.657,-0.446044,0.0,0.0
11925,2981,30.2877,30.9646,140.542,100.38,105.416,0.00494364,0.120574,20.9083,664.066,-0.435445,0.0,0.0
12084,3020.75,30.5276,31.465,138.343,100.403,105.279,0.00391187,0.124823,20.9057,662.465,-0.421783,0.0,0.0
12243,3060.5,30.7232,32.0068,139.549,100.317,105.935,0.00412234,0.131361,20.8991,660.743,-0.484715,0.0,0.0
12402,3100.25,32.2119,33.0712,138.011,100.222,105.913,0.0031304,0.142409,20.884,658.951,-0.491299,0.0,0.0
12561,3140,33.4035,34.4286,141.511,99.9028,105.92,0.00278934,0.147628,20.881,657.02,-0.520207,0.0,0.0
12720,3179.75,34.0198,34.7229,138.578,99.5089,105.359,0.00303032,0.152635,20.8717,655.118,-0.508121,0.0,0.0
12879,3219.5,34.0638,35.1665,141.062,99.2233,105.527,0.00247697,0.158933,20.8685,653.086,-0.547811,0.0,0.0
13038,3259.25,34.8433,36.1461,140.088,99.0782,105.212,0.00202684,0.160789,20.8667,650.964,-0.534265,0.0,0.0
13197,3299,35.6648,36.7853,139.017,98.9105,105.581,0.00204389,0.166487,20.8587,648.762,-0.580438,0.0,0.0
13356,3338.75,35.94,37.3644,141.293,98.7677,104.661,0.00184545,0.170016,20.8557,646.52,-0.515516,0.0,0.0
13515,3378.5,36.2885,37.242,139.684,98.6863,105.419,0.00174632,0.174329,20.8508,644.138,-0.587032,0.0,0.0
13674,3418.25,36.2833,37.8749,138.258,98.6346,105.062,0.00193576,0.174368,20.8478,641.766,-0.561526,0.0,0.0
13833,3458,36.8896,38.2709,139.455,98.7757,104.848,0.00183076,0.174238,20.8499,639.484,-0.530616,0.0,0.0
13992,3497.75,36.8539,38.6782,138.631,99.038,105.128,0.0019204,0.173124,20.8533,637.172,-0.530727,0.0,0.0
14151,3537.5,36.468,38.1584,140.995,99.0621,104.871,0.00153016,0.169452,20.8532,634.97,-0.506809,0.0,0.0
14310,3577.25,36.1029,37.7968,137.339,99.0641,105.426,0.00233989,0.166083,20.8531,632.838,-0.553576,0.0,0.0
14469,3617,36.3958,37.6594,137.879,99.0581,106.293,0.00249441,0.16145,20.8591,630.826,-0.627005,0.0,0.0
14628,3656.75,34.5609,35.6779,141.092,99.0681,104.964,0.0021503,0.15673,20.8677,628.874,-0.514148,0.0,0.0
14787,3696.5,33.7345,35.1085,142.893,99.0537,104.852,0.00249792,0.151504,20.8713,627.023,-0.505966,0.0,0.0
14946,3736.25,33.1026,34.6634,140.029,98.9081,105.833,0.00231319,0.145295,20.8781,625.361,-0.601888,0.0,0.0
15025,3756,32.4119,34.5003,143.456,98.7774,105.056,,,,624.56,-0.548128,0.0,0.0

File: Plastic_Laminate_Countertop_Cone_HF75Scan_220504_R3.csv
Names,Time,Stack TC,Smoke TC,Exh Press,Smoke Comp,Smoke Meas,CO Meter,CO2 Meter,O2 Meter,Sample Mass,Ext Coeff,Start Test,Flame Verif
Chan Gain,,500,500,1,1,1,1,1,1,1,1,1.0,1.0
Offset,,0,0,0.136848,0,0,0,0,0,0,0,0.0,0.0
Gain,,1,1,25.011,13.1423,14.7137,1,1,1,1.0009,1.01396,1.0,1.0
Units,sec,C,C,Pa,%,%,%,%,%,g,/m,,
Baseline,,50.8497,52.6568,126.689,100.609,109.701,0.000521627,0.0412967,20.9894,-447.073,-0.769405,,
157,39,66.0135,64.9796,113.742,99.5041,104.117,0.00455454,0.439,20.5336,784.544,-0.403041,0.0,0.0
314,78.25,65.3842,68.6016,125.187,99.529,107.53,0.00218664,0.197905,20.8022,781.161,-0.687744,0.0,0.0
471,117.5,67.856,70.5102,114.912,100.307,103.124,0.00445255,0.324086,20.6554,777.868,-0.246335,0.0,0.0
628,156.75,75.8837,78.7787,113.463,100.609,103.995,0.0058383,0.418338,20.5562,772.693,-0.294378,0.0,0.0
785,196,79.0351,83.0941,113.597,100.088,106.802,0.00434205,0.384071,20.5944,767.309,-0.57751,0.0,0.0
942,235.25,79.0704,84.1047,114.248,100.21,108.716,0.00321843,0.341935,20.6423,762.604,-0.72468,0.0,0.0
1099,274.5,78.2236,83.0319,116.744,100.275,109.859,0.00265454,0.325855,20.6594,758.23,-0.81192,0.0,0.0
1256,313.75,77.5418,83.3077,115.456,100.447,110.241,0.00256771,0.313972,20.6708,754.187,-0.827591,0.0,0.0
1413,353,78.1867,82.5888,115.214,100.974,110.802,0.00194532,0.300685,20.6867,750.293,-0.82611,0.0,0.0
1570,392.25,77.7368,81.831,113.042,100.498,110.433,0.00201848,0.285503,20.7016,746.56,-0.838467,0.0,0.0
1727,431.5,76.9592,81.3482,114.747,99.5586,109.812,0.00157829,0.269836,20.7235,743.177,-0.871868,0.0,0.0
1884,470.75,75.4954,79.7309,118.173,100.006,110.389,0.00184479,0.257163,20.7339,739.924,-0.878582,0.0,0.0
2041,510,74.3565,79.1262,118.965,100.682,111.43,0.00153976,0.241524,20.7524,736.831,-0.902079,0.0,0.0
2198,549.25,72.7303,77.0331,119.508,100.529,111.082,0.00151232,0.226501,20.7736,733.789,-0.887803,0.0,0.0
2355,588.5,72.1589,75.4897,119.458,99.9794,111.261,0.0010183,0.218549,20.782,730.926,-0.950921,0.0,0.0
2512,627.75,71.3219,74.398,121.759,100.464,111.513,0.00140601,0.21015,20.7917,728.164,-0.928038,0.0,0.0
2669,667,70.2409,73.3265,119.878,100.16,111.374,0.00156184,0.207774,20.7991,725.491,-0.94392,0.0,0.0
2826,706.25,69.7889,73.2461,122.467,100.375,110.829,0.00131834,0.205748,20.7995,722.699,-0.881176,0.0,0.0
2983,745.5,69.5823,72.8209,119.572,100.677,111.472,0.0013355,0.205653,20.7988,719.956,-0.905945,0.0,0.0
3140,784.75,69.8778,72.8507,116.924,100.947,111.757,0.00147126,0.206339,20.8013,717.224,-0.904851,0.0,0.0
3297,824,69.8208,72.7966,121.838,101.025,112.355,0.00145757,0.205698,20.8027,714.551,-0.945366,0.0,0.0
3454,863.25,69.7843,72.4652,118.69,101.021,112.353,0.00144023,0.20592,20.801,711.839,-0.945576,0.0,0.0
3611,902.5,69.3895,73.1568,118.58,100.917,112.468,0.000925491,0.208327,20.7994,708.986,-0.963929,0.0,0.0
3768,941.75,69.4957,72.444,118.658,100.487,111.431,0.0013024,0.207834,20.8007,706.294,-0.919458,0.0,0.0
3925,981,69.259,72.3982,119.142,99.7504,110.614,0.00124039,0.207544,20.7996,703.481,-0.919477,0.0,0.0
4082,1020.25,69.9082,72.5406,119.703,99.701,109.665,0.00118413,0.207184,20.8025,700.849,-0.847257,0.0,0.0
4239,1059.5,69.2071,72.9334,121.545,100.054,111.075,0.0014053,0.2062,20.8018,698.117,-0.929414,0.0,0.0
4396,1098.75,69.5855,72.5131,118.861,100.506,111.242,0.00120242,0.205511,20.8026,695.324,-0.902759,0.0,0.0
4553,1138,69.892,72.335,118.056,100.757,111.843,0.00109469,0.206739,20.8018,692.682,-0.92844,0.0,0.0
4710,1177.25,69.7488,72.3578,118.91,100.829,112.095,0.00161172,0.205006,20.8059,690.019,-0.94208,0.0,0.0
4867,1216.5,69.2408,72.4504,116.432,100.794,111.444,0.0011476,0.20684,20.8023,687.307,-0.893381,0.0,0.0
5024,1255.75,69.8573,72.5616,117.182,100.7,111.681,0.00136304,0.207493,20.8,684.594,-0.920568,0.0,0.0
5181,1295,69.9707,72.7204,119.409,100.512,111.477,0.00172819,0.210189,20.8005,681.872,-0.920948,0.0,0.0
5338,1334.25,70.0022,72.9809,121.241,100.317,110.833,0.000982292,0.213845,20.7957,679.149,-0.88662,0.0,0.0
5495,1373.5,70.5982,73.6101,114.874,100.103,111.159,0.00138715,0.218213,20.7874,676.447,-0.931751,0.0,0.0
5652,1412.75,70.5937,73.5455,119.335,100.203,111.95,0.00127676,0.223556,20.7803,673.625,-0.985964,0.0,0.0
5809,1452,71.1439,74.3257,117.405,100.407,110.787,0.00135218,0.228994,20.7751,670.732,-0.875016,0.0,0.0
5966,1491.25,71.6726,74.8906,118.645,100.543,111.825,0.00152923,0.233666,20.7714,667.839,-0.945938,0.0,0.0
6123,1530.5,72.2376,75.1268,118.942,100.204,110.954,0.0014075,0.242029,20.7617,664.877,-0.906412,0.0,0.0
6280,1569.75,72.6072,75.461,115.208,100.591,111.408,0.00162616,0.248551,20.7542,661.934,-0.908441,0.0,0.0
6437,1609,73.3181,76.7538,115.168,101.017,111.78,0.00140131,0.255527,20.7457,658.791,-0.900492,0.0,0.0
6594,1648.25,74.1106,77.4036,114.98,101.107,112.14,0.00170797,0.262144,20.7359,655.608,-0.921228,0.0,0.0
6751,1687.5,74.9268,77.9893,118.828,100.998,111.219,0.00139073,0.272053,20.7288,652.406,-0.857342,0.0,0.0
6908,1726.75,76.58,79.5848,112.829,100.672,110.906,0.00176776,0.278704,20.7204,649.133,-0.86111,0.0,0.0
7065,1766,76.2161,79.7137,121.251,99.9625,109.845,0.00138295,0.279977,20.7178,645.81,-0.838478,0.0,0.0
7222,1805.25,76.2412,80.8752,114.568,99.7828,109.864,0.00211201,0.283679,20.7119,642.427,-0.856043,0.0,0.0
7379,1844.5,76.6095,80.9825,113.303,100.402,110.797,0.0017123,0.284506,20.7107,639.064,-0.876307,0.0,0.0
7536,1883.75,77.1985,80.825,114.002,100.923,111.262,0.00152969,0.286711,20.7076,635.761,-0.867467,0.0,0.0
7693,1923,77.74,80.8693,114.297,100.924,111.312,0.00169564,0.287725,20.7034,632.488,-0.87138,0.0,0.0
7850,1962.25,78.0318,81.2432,111.139,100.787,110.758,0.00195839,0.291083,20.7,629.115,-0.839056,0.0,0.0
8007,2001.5,78.1519,81.6111,116.173,100.673,111.143,0.00160589,0.288244,20.7031,625.762,-0.879961,0.0,0.0
8164,2040.75,77.9845,82.1843,115.329,100.58,110.633,0.00156363,0.287651,20.7018,622.529,-0.847344,0.0,0.0
8321,2080,77.8627,81.7691,112.285,100.507,110.985,0.00168644,0.28962,20.6984,619.326,-0.881985,0.0,0.0
8478,2119.25,78.0908,82.2715,111.953,100.424,111.057,0.00193272,0.289443,20.7,616.123,-0.8952,0.0,0.0
8635,2158.5,78.1171,82.0499,112.442,100.177,110.102,0.00183592,0.28953,20.7014,612.8,-0.840287,0.0,0.0
8792,2197.75,78.3763,82.2916,117.03,100.493,110.166,0.00172219,0.290616,20.6966,609.627,-0.817348,0.0,0.0
8949,2237,78.6563,82.4279,116.267,100.617,110.706,0.00168688,0.288456,20.7007,606.434,-0.849893,0.0,0.0
9106,2276.25,78.9169,82.1708,112.262,100.579,109.783,0.00182005,0.285454,20.7015,603.331,-0.778815,0.0,0.0
9263,2315.5,78.1735,81.9979,114.8,100.405,110.97,0.00167065,0.279119,20.71,600.259,-0.88989,0.0,0.0
9420,2354.75,77.552,81.2709,115.857,100.679,111.248,0.00133956,0.273171,20.7164,597.216,-0.887871,0.0,0.0
9577,2394,77.0619,81.0125,114.348,101.002,111.168,0.00175839,0.262384,20.7277,594.273,-0.852965,0.0,0.0
9734,2433.25,76.6266,79.8558,113.707,101.172,111.324,0.00173234,0.254861,20.7368,591.581,-0.850532,0.0,0.0
9891,2472.5,75.6198,78.8273,115.859,101.208,110.824,0.00151836,0.2443,20.7476,589.029,-0.807339,0.0,0.0
10048,2511.75,74.3978,77.8214,117.003,101.22,112.193,0.00166725,0.220007,20.7704,586.757,-0.915415,0.0,0.0
10205,2551,70.3826,74.0537,121.638,101.208,113.084,0.00131731,0.145225,20.8515,585.185,-0.98689,0.0,0.0
10362,2590.25,66.8154,69.5812,121.296,101.197,113.21,0.00141693,0.115193,20.8909,584.505,-0.997795,0.0,0.0
10519,2629.5,63.8567,67.2358,123.427,101.226,113.035,0.00166188,0.107173,20.8998,584.014,-0.981418,0.0,0.0
10676,2668.75,62.7172,65.0271,122.406,101.118,113.244,0.00186819,0.10396,20.9023,583.444,-1.00739,0.0,0.0
10833,2708,61.9468,63.9955,123.365,100.855,113.154,0.00209849,0.102164,20.9052,582.963,-1.0234,0.0,0.0
10990,2747.25,61.6595,63.7821,118.462,100.479,112.258,0.00247581,0.100818,20.9072,582.523,-0.985908,0.0,0.0
11147,2786.5,60.6169,63.0204,118.836,100.404,112.423,0.0026333,0.0983857,20.9112,582.142,-1.0057,0.0,0.0
11304,2825.75,60.8533,62.5761,121.98,100.052,112.027,0.00261824,0.0981949,20.9149,581.722,-1.00549,0.0,0.0
11461,2865,60.9065,61.8454,123.776,99.845,112.137,0.00256538,0.0961835,20.9149,581.282,-1.03268,0.0,0.0
11618,2904.25,60.1314,61.775,123.834,99.9457,111.916,0.00270941,0.0961471,20.9127,580.921,-1.00614,0.0,0.0
11775,2943.5,59.5359,61.671,121.585,100.194,111.587,0.00300717,0.0965013,20.9121,580.531,-0.957875,0.0,0.0
11932,2982.75,59.4586,61.5112,125.762,100.287,111.959,0.00319911,0.0948473,20.9186,580.241,-0.979169,0.0,0.0
12089,3022,59.7979,61.7353,120.283,100.294,111.726,0.00283918,0.0940469,20.9177,579.9,-0.960031,0.0,0.0
12246,3061.25,59.2857,61.0659,124.793,100.352,112.252,0.00306869,0.0936408,20.9158,579.52,-0.996707,0.0,0.0
12403,3100.5,59.1213,60.9002,120.947,100.412,112.517,0.00288162,0.0927097,20.919,579.13,-1.01238,0.0,0.0
12560,3139.75,58.6887,61.0252,124.87,100.541,112.643,0.00304703,0.0932722,20.9204,578.849,-1.01092,0.0,0.0
12717,3179,58.6459,60.9205,122.093,100.801,112.952,0.003015,0.0923349,20.9195,578.569,-1.01228,0.0,0.0
12874,3218.25,58.4011,60.8337,120.319,101.076,113.03,0.00268712,0.0921104,20.9197,578.189,-0.994254,0.0,0.0
13031,3257.5,57.7268,60.992,121.889,101.106,113.362,0.00279829,0.0922116,20.9231,577.899,-1.01768,0.0,0.0
13188,3296.75,58.2737,60.3526,125.014,101.126,113.173,0.00249093,0.0917464,20.923,577.518,-1.00104,0.0,0.0
13345,3336,58.6986,59.64,121.282,101.073,112.664,0.00297744,0.0914638,20.9236,577.348,-0.965693,0.0,0.0
13502,3375.25,58.4478,59.9057,123.721,100.913,112.522,0.00303404,0.0914268,20.9211,577.038,-0.968507,0.0,0.0
13659,3414.5,58.05,60.6924,123.108,100.686,112.408,0.00262557,0.0904334,20.9232,576.658,-0.979483,0.0,0.0
13816,3453.75,58.8859,59.8891,124.92,100.425,111.652,0.00273952,0.0911849,20.9236,576.367,-0.942579,0.0,0.0
13973,3493,58.3385,60.3687,128.287,100.382,112.553,0.00259594,0.0904816,20.9229,576.097,-1.01788,0.0,0.0
14130,3532.25,58.1901,60.2752,122.887,100.425,112.173,0.00236677,0.0900902,20.9235,575.877,-0.984047,0.0,0.0
14287,3571.5,57.8979,60.3417,124.301,100.439,112.516,0.00228251,0.0893148,20.9231,575.587,-1.00996,0.0,0.0
14444,3610.75,56.5208,58.3672,121.82,100.523,111.52,0.00235218,0.0892706,20.9229,575.246,-0.923393,0.0,0.0
14601,3650,55.8982,58.5303,130.319,100.635,112.809,0.0020617,0.0884139,20.9251,574.946,-1.01569,0.0,0.0
14758,3689.25,56.0894,58.6901,122.302,100.609,112.487,0.00258573,0.0894819,20.925,574.736,-0.992574,0.0,0.0
14900,3724.75,55.9276,58.5299,123.374,100.636,112.663,,,,574.425,-1.00411,0.0,0.0