Folder: fsri_materials_database/01_Data/Romex_Cable/STA/N2/10K_min

Note: 01_Data/README.md
# Materials and Products Database
## 01_Data

Raw data generated from each apparatus are included here in plain-text format. The data is organized first by material, next by the short name of test apparatus used, and where applicable additional filtering by test settings.

### material.json

Each material directory contains a json file of the same name as the material. This file links the data stored in the repository as well as data and graphs produced by the accompanying scripts (__02_Scripts__) to the respective landing page for the material on the front-end website.

File: Romex_Cable_STA_N2_10KData_220715_R1.csv
##Temp./Â°C,Time/min,Mass loss(subtr.2)/mg,DSC(subtr.2)/(mW/mg),Sensit./(uV/mW)
49.422,10.01,-0.0168,0.004868321,1.07026
52.222,11.26061,-0.0136207,0.10798,1.06948
55.022,11.67793,-0.0167084,0.16402,1.0687
57.822,12.0269,-0.01795625,0.1968,1.06792
60.622,12.35207,-0.01633034,0.21896,1.06712
63.422,12.6639,-0.0177772,0.23045,1.06632
66.222,12.96905,-0.01912244,0.24243,1.0655
69.022,13.2697,-0.01911437,0.24815,1.06468
71.822,13.5671,-0.02042638,0.25342,1.06386
74.622,13.86159,-0.02180445,0.25651,1.06302
77.422,14.1538,-0.02167748,0.26255,1.06217
80.222,14.4423,-0.02288512,0.26707,1.06132
83.022,14.72845,-0.02305005,0.26994,1.06046
85.822,15.0131,-0.02437166,0.27265,1.05959
88.622,15.2954,-0.02466151,0.27529,1.05871
91.422,15.5762,-0.02470498,0.27647,1.05783
94.222,15.85411,-0.02430561,0.28078,1.05693
97.022,16.13101,-0.02558143,0.28375,1.05603
99.822,16.4066,-0.02651943,0.28373,1.05512
102.622,16.68178,-0.02689017,0.28519,1.0542
105.422,16.95591,-0.02822003,0.28884,1.05327
108.222,17.22999,-0.02821996,0.29035,1.05234
111.022,17.50316,-0.02967874,0.29288,1.05139
113.822,17.77713,-0.03085678,0.29507,1.05044
116.622,18.05082,-0.029862,0.29999,1.04948
119.422,18.32324,-0.03224261,0.30303,1.04851
122.222,18.59526,-0.03085014,0.30464,1.04753
125.022,18.86751,-0.0334801,0.30696,1.04654
127.822,19.13926,-0.03347653,0.30896,1.04554
130.622,19.4106,-0.03479652,0.31368,1.04454
133.422,19.6814,-0.03578999,0.31611,1.04353
136.222,19.9516,-0.03644996,0.31853,1.04251
139.022,20.22154,-0.03711025,0.32157,1.04148
141.822,20.49205,-0.03706081,0.32646,1.04044
144.622,20.76191,-0.03875552,0.32699,1.03939
147.422,21.0309,-0.04006976,0.33038,1.03833
150.222,21.29969,-0.04072706,0.33297,1.03727
153.022,21.56784,-0.04204398,0.33568,1.0362
155.822,21.8357,-0.0437,0.33702,1.03511
158.622,22.10453,-0.04770092,0.33993,1.03402
161.422,22.3723,-0.04765002,0.34358,1.03292
164.222,22.64085,-0.04897,0.34441,1.03181
167.022,22.90936,-0.05029,0.34515,1.0307
169.822,23.17661,-0.05224964,0.34774,1.02957
172.622,23.44464,-0.05422979,0.34976,1.02843
175.422,23.71164,-0.05687,0.35411,1.02729
178.222,23.9788,-0.05783124,0.35636,1.02614
181.022,24.24546,-0.06082438,0.3582,1.02498
183.822,24.51243,-0.06280032,0.35729,1.02381
186.622,24.77884,-0.06444001,0.3569,1.02263
189.422,25.04587,-0.06743882,0.35472,1.02144
192.222,25.31354,-0.07005301,0.35212,1.02024
195.022,25.58053,-0.07004935,0.35224,1.01903
197.822,25.84628,-0.07269612,0.35328,1.01782
200.622,26.11281,-0.07533247,0.35396,1.01659
203.422,26.37895,-0.07795116,0.35604,1.01536
206.222,26.6456,-0.08058017,0.35892,1.01411
209.022,26.9116,-0.08453878,0.36243,1.01286
211.822,27.1787,-0.08510921,0.36935,1.0116
214.622,27.44517,-0.08968747,0.38174,1.01033
217.422,27.7129,-0.09276648,0.39629,1.00905
220.222,27.9794,-0.09602242,0.41083,1.00776
223.022,28.2463,-0.10031,0.39538,1.00646
225.822,28.51215,-0.10298,0.37097,1.00515
228.622,28.7781,-0.10826,0.36539,1.00384
231.422,29.04457,-0.11291,0.36468,1.00251
234.222,29.3104,-0.11747,0.36653,1.00118
237.022,29.5761,-0.12404,0.36925,0.99983
239.822,29.842,-0.12988,0.3697,0.99848
242.622,30.1082,-0.13806,0.37115,0.99712
245.422,30.37401,-0.14551,0.37096,0.99574
248.222,30.6408,-0.15509,0.373,0.99436
251.022,30.9074,-0.16545,0.37703,0.99297
253.822,31.17397,-0.17834,0.37855,0.99157
256.622,31.4416,-0.19086,0.38526,0.99016
259.422,31.70843,-0.20626,0.39094,0.98874
262.222,31.97506,-0.2219,0.40048,0.98731
265.022,32.24194,-0.2421,0.40778,0.98587
267.822,32.5084,-0.26323,0.41728,0.98442
270.622,32.77518,-0.28803,0.43035,0.98297
273.422,33.04248,-0.3155,0.4451,0.9815
276.222,33.30922,-0.34942,0.46792,0.98002
279.022,33.57631,-0.38865,0.50103,0.97854
281.822,33.84355,-0.43601,0.52963,0.97704
284.622,34.11143,-0.49189,0.55376,0.97554
287.422,34.37944,-0.55428,0.57387,0.97403
290.222,34.64737,-0.62545,0.59578,0.9725
293.022,34.91527,-0.70188,0.60761,0.97097
295.822,35.18415,-0.78337,0.61396,0.96943
298.622,35.45239,-0.87014,0.58843,0.96787
301.422,35.72055,-0.9597,0.54129,0.96631
304.222,35.98854,-1.05694,0.57534,0.96474
307.022,36.25742,-1.16376,0.61942,0.96316
309.822,36.52643,-1.27657,0.65265,0.96157
312.622,36.79548,-1.39234,0.67095,0.95997
315.422,37.06449,-1.50687,0.67315,0.95836
318.222,37.33285,-1.61832,0.64992,0.95674
321.022,37.60212,-1.71576,0.59101,0.95511
323.822,37.87023,-1.79382,0.52161,0.95347
326.622,38.13955,-1.85665,0.46477,0.95183
329.422,38.40768,-1.90828,0.41701,0.95017
332.222,38.67608,-1.94879,0.37103,0.9485
335.022,38.94465,-1.98108,0.33778,0.94682
337.822,39.21334,-2.0117,0.30585,0.94514
340.622,39.48252,-2.03541,0.27536,0.94344
343.422,39.75163,-2.056,0.25275,0.94174
346.222,40.02133,-2.07434,0.22659,0.94002
349.022,40.29078,-2.08978,0.2078,0.9383
351.822,40.56087,-2.10097,0.19229,0.93656
354.622,40.8307,-2.11303,0.17745,0.93482
357.422,41.10075,-2.12134,0.16931,0.93307
360.222,41.3716,-2.13017,0.16235,0.9313
363.022,41.64204,-2.13757,0.15968,0.92953
365.822,41.91346,-2.14481,0.15934,0.92775
368.622,42.18489,-2.15067,0.15885,0.92596
371.422,42.45576,-2.15691,0.15976,0.92416
374.222,42.72773,-2.16242,0.15821,0.92235
377.022,42.9993,-2.16728,0.16032,0.92053
379.822,43.27156,-2.17426,0.15969,0.9187
382.622,43.54305,-2.17953,0.16094,0.91686
385.422,43.81477,-2.18504,0.15994,0.91501
388.222,44.0869,-2.19153,0.15976,0.91315
391.022,44.3591,-2.19675,0.16146,0.91128
393.822,44.63135,-2.20335,0.16222,0.90941
396.622,44.90319,-2.21136,0.16139,0.90752
399.422,45.17523,-2.21833,0.16359,0.90563
402.222,45.44696,-2.22497,0.16221,0.90372
405.022,45.72022,-2.23433,0.16406,0.90181
407.822,45.9927,-2.24361,0.16082,0.89988
410.622,46.26593,-2.25181,0.16096,0.89795
413.422,46.5396,-2.26174,0.16138,0.89601
416.222,46.8128,-2.2722,0.15751,0.89406
419.022,47.0862,-2.28244,0.15422,0.8921
421.822,47.3598,-2.29456,0.1501,0.89013
424.622,47.6336,-2.30492,0.14715,0.88815
427.422,47.90809,-2.31786,0.14387,0.88616
430.222,48.18197,-2.3309,0.14019,0.88416
433.022,48.4563,-2.3447,0.14054,0.88215
435.822,48.73106,-2.36012,0.14225,0.88014
438.622,49.00524,-2.37863,0.14404,0.87811
441.422,49.28,-2.39449,0.15569,0.87608
444.222,49.5548,-2.4141,0.16333,0.87404
447.022,49.82936,-2.43562,0.1802,0.87198
449.822,50.1043,-2.45713,0.1936,0.86992
452.622,50.37957,-2.47997,0.20234,0.86785
455.422,50.6547,-2.50336,0.21111,0.86577
458.222,50.9304,-2.52571,0.22217,0.86369
461.022,51.20561,-2.54832,0.22768,0.86159
463.822,51.48093,-2.5707,0.23246,0.85948
466.622,51.75673,-2.59037,0.23604,0.85737
469.422,52.03167,-2.61207,0.2367,0.85525
472.222,52.3074,-2.63098,0.24104,0.85311
475.022,52.5824,-2.64974,0.24027,0.85097
477.822,52.85776,-2.6662,0.23627,0.84883
480.622,53.13384,-2.6794,0.22974,0.84667
483.422,53.41053,-2.69309,0.22165,0.8445
486.222,53.68619,-2.70564,0.21246,0.84233
489.022,53.9627,-2.71676,0.2061,0.84014
491.822,54.23842,-2.72527,0.19614,0.83795
494.622,54.5153,-2.73316,0.19388,0.83575
497.422,54.79189,-2.7412,0.18834,0.83354
500.222,55.0682,-2.74698,0.18693,0.83133
503.022,55.3452,-2.75257,0.18559,0.8291
505.822,55.62254,-2.75832,0.18303,0.82687
508.622,55.89985,-2.76128,0.18187,0.82463
511.422,56.17685,-2.76514,0.18178,0.82238
514.222,56.4541,-2.76973,0.18688,0.82012
517.022,56.7318,-2.77276,0.19228,0.81785
519.822,57.0098,-2.77741,0.19894,0.81558
522.622,57.28736,-2.77872,0.19837,0.8133
525.422,57.56534,-2.78267,0.20086,0.81101
528.222,57.8433,-2.78429,0.20377,0.80871
531.022,58.1211,-2.78696,0.20756,0.80641
533.822,58.39892,-2.78992,0.20826,0.80409
536.622,58.67771,-2.79378,0.20942,0.80177
539.422,58.9567,-2.79553,0.21159,0.79944
542.222,59.2355,-2.79714,0.21818,0.79711
545.022,59.51376,-2.80083,0.22494,0.79477
547.822,59.79221,-2.80441,0.22678,0.79241
550.622,60.07065,-2.80573,0.23533,0.79006
553.422,60.3484,-2.80969,0.24602,0.78769
556.222,60.6265,-2.81364,0.25601,0.78532
559.022,60.90535,-2.81769,0.26495,0.78294
561.822,61.1839,-2.82054,0.27549,0.78055
564.622,61.4632,-2.82582,0.28663,0.77816
567.422,61.7432,-2.83077,0.29391,0.77576
570.222,62.0226,-2.83465,0.29218,0.77335
573.022,62.3033,-2.84005,0.28388,0.77093
575.822,62.5829,-2.8442,0.26651,0.76851
578.622,62.86235,-2.848,0.24439,0.76608
581.422,63.1416,-2.85065,0.22146,0.76365
584.222,63.42075,-2.85459,0.20211,0.7612
587.022,63.70069,-2.85756,0.19229,0.75876
589.822,63.9802,-2.85986,0.18672,0.7563
592.622,64.2599,-2.86183,0.1807,0.75384
595.422,64.53949,-2.86383,0.17903,0.75137
598.222,64.82002,-2.86546,0.18015,0.7489
601.022,65.09987,-2.86776,0.1815,0.74642
603.822,65.37971,-2.86842,0.18337,0.74393
606.622,65.65988,-2.87039,0.18522,0.74144
609.422,65.9397,-2.87139,0.19289,0.73894
612.222,66.22001,-2.87303,0.20316,0.73643
615.022,66.50045,-2.87566,0.21308,0.73392
617.822,66.7805,-2.87699,0.22234,0.7314
620.622,67.06059,-2.87896,0.23515,0.72888
623.422,67.34044,-2.88293,0.24962,0.72635
626.222,67.62114,-2.88489,0.26563,0.72382
629.022,67.90221,-2.88686,0.27947,0.72128
631.822,68.1832,-2.8895,0.29694,0.71874
634.622,68.46401,-2.89223,0.31276,0.71619
637.422,68.74462,-2.89468,0.3303,0.71363
640.222,69.02605,-2.90008,0.35633,0.71107
643.022,69.30734,-2.90262,0.37976,0.70851
645.822,69.5886,-2.90794,0.40794,0.70593
648.622,69.87075,-2.9123,0.43815,0.70336
651.422,70.15294,-2.92087,0.47484,0.70078
654.222,70.43483,-2.92465,0.5092,0.69819
657.022,70.71602,-2.93094,0.54789,0.6956
659.822,70.99758,-2.93985,0.58605,0.69301
662.622,71.27888,-2.94786,0.62388,0.69041
665.422,71.55957,-2.95789,0.65692,0.68781
668.222,71.84035,-2.96547,0.68365,0.6852
671.022,72.12185,-2.9771,0.69746,0.68259
673.822,72.40335,-2.98729,0.68531,0.67997
676.622,72.68557,-2.99759,0.63414,0.67735
679.422,72.96817,-3.00469,0.53214,0.67472
682.222,73.24979,-3.01257,0.39464,0.6721
685.022,73.53183,-3.01652,0.27144,0.66946
687.822,73.81364,-3.01746,0.19902,0.66683
690.622,74.09568,-3.01969,0.16403,0.66419
693.422,74.37829,-3.02047,0.1491,0.66154
696.222,74.661,-3.0218,0.13948,0.6589
699.022,74.94382,-3.02277,0.13955,0.65625
699.522,74.99455,-3.02277,0.13934,0.65577

File: Romex_Cable_STA_N2_10KData_220718_R2.csv
##Temp./Â°C,Time/min,Mass loss(subtr.2)/mg,DSC(subtr.2)/(mW/mg),Sensit./(uV/mW)
49.649,10.01,0.03392,0.0008911272,1.07019
52.449,11.26109,0.03700372,0.11192,1.06942
55.249,11.6792,0.03698748,0.17053,1.06864
58.049,12.0288,0.03749766,0.2037,1.06785
60.849,12.35352,0.03878074,0.22728,1.06706
63.649,12.66581,0.03940391,0.24224,1.06625
66.449,12.9709,0.03941118,0.25234,1.06544
69.249,13.2717,0.04073055,0.25637,1.06462
72.049,13.56882,0.03941985,0.26313,1.06379
74.849,13.86331,0.0392913,0.26922,1.06295
77.649,14.1548,0.04000747,0.27461,1.06211
80.449,14.44356,0.04042668,0.2798,1.06125
83.249,14.73091,0.04006693,0.28493,1.06039
86.049,15.01409,0.03997454,0.28947,1.05952
88.849,15.29625,0.04067734,0.29376,1.05864
91.649,15.57606,0.03940369,0.29788,1.05775
94.449,15.85415,0.04073699,0.29946,1.05686
97.249,16.13039,0.03809314,0.30308,1.05596
100.049,16.40589,0.03941362,0.30717,1.05504
102.849,16.68054,0.03809965,0.30813,1.05412
105.649,16.95551,0.03888913,0.31266,1.0532
108.449,17.2299,0.03940951,0.31341,1.05226
111.249,17.50413,0.04007003,0.31786,1.05131
114.049,17.77646,0.03932331,0.32035,1.05036
116.849,18.05056,0.03973989,0.32304,1.0494
119.649,18.32239,0.03809047,0.32539,1.04843
122.449,18.59458,0.03810182,0.33009,1.04745
125.249,18.86693,0.03876,0.33467,1.04646
128.049,19.1385,0.03941014,0.3389,1.04546
130.849,19.40919,0.03806087,0.34306,1.04446
133.649,19.6797,0.03940996,0.34477,1.04344
136.449,19.95145,0.03974,0.34598,1.04242
139.249,20.2214,0.0378813,0.35177,1.04139
142.049,20.49161,0.03945038,0.35434,1.04035
144.849,20.76098,0.03766722,0.35492,1.0393
147.649,21.02985,0.0386456,0.35931,1.03825
150.449,21.29844,0.03568,0.36169,1.03718
153.249,21.56674,0.03565019,0.36419,1.03611
156.049,21.83537,0.03436026,0.36751,1.03503
158.849,22.10409,0.0343637,0.37105,1.03393
161.649,22.37291,0.03248366,0.37146,1.03283
164.449,22.64141,0.03041135,0.37326,1.03172
167.249,22.90917,0.03041028,0.37628,1.03061
170.049,23.17781,0.02761706,0.38028,1.02948
172.849,23.4453,0.02777158,0.38413,1.02834
175.649,23.71345,0.0254671,0.38679,1.0272
178.449,23.98118,0.02514,0.38975,1.02604
181.249,24.24869,0.02251543,0.39046,1.02488
184.049,24.51588,0.02086004,0.38811,1.02371
186.849,24.7829,0.01856394,0.39152,1.02253
189.649,25.04964,0.01589821,0.38694,1.02134
192.449,25.31671,0.01427,0.38775,1.02014
195.249,25.5836,0.01317727,0.38977,1.01893
198.049,25.84979,0.01032002,0.39468,1.01772
200.849,26.11625,0.00899804,0.39417,1.01649
203.649,26.3824,0.00766321,0.39798,1.01526
206.449,26.6494,0.003739625,0.40405,1.01401
209.249,26.9155,0.00274174,0.41182,1.01276
212.049,27.1822,0.000126305,0.42159,1.0115
214.849,27.44913,-0.002518378,0.43386,1.01023
217.649,27.71609,-0.005160278,0.45635,1.00894
220.449,27.98283,-0.008681085,0.47464,1.00766
223.249,28.2495,-0.01307,0.4512,1.00636
226.049,28.51657,-0.01569645,0.41485,1.00505
228.849,28.7827,-0.01885785,0.40615,1.00373
231.649,29.04952,-0.02393556,0.40527,1.0024
234.449,29.3158,-0.0281089,0.4093,1.00107
237.249,29.58205,-0.03428308,0.40942,0.99972
240.049,29.8483,-0.03974368,0.40912,0.99837
242.849,30.11543,-0.04716299,0.41091,0.997
245.649,30.38213,-0.05427067,0.41274,0.99563
248.449,30.64943,-0.06333351,0.41489,0.99425
251.249,30.9164,-0.07527192,0.41752,0.99286
254.049,31.1828,-0.08372212,0.42151,0.99145
256.849,31.44912,-0.09861746,0.42846,0.99004
259.649,31.7158,-0.11127,0.4317,0.98862
262.449,31.98167,-0.12676,0.43798,0.98719
265.249,32.24895,-0.14532,0.44771,0.98576
268.049,32.5157,-0.16635,0.4571,0.98431
270.849,32.7828,-0.19043,0.46934,0.98285
273.649,33.0503,-0.21751,0.48337,0.98138
276.449,33.31752,-0.24946,0.50485,0.9799
279.249,33.585,-0.28737,0.53189,0.97842
282.049,33.85277,-0.3328,0.55871,0.97692
284.849,34.12044,-0.38441,0.58119,0.97542
287.649,34.3885,-0.44579,0.60206,0.9739
290.449,34.6564,-0.51452,0.62155,0.97238
293.249,34.92438,-0.58797,0.63436,0.97084
296.049,35.19182,-0.66995,0.63965,0.9693
298.849,35.45978,-0.7538,0.60514,0.96775
301.649,35.7269,-0.84029,0.58601,0.96619
304.449,35.9951,-0.93831,0.61897,0.96461
307.249,36.26347,-1.04448,0.65764,0.96303
310.049,36.5325,-1.15594,0.69072,0.96144
312.849,36.80122,-1.27119,0.71702,0.95984
315.649,37.07027,-1.39041,0.71318,0.95823
318.449,37.3394,-1.49838,0.6759,0.95661
321.249,37.6086,-1.58749,0.60518,0.95498
324.049,37.87765,-1.65775,0.53591,0.95334
326.849,38.14651,-1.71355,0.48707,0.95169
329.649,38.4154,-1.75815,0.44115,0.95003
332.449,38.68468,-1.79677,0.40188,0.94837
335.249,38.95377,-1.82774,0.36725,0.94669
338.049,39.22376,-1.85306,0.33735,0.945
340.849,39.49268,-1.87609,0.31114,0.9433
343.649,39.7616,-1.89319,0.28867,0.9416
346.449,40.03151,-1.90792,0.26733,0.93988
349.249,40.3009,-1.92328,0.25176,0.93816
352.049,40.57047,-1.93371,0.23428,0.93642
354.849,40.84128,-1.94396,0.22775,0.93468
357.649,41.11183,-1.95413,0.21873,0.93292
360.449,41.3822,-1.96402,0.21625,0.93116
363.249,41.6532,-1.97074,0.21332,0.92939
366.049,41.92402,-1.97706,0.21294,0.9276
368.849,42.19494,-1.98414,0.21301,0.92581
371.649,42.46613,-1.98949,0.21473,0.92401
374.449,42.737,-1.99614,0.21613,0.9222
377.249,43.00898,-2.00411,0.21606,0.92038
380.049,43.28114,-2.00806,0.21814,0.91855
382.849,43.55312,-2.01775,0.22039,0.91671
385.649,43.82508,-2.02274,0.21896,0.91486
388.449,44.09742,-2.03083,0.22398,0.913
391.249,44.36943,-2.03838,0.22634,0.91113
394.049,44.6413,-2.0475,0.23005,0.90925
396.849,44.91415,-2.0536,0.23201,0.90737
399.649,45.187,-2.06437,0.23583,0.90547
402.449,45.4596,-2.07239,0.23623,0.90357
405.249,45.73234,-2.08342,0.23714,0.90165
408.049,46.00548,-2.09589,0.23559,0.89973
410.849,46.2787,-2.10674,0.23511,0.89779
413.649,46.55206,-2.11793,0.23298,0.89585
416.449,46.82575,-2.12961,0.22924,0.8939
419.249,47.10018,-2.14233,0.22497,0.89194
422.049,47.37395,-2.15614,0.2203,0.88997
424.849,47.6479,-2.16864,0.21182,0.88799
427.649,47.92133,-2.18458,0.20068,0.886
430.449,48.19566,-2.19765,0.19216,0.884
433.249,48.47,-2.21114,0.18749,0.88199
436.049,48.7436,-2.2263,0.18563,0.87997
438.849,49.0173,-2.2421,0.18346,0.87795
441.649,49.29084,-2.26114,0.18876,0.87591
444.449,49.56485,-2.28049,0.19779,0.87387
447.249,49.8397,-2.30093,0.20892,0.87182
450.049,50.11493,-2.32352,0.22249,0.86976
452.849,50.38895,-2.34534,0.23399,0.86768
455.649,50.66478,-2.36755,0.24225,0.8656
458.449,50.94014,-2.39174,0.2476,0.86352
461.249,51.21588,-2.41322,0.25311,0.86142
464.049,51.49151,-2.43548,0.25565,0.85931
466.849,51.7667,-2.45676,0.2593,0.8572
469.649,52.0439,-2.47813,0.26236,0.85507
472.449,52.31955,-2.49623,0.26457,0.85294
475.249,52.5953,-2.51236,0.26358,0.8508
478.049,52.8716,-2.53033,0.26163,0.84865
480.849,53.14728,-2.54485,0.25739,0.84649
483.649,53.4231,-2.55811,0.25165,0.84433
486.449,53.69986,-2.56915,0.24663,0.84215
489.249,53.9766,-2.57835,0.24075,0.83997
492.049,54.25326,-2.58873,0.2368,0.83777
494.849,54.52985,-2.59812,0.23285,0.83557
497.649,54.8065,-2.60445,0.23108,0.83336
500.449,55.08295,-2.60989,0.22852,0.83115
503.249,55.3595,-2.61515,0.22873,0.82892
506.049,55.6364,-2.62045,0.2272,0.82669
508.849,55.91378,-2.6252,0.22566,0.82444
511.649,56.1911,-2.62843,0.22753,0.82219
514.449,56.46839,-2.63173,0.23553,0.81994
517.249,56.7456,-2.63435,0.24411,0.81767
520.049,57.02267,-2.637,0.24791,0.8154
522.849,57.29987,-2.63963,0.25522,0.81311
525.649,57.5771,-2.64193,0.26381,0.81082
528.449,57.8545,-2.64478,0.26743,0.80852
531.249,58.13225,-2.64768,0.27294,0.80622
534.049,58.41035,-2.65466,0.2779,0.80391
536.849,58.6883,-2.65236,0.27908,0.80158
539.649,58.9663,-2.65442,0.28161,0.79926
542.449,59.2449,-2.65841,0.28488,0.79692
545.249,59.5241,-2.66101,0.29115,0.79458
548.049,59.8026,-2.664,0.29818,0.79222
550.849,60.0818,-2.66806,0.30109,0.78987
553.649,60.36088,-2.67241,0.30789,0.7875
556.449,60.63992,-2.67432,0.3202,0.78513
559.249,60.91871,-2.67653,0.33093,0.78275
562.049,61.19823,-2.68099,0.34275,0.78036
564.849,61.47758,-2.68567,0.35135,0.77796
567.649,61.7566,-2.68892,0.36102,0.77556
570.449,62.0367,-2.69381,0.36176,0.77315
573.249,62.3158,-2.69738,0.35627,0.77074
576.049,62.59525,-2.70269,0.34493,0.76831
578.849,62.8743,-2.70765,0.32593,0.76588
581.649,63.1531,-2.71064,0.3112,0.76345
584.449,63.43274,-2.71381,0.28949,0.76101
587.249,63.7125,-2.71779,0.27797,0.75856
590.049,63.99213,-2.71845,0.26759,0.7561
592.849,64.27124,-2.71978,0.26366,0.75364
595.649,64.55125,-2.72219,0.25737,0.75117
598.449,64.83176,-2.72391,0.25708,0.74869
601.249,65.11193,-2.72648,0.25949,0.74621
604.049,65.39215,-2.72779,0.26241,0.74373
606.849,65.67307,-2.73042,0.26734,0.74123
609.649,65.95276,-2.73328,0.27379,0.73873
612.449,66.2337,-2.7331,0.28011,0.73623
615.249,66.5137,-2.73624,0.2876,0.73372
618.049,66.7944,-2.73789,0.29401,0.7312
620.849,67.07522,-2.74046,0.30356,0.72868
623.649,67.3552,-2.74142,0.31328,0.72615
626.449,67.6356,-2.74386,0.32113,0.72361
629.249,67.9166,-2.74776,0.33089,0.72107
632.049,68.19799,-2.75194,0.34759,0.71853
634.849,68.47959,-2.75125,0.36097,0.71598
637.649,68.76082,-2.75458,0.3789,0.71342
640.449,69.04256,-2.75953,0.39682,0.71086
643.249,69.3237,-2.76314,0.41716,0.7083
646.049,69.6058,-2.76829,0.44031,0.70573
648.849,69.8873,-2.771,0.46187,0.70315
651.649,70.16858,-2.77632,0.48996,0.70057
654.449,70.45,-2.78224,0.52139,0.69798
657.249,70.73156,-2.78915,0.55605,0.69539
660.049,71.01315,-2.79551,0.58717,0.6928
662.849,71.29466,-2.80329,0.62014,0.6902
665.649,71.57602,-2.81125,0.65745,0.6876
668.449,71.85805,-2.81945,0.68498,0.68499
671.249,72.1399,-2.82922,0.70355,0.68237
674.049,72.42201,-2.83777,0.70277,0.67976
676.849,72.704,-2.8472,0.67371,0.67714
679.649,72.98563,-2.85598,0.60319,0.67451
682.449,73.26728,-2.86293,0.49944,0.67188
685.249,73.5496,-2.86883,0.37635,0.66925
688.049,73.83176,-2.86875,0.27865,0.66661
690.849,74.1135,-2.8727,0.2238,0.66397
693.649,74.39556,-2.87402,0.19147,0.66133
696.449,74.67786,-2.87566,0.17535,0.65868
699.249,74.96029,-2.87599,0.17067,0.65603
699.649,74.9993,-2.87633,0.16833,0.65565