Folder: fsri_materials_database/01_Data/Romex_Cable/STA/N2/10K_min (part 2)

File: Romex_Cable_STA_N2_10KData_220718_R3.csv
##Temp./Â°C,Time/min,Mass loss(subtr.2)/mg,DSC(subtr.2)/(mW/mg),Sensit./(uV/mW)
49.358,10.00917,0.02525,-0.004298569,1.07027
52.258,11.27935,0.02919656,0.09070635,1.06947
55.158,11.70195,0.0283334,0.13914,1.06867
58.058,12.0611,0.02151124,0.16503,1.06785
60.958,12.3937,0.03475851,0.18398,1.06702
63.858,12.71461,0.02929406,0.19482,1.06619
66.758,13.02918,0.02668,0.20045,1.06535
69.658,13.34029,0.02828135,0.20819,1.0645
72.558,13.64714,0.02831024,0.20716,1.06364
75.458,13.94996,0.03096722,0.2129,1.06277
78.358,14.2512,0.03094394,0.2196,1.06189
81.258,14.54984,0.03002677,0.2211,1.061
84.158,14.84485,0.03095017,0.22408,1.06011
87.058,15.13825,0.03358992,0.2239,1.0592
89.958,15.42941,0.03028991,0.2266,1.05829
92.858,15.7178,0.03287837,0.22793,1.05737
95.758,16.0045,0.03329739,0.23012,1.05644
98.658,16.29064,0.03238249,0.23126,1.0555
101.558,16.57593,0.03458,0.23428,1.05455
104.458,16.8596,0.03590001,0.2331,1.05359
107.358,17.14337,0.03357633,0.23502,1.05263
110.258,17.42715,0.0336116,0.23484,1.05165
113.158,17.71009,0.03489395,0.2374,1.05066
116.058,17.9925,0.03599527,0.23772,1.04967
118.958,18.27507,0.03488214,0.2402,1.04867
121.858,18.55611,0.03490298,0.24275,1.04765
124.758,18.83764,0.03490002,0.24435,1.04663
127.658,19.1195,0.03491082,0.24675,1.0456
130.558,19.3998,0.03190017,0.25017,1.04456
133.458,19.68052,0.03392017,0.25067,1.04351
136.358,19.95994,0.03260996,0.25138,1.04246
139.258,20.2397,0.03293001,0.25327,1.04139
142.158,20.51913,0.03161996,0.25484,1.04031
145.058,20.79738,0.03160991,0.25619,1.03923
147.958,21.07599,0.02892204,0.25786,1.03813
150.858,21.3533,0.03029555,0.25838,1.03703
153.758,21.63121,0.02897924,0.26027,1.03591
156.658,21.9092,0.02941997,0.26195,1.03479
159.558,22.1879,0.0272108,0.25886,1.03366
162.458,22.4656,0.02723005,0.26169,1.03251
165.358,22.7435,0.02821052,0.2636,1.03136
168.258,23.02071,0.02557999,0.26823,1.0302
171.158,23.2977,0.02151,0.26923,1.02903
174.058,23.57486,0.02115654,0.26991,1.02785
176.958,23.8524,0.01986002,0.27296,1.02666
179.858,24.12924,0.01887993,0.27386,1.02546
182.758,24.40665,0.01757081,0.27089,1.02425
185.658,24.68301,0.01633926,0.27136,1.02303
188.558,24.95874,0.01240187,0.26824,1.0218
191.458,25.23506,0.01108011,0.26941,1.02057
194.358,25.511,0.00916479,0.26925,1.01932
197.258,25.7867,0.007799884,0.26837,1.01806
200.158,26.06288,0.005162608,0.26627,1.01679
203.058,26.3381,0.004829996,0.26676,1.01552
205.958,26.6156,0.003511383,0.26727,1.01423
208.858,26.8914,0.000867318,0.27158,1.01293
211.758,27.16837,-0.002028173,0.27728,1.01163
214.658,27.4445,-0.007035652,0.285,1.01031
217.558,27.72045,-0.009651771,0.2969,1.00899
220.458,27.99643,-0.01229988,0.30937,1.00765
223.358,28.27119,-0.01904736,0.29767,1.00631
226.258,28.54715,-0.02056853,0.27695,1.00495
229.158,28.82177,-0.02301984,0.27186,1.00358
232.058,29.09787,-0.02745501,0.27117,1.00221
234.958,29.37373,-0.03257923,0.26881,1.00082
237.858,29.64953,-0.0379903,0.26893,0.99943
240.758,29.92475,-0.04351613,0.27114,0.99802
243.658,30.19998,-0.05140201,0.272,0.99661
246.558,30.47506,-0.05940953,0.27207,0.99518
249.458,30.75067,-0.0692928,0.27642,0.99375
252.358,31.0262,-0.07980086,0.27899,0.9923
255.258,31.30231,-0.09463199,0.28337,0.99085
258.158,31.57832,-0.10766,0.28657,0.98938
261.058,31.85452,-0.12239,0.29085,0.98791
263.958,32.1307,-0.13779,0.29985,0.98642
266.858,32.40729,-0.1585,0.30881,0.98492
269.758,32.68334,-0.18114,0.31841,0.98342
272.658,32.9602,-0.20937,0.3327,0.9819
275.558,33.23717,-0.24352,0.35357,0.98038
278.458,33.5139,-0.2752,0.38169,0.97884
281.358,33.79013,-0.32386,0.41399,0.97729
284.258,34.06864,-0.3772,0.44433,0.97574
287.158,34.34665,-0.4408,0.46821,0.97417
290.058,34.62369,-0.50888,0.48927,0.97259
292.958,34.9012,-0.58874,0.5072,0.971
295.858,35.1788,-0.67124,0.5116,0.96941
298.758,35.45642,-0.7611,0.47982,0.9678
301.658,35.73373,-0.855,0.4453,0.96618
304.558,36.01181,-0.95875,0.4877,0.96455
307.458,36.29,-1.06219,0.53363,0.96291
310.358,36.56819,-1.18524,0.57074,0.96126
313.258,36.84675,-1.30585,0.58411,0.9596
316.158,37.1259,-1.42253,0.56691,0.95793
319.058,37.4039,-1.53069,0.51236,0.95626
321.958,37.68251,-1.62342,0.44082,0.95457
324.858,37.95995,-1.68743,0.36987,0.95286
327.758,38.23851,-1.74391,0.30832,0.95115
330.658,38.51645,-1.7869,0.26109,0.94943
333.558,38.7954,-1.81795,0.21861,0.9477
336.458,39.07456,-1.85107,0.18433,0.94596
339.358,39.35454,-1.8758,0.15125,0.94421
342.258,39.6336,-1.89402,0.12185,0.94245
345.158,39.91349,-1.91354,0.09828956,0.94067
348.058,40.19291,-1.92522,0.08088316,0.93889
350.958,40.47305,-1.93551,0.06162291,0.9371
353.858,40.7522,-1.94428,0.0484719,0.9353
356.758,41.03228,-1.95521,0.0391019,0.93348
359.658,41.31158,-1.96499,0.03237066,0.93166
362.558,41.5929,-1.97303,0.0293037,0.92983
365.458,41.87256,-1.97504,0.02739415,0.92798
368.358,42.15337,-1.98414,0.02402123,0.92613
371.258,42.43363,-1.9902,0.02367176,0.92426
374.158,42.7147,-1.99211,0.02032528,0.92239
377.058,42.9961,-1.99737,0.01901659,0.9205
379.958,43.27769,-2.00447,0.01544913,0.91861
382.858,43.55925,-2.01058,0.01671986,0.9167
385.758,43.84131,-2.01387,0.01584807,0.91479
388.658,44.12288,-2.0206,0.01235223,0.91286
391.558,44.40535,-2.02617,0.01374953,0.91093
394.458,44.68837,-2.03272,0.01419971,0.90898
397.358,44.9709,-2.03939,0.01211412,0.90702
400.258,45.253,-2.04347,0.009900917,0.90506
403.158,45.5357,-2.05051,0.00792456,0.90308
406.058,45.8181,-2.06041,0.006051956,0.9011
408.958,46.1004,-2.06744,0.00387846,0.8991
411.858,46.38328,-2.07362,0.00182815,0.89709
414.758,46.6661,-2.08003,-0.00429356,0.89508
417.658,46.9493,-2.09226,-0.0115983,0.89305
420.558,47.23292,-2.10174,-0.01584832,0.89102
423.458,47.51652,-2.11285,-0.01984737,0.88897
426.358,47.80046,-2.12322,-0.02801191,0.88691
429.258,48.08388,-2.13572,-0.02922122,0.88485
432.158,48.36793,-2.1496,-0.03314626,0.88277
435.058,48.6511,-2.16365,-0.03428017,0.88069
437.958,48.93589,-2.17876,-0.03090914,0.87859
440.858,49.2207,-2.1949,-0.02489521,0.87649
443.758,49.5045,-2.21419,-0.01767052,0.87438
446.658,49.78918,-2.23354,-0.006374125,0.87225
449.558,50.07403,-2.25488,0.01052674,0.87012
452.458,50.3584,-2.27596,0.01872116,0.86797
455.358,50.64301,-2.3006,0.03136028,0.86582
458.258,50.928,-2.32281,0.037029,0.86366
461.158,51.21278,-2.34406,0.04330954,0.86149
464.058,51.49889,-2.3636,0.04350201,0.85931
466.958,51.78443,-2.38684,0.04432313,0.85712
469.858,52.07,-2.407,0.0451828,0.85492
472.758,52.35583,-2.42653,0.04602091,0.85271
475.658,52.6414,-2.44341,0.0478297,0.85049
478.558,52.92794,-2.45949,0.04020875,0.84826
481.458,53.21382,-2.4738,0.03734765,0.84602
484.358,53.50048,-2.48648,0.03081424,0.84378
487.258,53.7864,-2.49702,0.02317844,0.84152
490.158,54.0725,-2.50763,0.01638058,0.83926
493.058,54.3584,-2.51525,0.009021153,0.83698
495.958,54.64555,-2.52592,0.005027691,0.8347
498.858,54.93185,-2.53299,1.587971e-05,0.83241
501.758,55.2185,-2.53478,-0.002562322,0.83011
504.658,55.50466,-2.54265,-0.004583897,0.8278
507.558,55.7913,-2.54538,-0.003784896,0.82548
510.458,56.07886,-2.5506,-0.0016144,0.82315
513.358,56.3661,-2.55333,0.005495978,0.82082
516.258,56.65334,-2.55804,0.01297125,0.81847
519.158,56.94087,-2.55928,0.01586384,0.81612
522.058,57.2282,-2.5619,0.02074919,0.81376
524.958,57.51608,-2.56586,0.02171683,0.81139
527.858,57.80461,-2.56858,0.02492213,0.80901
530.758,58.0932,-2.56981,0.02367497,0.80662
533.658,58.38159,-2.57381,0.02145039,0.80423
536.558,58.67025,-2.57498,0.02194593,0.80183
539.458,58.95884,-2.57761,0.02155505,0.79941
542.358,59.24754,-2.57892,0.02103166,0.797
545.258,59.5365,-2.58429,0.02349056,0.79457
548.158,59.82435,-2.58288,0.02153277,0.79213
551.058,60.11342,-2.58682,0.02503382,0.78969
553.958,60.40158,-2.59112,0.03221046,0.78724
556.858,60.68923,-2.59242,0.04371816,0.78478
559.758,60.9781,-2.59901,0.05538705,0.78231
562.658,61.26772,-2.60165,0.06774649,0.77984
565.558,61.5562,-2.60695,0.07742463,0.77736
568.458,61.8461,-2.61139,0.08823189,0.77487
571.358,62.1354,-2.6168,0.08814901,0.77237
574.258,62.425,-2.62074,0.08412251,0.76986
577.158,62.7149,-2.62613,0.06817964,0.76735
580.058,63.00425,-2.63003,0.0472618,0.76483
582.958,63.2938,-2.63316,0.02228594,0.76231
585.858,63.58334,-2.63667,0.000529516,0.75977
588.758,63.873,-2.63898,-0.0133869,0.75723
591.658,64.16239,-2.64162,-0.02436065,0.75469
594.558,64.45211,-2.64293,-0.02828103,0.75213
597.458,64.7418,-2.64557,-0.03276984,0.74957
600.358,65.03108,-2.64752,-0.02956719,0.747
603.258,65.32056,-2.64946,-0.03032318,0.74443
606.158,65.61023,-2.65103,-0.02371017,0.74185
609.058,65.90044,-2.65347,-0.01882663,0.73926
611.958,66.1911,-2.65467,-0.01244447,0.73667
614.858,66.4811,-2.65603,-0.008389728,0.73407
617.758,66.7726,-2.65729,-0.000749983,0.73146
620.658,67.06389,-2.65962,0.0075279,0.72885
623.558,67.35525,-2.66225,0.01946092,0.72623
626.458,67.64596,-2.66594,0.03165626,0.72361
629.358,67.93717,-2.66819,0.03995784,0.72098
632.258,68.22881,-2.6695,0.05389575,0.71834
635.158,68.5205,-2.67442,0.0648307,0.7157
638.058,68.81221,-2.67707,0.08195935,0.71305
640.958,69.10374,-2.68102,0.10133,0.7104
643.858,69.39577,-2.68547,0.12748,0.70774
646.758,69.68645,-2.68826,0.1506,0.70507
649.658,69.9781,-2.69628,0.17884,0.7024
652.558,70.26948,-2.69893,0.211,0.69973
655.458,70.56075,-2.70441,0.2491,0.69705
658.358,70.8526,-2.71367,0.2865,0.69437
661.258,71.14418,-2.71807,0.32266,0.69168
664.158,71.4361,-2.72993,0.36147,0.68898
667.058,71.72814,-2.73825,0.39596,0.68628
669.958,72.02091,-2.74789,0.42892,0.68358
672.858,72.31285,-2.75875,0.44564,0.68087
675.758,72.60553,-2.76935,0.43689,0.67816
678.658,72.89732,-2.78057,0.37634,0.67544
681.558,73.1892,-2.78773,0.25417,0.67272
684.458,73.48095,-2.79563,0.0939631,0.66999
687.358,73.77175,-2.7996,-0.03877562,0.66726
690.258,74.06349,-2.8019,-0.11297,0.66453
693.158,74.35568,-2.80418,-0.15039,0.66179
696.058,74.64833,-2.80684,-0.16866,0.65905
698.958,74.9409,-2.80881,-0.18142,0.65631
699.458,74.99122,-2.80741,-0.18183,0.65583