Folder: fsri_materials_database/01_Data/Fiberglass_Insulation_3/Cone

Note: 01_Data/README.md
# Materials and Products Database
## 01_Data

Raw data generated from each apparatus are included here in plain-text format. The data is organized first by material, next by the short name of test apparatus used, and where applicable additional filtering by test settings.

### material.json

Each material directory contains a json file of the same name as the material. This file links the data stored in the repository as well as data and graphs produced by the accompanying scripts (__02_Scripts__) to the respective landing page for the material on the front-end website.

File: Fiberglass_Insulation_3_Cone_HF25Scalar_220506_R1.csv
LABORATORY,FSRI
TEST IDENT,Insulation3_HF25_1
OPERATOR,Dow
MATERIAL,fiberglass insulation 3 (saint gobain)
ORIENTATION,Horizontal
HEAT FLUX,25
SURF AREA,0.00884
C FACTOR,0.042088
SPEC HOLDER DIFF,-566
SPECIMEN MASS,8.69
SCAN TIME,0.25
O2 DELAY TIME,11
CO DELAY TIME,11
CO2 DELAY TIME,8
FLOW FACTOR,1
SCAN COUNT,541
TIME TO IGN,8.5
END OF TEST SCAN,61
END OF TEST TIME,15.25
TEST STATUS,1
PRE TEST CMT,Dimensions: 106 x 105 x 41 mm; with frame compressed to about 40 mm

File: Fiberglass_Insulation_3_Cone_HF25Scalar_220506_R3.csv
LABORATORY,FSRI
TEST IDENT,Insulation3_HF25_3
OPERATOR,Dow
MATERIAL,fiberglass insulation 3 (saint gobain)
ORIENTATION,Horizontal
HEAT FLUX,25
SURF AREA,0.01
C FACTOR,0.042088
SPEC HOLDER DIFF,-566
SPECIMEN MASS,7.7
SCAN TIME,0.25
O2 DELAY TIME,11
CO DELAY TIME,11
CO2 DELAY TIME,8
FLOW FACTOR,1
SCAN COUNT,554
TIME TO IGN,7.25
END OF TEST SCAN,74
END OF TEST TIME,18.5
TEST STATUS,1
PRE TEST CMT,Dimensions: 98 x 99 x 46 mm; with frame compressed to about 40 mm

File: Fiberglass_Insulation_3_Cone_HF25Scan_220506_R1.csv
Names,Time,Stack TC,Smoke TC,Exh Press,Smoke Comp,Smoke Meas,CO Meter,CO2 Meter,O2 Meter,Sample Mass,Ext Coeff,Start Test,Flame Verif
Chan Gain,,500,500,1,1,1,1,1,1,1,1,1.0,1.0
Offset,,0,0,0.134207,0,0,0,0,0,0,0,0.0,0.0
Gain,,1,1,25.011,13.8443,15.4071,1,1,1,1.00079,1.02936,1.0,1.0
Units,sec,C,C,Pa,%,%,%,%,%,g,/m,,
Baseline,,19.6128,20.1146,143.656,104.912,105.752,0.000620791,0.0425445,21.0031,-444.122,-0.0720075,,
6,1.25,17.687,19.2041,142.213,104.616,106.098,0.000482716,0.0511179,20.9891,440.808,-0.127027,0.0,0.0
12,2.75,18.2029,18.5965,146.928,104.531,105.623,0.000348757,0.0506808,20.9896,440.788,-0.0938536,0.0,0.0
18,4.25,17.7566,18.348,143.579,104.478,105.369,0.000394863,0.0501636,20.9899,440.708,-0.0766847,0.0,0.0
24,5.75,18.2403,18.7966,142.217,104.394,104.423,0.000705391,0.0499319,20.9888,440.638,-0.00248412,0.0,0.0
30,7.25,18.099,18.6689,143.405,104.604,103.251,0.00126783,0.0540116,20.971,440.678,0.117632,0.0,0.0
36,8.75,18.7402,19.0608,135.05,104.854,108.649,0.00205984,0.0744664,20.8984,440.538,-0.321034,0.0,1.0
42,10.25,18.9334,19.4665,124.693,105.04,98.4824,0.00293621,0.1191,20.8081,440.097,0.582039,0.0,1.0
48,11.75,20.8673,20.5169,135.5,105.178,100.036,0.00364582,0.152851,20.7605,440.137,0.452543,0.0,1.0
54,13.25,21.3274,21.1758,139.211,105.272,107.591,0.00436189,0.1671,20.7616,440.187,-0.196811,0.0,1.0
60,14.75,21.851,21.9495,142.426,105.315,106.693,0.00493399,0.165478,20.8024,440.117,-0.117355,0.0,0.0
66,16.25,21.4296,21.369,140.015,105.316,106.279,0.00532561,0.154186,20.8482,440.117,-0.0821978,0.0,0.0
72,17.75,20.9312,21.1161,139.635,105.278,106.665,0.00544219,0.141494,20.8837,439.917,-0.118155,0.0,0.0
78,19.25,21.2453,21.059,147.77,105.195,106.545,0.00536434,0.128714,20.9119,439.937,-0.115104,0.0,0.0
84,20.75,21.4731,21.2094,140.031,105.071,106.562,0.00522234,0.117937,20.933,440.027,-0.127171,0.0,0.0
90,22.25,21.1146,21.1055,142.221,104.909,106.789,0.00504528,0.10813,20.9476,440.077,-0.160384,0.0,0.0
96,23.75,20.7456,20.9153,141.462,104.807,106.62,0.00472219,0.100379,20.9572,439.917,-0.154868,0.0,0.0
102,25.25,20.1749,20.5676,142.719,104.88,106.563,0.00432039,0.0935718,20.9653,439.947,-0.14375,0.0,0.0
108,26.75,20.381,20.7206,142.041,104.964,106.302,0.00384948,0.087303,20.9721,440.027,-0.114379,0.0,0.0
114,28.25,20.7193,21.0528,141.44,105.058,107.238,0.00331547,0.0821336,20.9778,439.897,-0.185484,0.0,0.0
120,29.75,20.231,20.3735,144.49,105.128,106.532,0.00286261,0.0775436,20.9814,439.837,-0.119833,0.0,0.0
126,31.25,20.1824,20.6934,142.686,105.217,106.563,0.00252735,0.0735763,20.9844,439.987,-0.114697,0.0,0.0
132,32.75,20.3225,20.1708,140.623,105.302,108.125,0.00234425,0.0702599,20.9866,439.967,-0.238883,0.0,0.0
138,34.25,19.8057,20.47,143.581,105.389,106.919,0.00223574,0.0674665,20.9882,439.977,-0.130102,0.0,0.0
144,35.75,19.9214,20.5037,143.952,105.472,107.072,0.00215397,0.0647976,20.9908,440.007,-0.135981,0.0,0.0
150,37.25,19.5677,20.2124,141.82,105.525,107.174,0.00206555,0.0627795,20.9927,439.997,-0.139989,0.0,0.0
156,38.75,20.1793,20.7161,141.253,105.592,107.143,0.00189231,0.0608137,20.9938,440.017,-0.131625,0.0,0.0
162,40.25,19.7648,20.596,142.972,105.632,107.69,0.00169546,0.0591086,20.995,439.947,-0.174232,0.0,0.0
168,41.75,19.2825,20.4187,140.452,105.664,107.152,0.00152085,0.0577411,20.996,439.977,-0.126241,0.0,0.0
174,43.25,20.2688,20.4432,147.23,105.669,106.888,0.00141208,0.05639,20.9966,439.797,-0.103589,0.0,0.0
180,44.75,19.7121,20.2475,139.798,105.679,107.265,0.00135427,0.0552847,20.9975,440.047,-0.134558,0.0,0.0
186,46.25,19.4498,20.0489,147.072,105.657,106.663,0.00130674,0.0543153,20.9985,439.857,-0.0855544,0.0,0.0
192,47.75,19.7143,20.3832,143.475,105.64,107.021,0.00123405,0.0533614,20.999,439.927,-0.117311,0.0,0.0
198,49.25,19.5566,20.4,141.176,105.596,106.953,0.00114185,0.0524794,20.9993,439.987,-0.115313,0.0,0.0
204,50.75,19.9302,20.1653,142.836,105.578,107.093,0.00105252,0.0517067,20.9994,439.977,-0.128616,0.0,0.0
210,52.25,19.7166,19.9685,140.515,105.499,107.078,0.000975565,0.0507556,21.0006,439.907,-0.134143,0.0,0.0
216,53.75,19.4272,20.2222,142.775,105.452,106.942,0.00093276,0.0499745,21.0012,439.897,-0.126688,0.0,0.0
222,55.25,19.9132,20.1347,143.646,105.376,106.851,0.000956475,0.0493271,21.0015,439.787,-0.12554,0.0,0.0
228,56.75,19.9326,20.5847,142.251,105.302,106.721,0.00099543,0.0488083,21.0017,439.967,-0.120869,0.0,0.0
234,58.25,19.8729,20.1642,141.36,105.216,106.96,0.00102121,0.0483056,21.0018,439.837,-0.148449,0.0,0.0
240,59.75,18.7854,19.7265,144.614,105.146,106.087,0.00102106,0.0478679,21.0027,439.907,-0.0804942,0.0,0.0
246,61.25,19.3155,20.1971,145.426,105.049,106.41,0.00094679,0.047471,21.0032,439.847,-0.116218,0.0,0.0
252,62.75,19.0668,19.5601,141.368,104.964,105.803,0.00080902,0.0469804,21.0039,440.057,-0.0719409,0.0,0.0
258,64.25,19.8543,19.9089,141.398,104.895,106.582,0.000646559,0.0465298,21.005,439.897,-0.144037,0.0,0.0
264,65.75,19.0452,19.7965,144.513,104.789,106.256,0.00054259,0.046171,21.0055,439.807,-0.12556,0.0,0.0
270,67.25,19.2612,19.7422,144.172,104.695,105.742,0.00051999,0.0459111,21.0058,439.817,-0.0898324,0.0,0.0
276,68.75,18.9037,19.8189,141.07,104.603,106.134,0.00053708,0.0456143,21.0059,439.907,-0.131198,0.0,0.0
282,70.25,18.8693,20.1136,144.583,104.512,106.114,0.000569906,0.0453781,21.006,439.877,-0.137363,0.0,0.0
288,71.75,19.2514,20.3075,141.614,104.438,105.941,0.000620472,0.0451367,21.0061,439.857,-0.129094,0.0,0.0
294,73.25,19.0182,19.7332,144.188,104.365,105.559,0.000623934,0.0450093,21.0061,439.717,-0.102703,0.0,0.0
300,74.75,18.9188,19.8265,145.387,104.278,105.405,0.000593625,0.0448841,21.0055,439.867,-0.0971111,0.0,0.0
306,76.25,18.6733,19.719,143.825,104.212,106.029,0.000622065,0.044712,21.0047,439.887,-0.156072,0.0,0.0
312,77.75,18.8732,19.2314,146.054,104.142,105.348,0.000698316,0.0445016,21.0054,439.897,-0.103984,0.0,0.0
318,79.25,19.0607,19.6557,145.668,104.077,105.402,0.000756741,0.0442903,21.0057,439.917,-0.11426,0.0,0.0
324,80.75,18.473,18.9861,147.684,104.024,105.478,0.000722818,0.0441781,21.0059,439.927,-0.125325,0.0,0.0
330,82.25,19.2764,19.5769,145.393,103.977,105.453,0.000581768,0.0441135,21.0062,439.907,-0.127341,0.0,0.0
336,83.75,19.3186,19.6039,145.112,103.929,105.19,0.000430987,0.0441844,21.0043,439.887,-0.108914,0.0,0.0
342,85.25,18.8972,19.6895,141.354,103.883,104.94,0.000405299,0.0445909,21.0025,439.837,-0.0914182,0.0,0.0
348,86.75,19.2007,19.7698,145.522,103.84,104.862,0.000520334,0.0450811,21.0013,439.907,-0.0884871,0.0,0.0
354,88.25,19.1745,19.6784,145.667,103.816,105.277,0.000647082,0.045563,21.0004,439.947,-0.126183,0.0,0.0
360,89.75,18.7526,20.0835,145.906,103.781,104.592,0.000691287,0.0461076,20.9991,439.957,-0.0702853,0.0,0.0
366,91.25,18.9833,19.5465,139.77,103.761,104.693,0.000687793,0.0467388,20.9981,439.927,-0.0807326,0.0,0.0
372,92.75,19.3716,19.4339,144.603,103.743,104.629,0.000636873,0.04726,20.9968,439.977,-0.0768372,0.0,0.0
378,94.25,18.806,19.4345,143.304,103.724,104.993,0.000509286,0.0477441,20.9961,439.907,-0.109844,0.0,0.0
384,95.75,19.0412,19.6893,146.854,103.712,104.977,0.000345532,0.048172,20.9957,439.957,-0.109499,0.0,0.0
390,97.25,18.7268,19.4797,143.282,103.714,105.289,0.000242623,0.048531,20.9955,439.927,-0.136089,0.0,0.0
396,98.75,19.132,20.0909,143.622,103.705,104.813,0.000211284,0.0487551,20.9954,439.927,-0.0959253,0.0,0.0
402,100.25,18.9321,19.7002,142.997,103.705,104.688,0.000236808,0.0487138,20.9953,439.947,-0.0851811,0.0,0.0
408,101.75,19.2669,20.0257,141.847,103.716,104.631,0.000287187,0.0488255,20.9953,439.967,-0.0793523,0.0,0.0
414,103.25,18.7988,19.5076,140.733,103.695,105.252,0.000359376,0.0488483,20.9953,440.017,-0.134562,0.0,0.0
420,104.75,19.5102,19.7773,144.482,103.705,105.074,0.000449512,0.0487511,20.9962,439.987,-0.118377,0.0,0.0
426,106.25,18.5149,19.2482,139.574,103.71,105.074,0.000559466,0.0486235,20.9973,439.967,-0.117977,0.0,0.0
432,107.75,18.9543,19.5949,142.317,103.716,105.063,0.000668086,0.0483611,20.9988,439.977,-0.116525,0.0,0.0
438,109.25,19.0807,20.0489,142.721,103.719,105.411,0.000747246,0.0481431,20.9997,439.987,-0.146048,0.0,0.0
444,110.75,19.4856,19.6905,142.982,103.741,104.609,0.000815759,0.0479409,21.0008,439.987,-0.0752426,0.0,0.0
450,112.25,19.1546,19.8892,145.168,103.724,105.312,0.000872632,0.0475434,21.0019,439.977,-0.137144,0.0,0.0
456,113.75,18.996,19.8853,144.269,103.739,104.977,0.000872885,0.0470999,21.0025,439.987,-0.107104,0.0,0.0
462,115.25,19.2762,19.6858,141.193,103.746,105.23,0.000788269,0.0466747,21.0028,439.957,-0.128215,0.0,0.0
468,116.75,19.4406,19.8215,144.546,103.748,104.537,0.000659932,0.04641,21.0029,439.957,-0.0684061,0.0,0.0
474,118.25,19.137,19.5103,143.935,103.752,105.04,0.000553981,0.0460365,21.0039,439.957,-0.111423,0.0,0.0
480,119.75,18.7515,19.4603,144.23,103.773,104.751,0.000478473,0.0455869,21.0035,439.947,-0.084696,0.0,0.0
486,121.25,19.7021,19.6126,144.093,103.768,104.978,0.000418329,0.0451948,21.0033,439.947,-0.104729,0.0,0.0
492,122.75,18.9854,19.8445,142.627,103.779,104.869,0.00035557,0.044872,21.0032,439.957,-0.0943082,0.0,0.0
498,124.25,18.8169,20.1995,146.061,103.753,105.046,,0.0445518,,439.957,-0.111798,0.0,0.0
504,125.75,18.8386,19.5899,142.734,103.77,104.486,,0.0442773,,439.947,-0.0621399,0.0,0.0
510,127.25,18.8273,19.3435,144.473,103.756,104.721,,,,439.947,-0.0835693,0.0,0.0
516,128.75,18.9391,19.6116,145.538,103.759,105.116,,,,439.937,-0.117306,0.0,0.0
522,130.25,19.1601,19.6594,139.434,103.751,104.836,,,,439.947,-0.0940151,0.0,0.0
528,131.75,19.06,19.7187,140.198,103.744,104.707,,,,439.937,-0.0834596,0.0,0.0
534,133.25,19.2644,19.4374,143.239,103.746,104.537,,,,439.927,-0.0685899,0.0,0.0
540,134.75,19.1515,18.6262,154.269,103.739,104.946,,,,439.927,-0.104438,0.0,0.0
541,135,19.4273,19.9462,144.77,103.735,105.029,,,,439.927,-0.111924,0.0,0.0

File: Fiberglass_Insulation_3_Cone_HF25Scan_220506_R2.csv
Names,Time,Stack TC,Smoke TC,Exh Press,Smoke Comp,Smoke Meas,CO Meter,CO2 Meter,O2 Meter,Sample Mass,Ext Coeff,Start Test,Flame Verif
Chan Gain,,500,500,1,1,1,1,1,1,1,1,1.0,1.0
Offset,,0,0,0.134207,0,0,0,0,0,0,0,0.0,0.0
Gain,,1,1,25.011,13.8443,15.4071,1,1,1,1.00079,1.02936,1.0,1.0
Units,sec,C,C,Pa,%,%,%,%,%,g,/m,,
Baseline,,19.0844,19.5815,144.07,104.905,104.934,0.000516916,0.0410834,21.0086,-444.227,-0.00252202,,
6,1.25,17.5112,17.9811,144.598,104.935,104.772,0.000410962,0.0457436,21.0031,446.052,0.0140532,0.0,0.0
12,2.75,17.3471,18.2809,145.5,104.906,104.654,0.000426351,0.0463302,21.002,446.192,0.0217213,0.0,0.0
18,4.25,17.3489,17.8523,141.804,104.878,104.136,0.000562606,0.0464548,21.0019,446.162,0.0640599,0.0,0.0
24,5.75,17.6568,18.0309,141.064,104.837,103.742,0.000896855,0.0487236,20.9914,446.082,0.0948013,0.0,0.0
30,7.25,17.8463,17.8874,136.991,104.812,106.509,0.00142796,0.0678029,20.9323,445.832,-0.144992,0.0,1.0
36,8.75,17.9821,18.432,127.958,104.833,105.212,0.00223331,0.103535,20.847,445.622,-0.0325609,0.0,1.0
42,10.25,19.1169,19.7912,130.329,104.912,97.1329,0.00299685,0.138611,20.7965,445.552,0.695609,0.0,1.0
48,11.75,20.5265,19.806,140.32,104.966,102.029,0.00363867,0.162803,20.7964,445.431,0.25626,0.0,1.0
54,13.25,21.1641,20.3939,139.103,105.045,105.501,0.00434738,0.166896,20.8192,445.431,-0.0391676,0.0,0.0
60,14.75,20.8541,20.6297,139.081,105.095,104.916,0.00501262,0.160495,20.843,445.381,0.0153578,0.0,0.0
66,16.25,20.5031,20.5061,144.046,105.134,104.916,0.00560965,0.149931,20.8735,445.371,0.0187689,0.0,0.0
72,17.75,20.5341,20.4264,144.62,105.199,105.875,0.00577892,0.139556,20.9021,445.371,-0.0578208,0.0,0.0
78,19.25,20.5402,20.3173,142.085,105.228,105.457,0.00558147,0.12602,20.9248,445.271,-0.0196316,0.0,0.0
84,20.75,19.9889,20.2483,144.597,105.249,105.239,0.00523005,0.114484,20.9415,445.251,0.000798649,0.0,0.0
90,22.25,19.6259,20.6907,142.065,105.299,105.316,0.00478793,0.1046,20.9554,445.321,-0.00138489,0.0,0.0
96,23.75,20.1033,20.3611,142.852,105.291,105.702,0.00436961,0.0959275,20.9666,445.381,-0.0351091,0.0,0.0
102,25.25,19.7261,20.5406,141.145,105.326,105.345,0.00395307,0.0885879,20.9747,445.261,-0.00167879,0.0,0.0
108,26.75,20.4515,20.5819,143.323,105.326,105.467,0.00346699,0.0824897,20.9793,445.291,-0.012034,0.0,0.0
114,28.25,19.037,19.7776,146.931,105.329,105.617,0.00299503,0.0771189,20.9826,445.221,-0.0245768,0.0,0.0
120,29.75,19.639,19.7073,143.272,105.318,105.285,0.00253026,0.0724132,20.987,445.291,0.00286491,0.0,0.0
126,31.25,19.7211,19.8288,145.296,105.31,105.091,0.00220251,0.068566,20.991,445.261,0.0188065,0.0,0.0
132,32.75,19.4286,19.8716,140.987,105.288,105.397,0.00199067,0.0650809,20.9939,445.301,-0.00933447,0.0,0.0
138,34.25,20.0123,19.2247,142.668,105.283,105.278,0.00184023,0.0620766,20.9962,445.321,0.000462838,0.0,0.0
144,35.75,19.4531,19.9493,143.847,105.238,104.88,0.00169959,0.0594864,20.9977,445.371,0.0307711,0.0,0.0
150,37.25,19.249,19.3871,143.582,105.208,105.139,0.00155289,0.0574857,21.0003,445.261,0.005915,0.0,0.0
156,38.75,18.9406,19.6296,142.262,105.171,104.956,0.00133394,0.0556209,21.0022,445.091,0.0184864,0.0,0.0
162,40.25,19.6951,19.8225,144.009,105.132,104.985,0.00109156,0.0540843,21.004,445.211,0.0126452,0.0,0.0
168,41.75,19.2028,19.5777,144.742,105.078,105.049,0.00091067,0.0528468,21.0053,445.281,0.00249259,0.0,0.0
174,43.25,19.6762,19.7338,143.891,105.023,104.546,0.000832544,0.0517247,21.0048,445.331,0.0411235,0.0,0.0
180,44.75,18.6888,19.8181,146.896,104.985,104.893,0.000812191,0.0508005,21.0046,445.231,0.00789298,0.0,0.0
186,46.25,18.4526,18.4587,141.101,104.939,104.557,0.000823362,0.0499822,21.0045,445.251,0.0329174,0.0,0.0
192,47.75,18.7017,19.2422,143.262,104.897,104.699,0.00083558,0.0493649,21.004,445.301,0.0171038,0.0,0.0
198,49.25,18.9931,19.9614,144.328,104.86,104.922,0.000786771,0.0488179,21.0051,445.111,-0.00537388,0.0,0.0
204,50.75,18.6478,19.0107,146.836,104.82,104.391,0.000735532,0.048356,21.0058,445.201,0.0370091,0.0,0.0
210,52.25,18.58,19.3542,140.051,104.792,104.687,0.000776673,0.0479389,21.0062,445.281,0.00902106,0.0,0.0
216,53.75,18.024,19.527,144.684,104.745,104.657,0.00085271,0.0474949,21.0064,445.291,0.00753485,0.0,0.0
222,55.25,19.0043,19.2154,143.216,104.707,104.513,0.00090966,0.0470207,21.0066,445.201,0.0167955,0.0,0.0
228,56.75,18.8373,19.5099,143.798,104.658,104.671,0.000885969,0.0465634,21.0068,445.181,-0.0011066,0.0,0.0
234,58.25,18.827,19.6392,142.887,104.6,104.391,0.000775966,0.0461817,21.0078,445.061,0.0180643,0.0,0.0
240,59.75,18.4656,19.4783,140.131,104.588,104.392,0.000558836,0.0458944,21.0084,445.071,0.0169986,0.0,0.0
246,61.25,18.4992,19.0337,140.012,104.538,104.295,0.000328716,0.0456703,21.0076,445.251,0.020961,0.0,0.0
252,62.75,18.9152,18.9486,141.818,104.508,104.145,0.000159335,0.0453661,21.0072,445.211,0.0314416,0.0,0.0
258,64.25,18.3968,19.0877,143.007,104.46,104.427,0.000203712,0.0451458,21.0069,445.141,0.00284984,0.0,0.0
264,65.75,19.1033,19.3431,141.995,104.444,104.235,0.000386077,0.0448694,21.0068,445.121,0.018104,0.0,0.0
270,67.25,18.8449,19.5417,141.992,104.4,104.193,0.000605818,0.0445563,21.0072,445.291,0.0179311,0.0,0.0
276,68.75,18.6263,18.9315,142.087,104.391,104.138,0.000769269,0.0442902,21.008,445.181,0.0218588,0.0,0.0
282,70.25,18.9681,18.6081,144.696,104.391,104.273,0.000861232,0.0440861,21.0085,445.101,0.0102028,0.0,0.0
288,71.75,18.5675,19.0291,142.861,104.397,104.41,0.000821179,0.0438618,21.0085,445.211,-0.00108938,0.0,0.0
294,73.25,17.8189,18.7865,145.764,104.397,104.393,0.000709045,0.0436949,21.0095,445.271,0.000337981,0.0,0.0
300,74.75,18.3702,18.8076,144.828,104.398,104.1,0.0005988,0.043473,21.01,445.151,0.0258599,0.0,0.0
306,76.25,18.2098,18.9053,139.475,104.394,104.171,0.000554317,0.0432266,21.0097,445.281,0.0193758,0.0,0.0
312,77.75,18.3543,19.402,143.405,104.408,104.059,0.000590046,0.043023,21.009,445.251,0.0302862,0.0,0.0
318,79.25,18.6487,19.256,140.645,104.413,104.147,0.000646788,0.0428288,21.0087,445.181,0.022984,0.0,0.0
324,80.75,18.8796,18.9631,144.097,104.424,104.3,0.000706606,0.0426993,21.0085,445.201,0.0107285,0.0,0.0
330,82.25,18.8243,18.9443,141.332,104.416,104.306,0.000785449,0.0427041,21.0084,445.271,0.00951354,0.0,0.0
336,83.75,19.1566,19.2826,142.04,104.42,104.594,0.000870933,0.0426243,21.0084,445.301,-0.0150783,0.0,0.0
342,85.25,18.3585,18.7368,143.755,104.427,104.181,0.000932206,0.0425039,21.0084,445.311,0.0212564,0.0,0.0
348,86.75,18.5326,19.2159,142.632,104.424,104.193,0.000944129,0.0424844,21.0083,445.231,0.0199805,0.0,0.0
354,88.25,18.1908,19.7275,145.72,104.433,104.255,0.00089696,0.0424465,21.0083,445.111,0.0153675,0.0,0.0
360,89.75,18.5386,19.231,142.156,104.443,104.288,0.000837868,0.0424152,21.0083,445.231,0.0133579,0.0,0.0
366,91.25,18.6573,19.2251,143.602,104.447,104.133,0.000771834,0.0423391,21.0083,445.201,0.0272025,0.0,0.0
372,92.75,18.1595,19.1344,143.011,104.449,104.314,0.000708074,0.0422052,21.0083,445.121,0.0117025,0.0,0.0
378,94.25,18.7983,19.2128,143.771,104.468,104.385,0.000686426,0.0420943,21.0078,445.131,0.00720251,0.0,0.0
384,95.75,18.3496,18.9858,144.839,104.471,104.158,0.000731652,0.0420505,21.0088,445.181,0.0270512,0.0,0.0
390,97.25,18.6442,19.0648,145.935,104.492,104.092,0.000768591,0.0419939,21.0093,445.171,0.0346622,0.0,0.0
396,98.75,18.4487,19.3188,141.15,104.495,104.205,0.00071443,0.0419762,21.0096,445.181,0.0250935,0.0,0.0
402,100.25,18.495,18.5755,142.766,104.512,104.179,0.000629747,0.0420728,21.0102,445.051,0.0287992,0.0,0.0
408,101.75,18.1533,18.3295,142.662,104.509,104.018,0.00054527,0.0420876,21.0105,445.101,0.0424874,0.0,0.0
414,103.25,18.1042,18.9791,146.846,104.531,104.235,0.000454258,0.0419815,21.0106,445.161,0.0255529,0.0,0.0
420,104.75,17.5288,18.2292,146.67,104.539,104.103,0.000370215,0.0418833,21.0107,445.181,0.0377358,0.0,0.0
426,106.25,18.3644,19.0448,142.446,104.561,104.367,0.000386925,0.0418117,21.0107,445.111,0.0167461,0.0,0.0
432,107.75,18.1186,18.708,142.92,104.574,104.301,0.000503421,0.0417106,21.0118,445.111,0.0235745,0.0,0.0
438,109.25,18.2361,18.6477,140.162,104.595,104.217,0.000605545,0.0416056,21.0124,445.151,0.0326472,0.0,0.0
444,110.75,18.0237,18.7573,143.357,104.6,104.308,0.000637802,0.0415744,21.0125,445.201,0.0251848,0.0,0.0
450,112.25,17.6771,17.905,149.092,104.634,104.204,0.000593517,0.0415573,21.0124,445.211,0.0372149,0.0,0.0
456,113.75,17.6388,18.5853,143.183,104.641,104.259,0.000504821,0.0416226,21.0123,445.281,0.0329968,0.0,0.0
462,115.25,17.7548,18.1545,147.777,104.659,104.455,0.000410424,0.0416302,21.0123,445.201,0.0176356,0.0,0.0
468,116.75,17.8227,18.4986,142.837,104.701,104.411,0.000333522,0.0415945,21.0123,445.241,0.0250238,0.0,0.0
474,118.25,18.4349,18.3939,143.301,104.719,104.321,0.000238161,0.0415756,21.0116,445.191,0.0343694,0.0,0.0
480,119.75,18.1805,19.0189,142.513,104.731,104.512,0.000192223,0.0415512,21.011,445.201,0.0188764,0.0,0.0
486,121.25,18.0523,19.0608,142.313,104.754,104.553,0.000203721,0.0414858,21.0102,445.221,0.0173466,0.0,0.0
492,122.75,17.693,18.9494,141.818,104.772,104.371,0.000252689,0.0414755,21.0092,445.201,0.0345635,0.0,0.0
498,124.25,18.1036,18.5184,143.123,104.792,104.307,,0.0414569,,445.211,0.0418896,0.0,0.0
504,125.75,17.8843,18.7229,142.694,104.828,104.335,,0.0414497,,444.991,0.0425785,0.0,0.0
510,127.25,18.007,18.3018,140.72,104.847,104.355,,,,445.061,0.0425431,0.0,0.0
516,128.75,18.7224,19.0124,142.675,104.877,104.494,,,,445.101,0.033015,0.0,0.0
522,130.25,17.675,18.7021,143.042,104.892,104.418,,,,445.151,0.0408717,0.0,0.0
528,131.75,18.3999,18.4302,145.621,104.921,104.664,,,,445.191,0.0221788,0.0,0.0
534,133.25,18.1702,19.3441,144.761,104.918,104.723,,,,445.131,0.0168138,0.0,0.0
540,134.75,17.7384,18.2809,140.398,104.959,104.745,,,,445.121,0.0183994,0.0,0.0
541,135,18.1275,18.6986,142.743,104.956,104.562,,,,445.141,0.033962,0.0,0.0