Folder: fsri_materials_database/01_Data/Fiberglass_Insulation_3/Cone (part 2)

File: Fiberglass_Insulation_3_Cone_HF50Scan_220509_R1.csv
Names,Time,Stack TC,Smoke TC,Exh Press,Smoke Comp,Smoke Meas,CO Meter,CO2 Meter,O2 Meter,Sample Mass,Ext Coeff,Start Test,Flame Verif
Chan Gain,,500,500,1,1,1,1,1,1,1,1,1.0,1.0
Offset,,0,0,0.134207,0,0,0,0,0,0,0,0.0,0.0
Gain,,1,1,25.011,13.8443,15.4071,1,1,1,1.00079,1.02936,1.0,1.0
Units,sec,C,C,Pa,%,%,%,%,%,g,/m,,
Baseline,,30.7676,31.8475,138.102,105.191,106.218,0.000533658,0.0415305,21.004,-445.528,-0.0876833,,
6,1.25,28.5902,29.832,139.139,104.114,104.572,0.00138587,0.0615895,20.9526,437.905,-0.0396201,0.0,0.0
12,2.75,28.7673,30.445,123.099,104.058,105.708,0.0025737,0.115397,20.8003,437.485,-0.142016,0.0,1.0
18,4.25,30.4173,30.4127,110.699,103.992,66.2401,0.00402619,0.196006,20.6869,437.295,4.07255,0.0,1.0
24,5.75,32.7684,32.4983,131.783,103.944,99.7462,0.00513112,0.248876,20.6285,437.165,0.372193,0.0,1.0
30,7.25,34.231,33.7365,134.586,103.887,105.813,0.00597042,0.265097,20.6379,437.175,-0.165792,0.0,1.0
36,8.75,34.1818,34.1818,130.987,103.846,105.73,0.00677158,0.256508,20.6939,437.125,-0.162327,0.0,1.0
42,10.25,34.6431,34.4575,133.802,103.792,105.752,0.00725271,0.234461,20.7383,437.065,-0.168921,0.0,0.0
48,11.75,34.363,35.4825,137.345,103.752,105.171,0.00788695,0.212689,20.7856,436.925,-0.122693,0.0,0.0
54,13.25,34.7358,35.1355,136.151,103.711,105.384,0.00824635,0.196419,20.8266,436.995,-0.144527,0.0,0.0
60,14.75,34.6137,35.2199,135.731,103.69,105.099,0.00826948,0.17603,20.8619,436.845,-0.12188,0.0,0.0
66,16.25,34.118,34.371,134.608,103.648,104.633,0.00801234,0.157608,20.8888,436.925,-0.0853653,0.0,0.0
72,17.75,33.6453,34.0257,139.59,103.62,104.992,0.00768271,0.141448,20.9091,436.875,-0.118778,0.0,0.0
78,19.25,34.1014,33.9426,136.659,103.598,104.552,0.0072125,0.128453,20.9252,436.885,-0.0827605,0.0,0.0
84,20.75,33.4694,34.4818,137.463,103.586,103.759,0.00669954,0.117474,20.9383,436.855,-0.0151085,0.0,0.0
90,22.25,33.1826,34.0229,137.158,103.583,104.038,0.00625125,0.107813,20.9481,436.815,-0.0395606,0.0,0.0
96,23.75,32.8369,33.8002,136.569,103.578,103.59,0.0058327,0.100556,20.9547,436.775,-0.0011066,0.0,0.0
102,25.25,32.8612,34.4012,141.352,103.552,104.309,0.00540146,0.0945881,20.9594,436.785,-0.0657248,0.0,0.0
108,26.75,33.1127,34.3651,135.424,103.58,104.913,0.00499703,0.0899432,20.9625,436.765,-0.115444,0.0,0.0
114,28.25,32.7079,34.1807,138.895,103.588,104.903,0.0046049,0.085876,20.9654,436.695,-0.113894,0.0,0.0
120,29.75,32.9156,33.7352,136.666,103.609,104.558,0.00427244,0.0817762,20.9687,436.735,-0.0823314,0.0,0.0
126,31.25,32.6316,33.1217,142.372,103.629,104.834,0.00404318,0.0786067,20.9712,436.614,-0.104331,0.0,0.0
132,32.75,31.7661,33.8198,138.184,103.671,104.746,0.00387324,0.0756512,20.9729,436.875,-0.093188,0.0,0.0
138,34.25,32.4521,33.4578,134.54,103.699,105.012,0.00371263,0.0727508,20.9767,436.735,-0.113635,0.0,0.0
144,35.75,32.2733,33.0844,137.741,103.721,104.692,0.00351924,0.0703948,20.9792,436.835,-0.0841114,0.0,0.0
150,37.25,31.7553,32.9833,136.722,103.773,105.083,0.00328825,0.0679231,20.9817,436.765,-0.113339,0.0,0.0
156,38.75,32.0197,33.6209,138.647,103.814,105.016,0.00298083,0.0660198,20.9839,436.755,-0.103957,0.0,0.0
162,40.25,32.1371,33.2482,138.855,103.863,105.316,0.00268122,0.0636712,20.9861,436.685,-0.125412,0.0,0.0
168,41.75,32.0675,32.8427,137.308,103.921,104.77,0.00240755,0.0617395,20.9882,436.704,-0.07346,0.0,0.0
174,43.25,31.2166,32.9099,137.651,103.97,105,0.00221567,0.0602225,20.99,436.715,-0.0889932,0.0,0.0
180,44.75,32.0169,33.5028,133.953,104.024,104.788,0.00204814,0.058612,20.9912,436.785,-0.0661206,0.0,0.0
186,46.25,31.5929,32.9025,137.906,104.082,105.295,0.0018904,0.0569955,20.9926,436.795,-0.104595,0.0,0.0
192,47.75,30.5953,32.9239,138.577,104.14,105.155,0.00173937,0.0556038,20.9934,436.755,-0.0875888,0.0,0.0
198,49.25,31.3993,32.358,137.855,104.188,105.847,0.00163858,0.0543962,20.9948,436.735,-0.14265,0.0,0.0
204,50.75,31.7389,33.1112,140.65,104.244,105.401,0.00158063,0.0531407,20.9956,436.835,-0.0996352,0.0,0.0
210,52.25,31.7712,32.6816,139.249,104.321,105.357,0.00151972,0.0521107,20.9961,436.725,-0.0892709,0.0,0.0
216,53.75,31.6732,33.0561,135.822,104.348,104.966,0.00141588,0.051117,20.9965,436.715,-0.0533782,0.0,0.0
222,55.25,31.082,32.5572,137.946,104.421,105.292,0.00134336,0.0502566,20.9977,436.715,-0.0750016,0.0,0.0
228,56.75,31.0761,31.8941,139.953,104.477,105.199,0.00130907,0.0494856,20.9984,436.704,-0.0621974,0.0,0.0
234,58.25,31.1815,32.4496,133.786,104.541,105.646,0.0012846,0.0488317,20.9989,436.664,-0.0949435,0.0,0.0
240,59.75,30.9486,32.2423,140.289,104.596,105.974,0.00125088,0.0482917,20.9992,436.654,-0.118171,0.0,0.0
246,61.25,30.6367,32.5295,140.51,104.666,105.265,0.00118346,0.0477356,21.0003,436.685,-0.051542,0.0,0.0
252,62.75,30.6441,32.5923,133.553,104.713,105.799,0.00111279,0.0471871,21.0017,436.685,-0.0931216,0.0,0.0
258,64.25,30.5021,32.3288,136.548,104.785,106.156,0.00106847,0.0466581,21.0028,436.695,-0.117376,0.0,0.0
264,65.75,30.7403,32.2625,136.512,104.841,105.815,0.00103108,0.0462139,21.0035,436.715,-0.0834943,0.0,0.0
270,67.25,30.5667,32.4187,135.809,104.896,106.153,0.000981558,0.0457907,21.0038,436.685,-0.107527,0.0,0.0
276,68.75,30.2744,31.9924,139.532,104.957,105.891,0.00094273,0.0454025,21.004,436.674,-0.0799827,0.0,0.0
282,70.25,31.3033,31.9321,139.046,105.007,106.255,0.000932535,0.0451515,21.0041,436.704,-0.106714,0.0,0.0
288,71.75,30.6144,32.1621,138.006,105.065,106.46,0.00094705,0.0448403,21.0041,436.634,-0.119106,0.0,0.0
294,73.25,30.2134,32.419,139.302,105.112,105.832,0.000922377,0.0447056,21.0041,436.664,-0.0616441,0.0,0.0
300,74.75,30.3404,31.9123,136.1,105.181,105.906,0.000859579,0.0444324,21.0041,436.715,-0.0620223,0.0,0.0
306,76.25,30.5124,31.8833,137.929,105.22,106.135,0.000777112,0.0440658,21.0042,436.685,-0.0781514,0.0,0.0
312,77.75,30.6761,32.1594,137.233,105.259,106.091,0.000730992,0.0438265,21.0042,436.654,-0.0710957,0.0,0.0
318,79.25,30.1324,31.6105,134.15,105.291,106.5,0.000729201,0.0436257,21.0044,436.644,-0.103166,0.0,0.0
324,80.75,30.5469,31.8082,136.091,105.344,106.882,0.00082046,0.0434255,21.0057,436.554,-0.130878,0.0,0.0
330,82.25,30.4906,32.1662,138.174,105.367,106.485,0.000869318,0.043319,21.0064,436.614,-0.09526,0.0,0.0
336,83.75,30.2173,31.8302,134.546,105.411,106.258,0.000842898,0.0431889,21.0067,436.584,-0.0723293,0.0,0.0
342,85.25,30.2736,31.7121,136.707,105.446,106.47,0.00078379,0.0429991,21.0069,436.624,-0.0873279,0.0,0.0
348,86.75,30.4085,31.8442,135.543,105.483,106.52,0.000753159,0.0428339,21.007,436.564,-0.0883339,0.0,0.0
354,88.25,30.2763,31.7092,132.014,105.506,106.422,0.000751202,0.0427038,21.0073,436.614,-0.0781232,0.0,0.0
360,89.75,30.2045,31.9316,137.958,105.542,106.39,0.00071799,0.0426076,21.0083,436.564,-0.0723369,0.0,0.0
366,91.25,29.9056,31.6224,133.96,105.549,106.365,0.00064075,0.0425658,21.0088,436.584,-0.0695677,0.0,0.0
372,92.75,30.1189,31.6645,136.948,105.581,106.441,0.000576513,0.0425876,21.0081,436.654,-0.0732489,0.0,0.0
378,94.25,30.1435,31.7339,136.739,105.576,106.562,0.000571763,0.0425459,21.0077,436.634,-0.083924,0.0,0.0
384,95.75,30.3055,31.8746,138.651,105.602,106.903,0.000613944,0.0424839,21.0074,436.614,-0.110562,0.0,0.0
390,97.25,30.6364,31.8287,136.688,105.607,106.906,0.000631608,0.042402,21.0075,436.564,-0.110371,0.0,0.0
396,98.75,30.0598,31.8726,137.956,105.602,106.701,0.000597096,0.0423542,21.0084,436.594,-0.0935056,0.0,0.0
402,100.25,30.2685,31.9248,136.547,105.601,106.972,0.000534332,0.0423732,21.0082,436.554,-0.116507,0.0,0.0
408,101.75,29.9769,30.9966,137.378,105.602,106.844,0.000467533,0.0423779,21.0077,436.604,-0.105593,0.0,0.0
414,103.25,30.3702,31.7335,138.222,105.59,106.353,0.000436711,0.042335,21.0066,436.664,-0.0649887,0.0,0.0
420,104.75,30.3045,32.0779,136.278,105.588,107.15,0.000472095,0.0423384,21.0058,436.554,-0.132656,0.0,0.0
426,106.25,29.8177,31.3727,140.934,105.579,107.127,0.000569347,0.0422066,21.0053,436.614,-0.131437,0.0,0.0
432,107.75,30.225,31.7581,140.969,105.554,106.845,0.00067055,0.0421856,21.0051,436.604,-0.109759,0.0,0.0
438,109.25,29.7149,31.5067,138.535,105.539,107.2,0.000716557,0.0421317,21.005,436.584,-0.140975,0.0,0.0
444,110.75,30.5549,31.5519,140.858,105.512,106.495,0.000682894,0.0420247,21.0049,436.554,-0.0836866,0.0,0.0
450,112.25,30.0503,30.9741,137.233,105.492,107.04,0.000545764,0.0419887,21.0049,436.715,-0.131549,0.0,0.0
456,113.75,29.9954,31.4407,141.153,105.447,106.378,0.000419373,0.0419013,21.0048,436.664,-0.0793605,0.0,0.0
462,115.25,29.8921,31.8387,137.033,105.429,106.489,0.000340255,0.0419075,21.0048,436.614,-0.090333,0.0,0.0
468,116.75,29.8283,31.7827,133.572,105.4,105.882,0.00033638,0.0418127,21.0048,436.634,-0.0412133,0.0,0.0
474,118.25,29.8354,31.5734,139.677,105.365,106.225,0.000409385,0.0417922,21.0048,436.685,-0.0734378,0.0,0.0
480,119.75,30.3234,31.3868,135.921,105.318,106.225,0.000508505,0.0418161,21.0048,436.654,-0.0774212,0.0,0.0
486,121.25,30.2857,31.2712,138.653,105.306,106.184,0.000603364,0.0418872,21.0048,436.574,-0.0749175,0.0,0.0
492,122.75,30.5264,32.0338,138.935,105.261,105.814,0.000666696,0.0419063,21.0048,436.624,-0.0473167,0.0,0.0
498,124.25,29.9675,31.7925,138.883,105.215,106.112,,0.041838,,436.594,-0.076663,0.0,0.0
504,125.75,29.7772,31.6655,141.421,105.177,106.492,,0.0417817,,436.564,-0.112164,0.0,0.0
510,127.25,30.3052,31.4243,137.306,105.136,106.295,,,,436.544,-0.0990034,0.0,0.0
516,128.75,30.2569,31.1237,138.344,105.092,106.265,,,,436.634,-0.100217,0.0,0.0
522,130.25,29.6596,31.7204,133.933,105.058,106.1,,,,436.644,-0.0890883,0.0,0.0
528,131.75,29.7052,31.9315,138.811,105.008,106.211,,,,436.644,-0.102812,0.0,0.0
534,133.25,29.9394,31.2734,139.096,104.987,106.335,,,,436.614,-0.115176,0.0,0.0
538,134.25,30.3242,31.5363,137.998,104.97,105.653,,,,436.654,-0.0585862,0.0,0.0

File: Fiberglass_Insulation_3_Cone_HF50Scan_220509_R2.csv
Names,Time,Stack TC,Smoke TC,Exh Press,Smoke Comp,Smoke Meas,CO Meter,CO2 Meter,O2 Meter,Sample Mass,Ext Coeff,Start Test,Flame Verif
Chan Gain,,500,500,1,1,1,1,1,1,1,1,1.0,1.0
Offset,,0,0,0.134207,0,0,0,0,0,0,0,0.0,0.0
Gain,,1,1,25.011,13.8443,15.4071,1,1,1,1.00079,1.02936,1.0,1.0
Units,sec,C,C,Pa,%,%,%,%,%,g,/m,,
Baseline,,30.767,31.7979,138.242,104.274,104.714,0.000334689,0.0405911,21.0062,-445.67,-0.0379937,,
6,1.25,28.1142,29.4847,141.898,105.61,104.912,0.0014423,0.0641705,20.9587,445.501,0.0598586,0.0,0.0
12,2.75,28.1955,29.7859,109.751,105.583,104.017,0.00234744,0.127481,20.8412,445.301,0.134963,0.0,1.0
18,4.25,30.6061,30.8903,119.625,105.591,89.01,0.00356574,0.193334,20.7618,445.201,1.54242,0.0,1.0
24,5.75,32.3534,32.0592,131.751,105.583,106.516,0.00474206,0.220859,20.7331,445.061,-0.0794039,0.0,1.0
30,7.25,32.4291,32.6751,134.745,105.572,107.017,0.00571674,0.223025,20.7541,445.051,-0.122773,0.0,1.0
36,8.75,34.4315,33.3061,137.981,105.569,106.208,0.00675728,0.207533,20.7924,445.011,-0.0545276,0.0,0.0
42,10.25,33.4769,33.294,132.785,105.554,106.386,0.00737649,0.187697,20.8311,445.021,-0.0709302,0.0,0.0
48,11.75,32.8429,32.9538,139.884,105.533,106.671,0.0075338,0.168202,20.8622,444.971,-0.096813,0.0,0.0
54,13.25,32.8237,33.2374,134.56,105.529,105.987,0.00741841,0.148829,20.8906,444.911,-0.0391179,0.0,0.0
60,14.75,32.5964,32.9922,137.515,105.504,106.321,0.00719923,0.135562,20.9114,444.851,-0.0696469,0.0,0.0
66,16.25,32.3078,33.0096,135.156,105.471,106.39,0.00667031,0.122561,20.9283,444.901,-0.0783001,0.0,0.0
72,17.75,32.5795,32.9648,138.832,105.452,106.362,0.00605787,0.11197,20.9408,444.941,-0.0776047,0.0,0.0
78,19.25,32.2149,32.3649,137.695,105.411,106.134,0.00540936,0.102769,20.9521,444.861,-0.0617389,0.0,0.0
84,20.75,32.1931,32.8276,135.446,105.385,106.229,0.00480618,0.095119,20.9623,444.861,-0.0720195,0.0,0.0
90,22.25,32.2259,32.7854,132.84,105.349,105.768,0.00434108,0.0881438,20.9699,444.861,-0.035845,0.0,0.0
96,23.75,31.6662,32.2078,138.355,105.342,106.27,0.00387907,0.0825148,20.9753,444.841,-0.0791894,0.0,0.0
102,25.25,31.8606,32.8941,137.129,105.286,105.926,0.00341811,0.0776619,20.9807,444.821,-0.0547556,0.0,0.0
108,26.75,31.2182,32.5568,136.771,105.248,105.671,0.00301602,0.0733659,20.9848,444.821,-0.0362314,0.0,0.0
114,28.25,31.4411,32.3188,139.027,105.222,105.643,0.00269459,0.069384,20.9884,444.801,-0.0360682,0.0,0.0
120,29.75,31.7916,31.9717,138.065,105.188,106.094,0.00250605,0.0659672,20.9901,444.781,-0.0774272,0.0,0.0
126,31.25,31.4401,32.2909,136.247,105.143,106.1,0.00238353,0.063144,20.9916,444.761,-0.0817927,0.0,0.0
132,32.75,31.3728,32.3977,137.865,105.127,105.536,0.00222505,0.0608081,20.9938,444.801,-0.0351021,0.0,0.0
138,34.25,31.3698,32.5297,135.337,105.082,105.346,0.00197867,0.0588032,20.9955,444.781,-0.0226062,0.0,0.0
144,35.75,30.7789,32.1523,136.426,105.057,106.042,0.00169808,0.0570493,20.9971,444.811,-0.0841973,0.0,0.0
150,37.25,31.2639,32.3474,142.143,105.022,105.372,0.00143262,0.0555964,20.9979,444.761,-0.0299789,0.0,0.0
156,38.75,31.3431,32.4819,137.623,104.991,105.537,0.00126759,0.054282,20.9988,444.721,-0.0468746,0.0,0.0
162,40.25,30.7179,32.2698,140.386,104.945,105.459,0.00124122,0.0532405,20.9996,444.721,-0.044156,0.0,0.0
168,41.75,31.0715,32.0096,138.861,104.93,105.76,0.00125008,0.0520868,21,444.741,-0.0711608,0.0,0.0
174,43.25,30.2898,32.1261,135.117,104.873,105.777,0.00123014,0.0512623,21.0003,444.681,-0.0775515,0.0,0.0
180,44.75,30.4605,32.214,134.914,104.865,105.577,0.00115715,0.0505213,21.0004,444.691,-0.0610513,0.0,0.0
186,46.25,30.8273,31.8811,143.311,104.829,105.366,0.00108039,0.0497983,21.0015,444.701,-0.0461113,0.0,0.0
192,47.75,31.007,32.0968,134.769,104.813,105.312,0.00103197,0.0492243,21.0021,444.701,-0.0428992,0.0,0.0
198,49.25,30.7912,31.7642,134.933,104.785,105.226,0.00102076,0.0487055,21.0024,444.711,-0.0379175,0.0,0.0
204,50.75,30.7078,32.1116,133.714,104.752,105.129,0.00107827,0.0482557,21.0026,444.681,-0.0324469,0.0,0.0
210,52.25,30.4302,31.7863,140.522,104.738,105.72,0.00114916,0.047862,21.0027,444.711,-0.0842608,0.0,0.0
216,53.75,30.6907,31.6263,137.769,104.711,105.306,0.00120012,0.047559,21.0027,444.691,-0.0511474,0.0,0.0
222,55.25,30.8905,31.7133,135.706,104.734,105.371,0.00121327,0.0472614,21.0028,444.711,-0.0547826,0.0,0.0
228,56.75,30.4608,31.395,135.473,104.811,105.704,0.00118889,0.0469225,21.0028,444.721,-0.0766401,0.0,0.0
234,58.25,30.4616,31.471,136.696,104.877,105.28,0.00113456,0.0466335,21.0028,444.741,-0.0346996,0.0,0.0
240,59.75,30.5717,31.8885,136.018,104.924,105.222,0.00108423,0.0464108,21.0028,444.711,-0.0256249,0.0,0.0
246,61.25,30.0376,31.4691,137.245,104.98,105.479,0.00105621,0.0462696,21.0028,444.681,-0.0427975,0.0,0.0
252,62.75,29.9477,32.0531,139.17,105.017,105.238,0.0010185,0.0460612,21.0026,444.691,-0.018924,0.0,0.0
258,64.25,29.9716,31.8954,136.425,105.073,105.333,0.000951185,0.0458077,21.0026,444.671,-0.0223564,0.0,0.0
264,65.75,30.5545,31.996,137.065,105.106,105.692,0.000902937,0.0455392,21.0033,444.601,-0.0501499,0.0,0.0
270,67.25,30.0204,31.2988,139.412,105.138,105.418,0.000903929,0.0453381,21.004,444.631,-0.0239789,0.0,0.0
276,68.75,30.7997,31.618,138.282,105.162,106.024,0.000912376,0.0451778,21.0044,444.701,-0.0737156,0.0,0.0
282,70.25,30.4428,31.847,144.05,105.208,105.693,0.000924411,0.0450283,21.0045,444.641,-0.0414874,0.0,0.0
288,71.75,30.1919,31.5779,144.167,105.221,105.939,0.000880627,0.0448992,21.0047,444.691,-0.0613872,0.0,0.0
294,73.25,30.1967,31.4103,135.246,105.239,105.916,0.00084496,0.0447517,21.0047,444.601,-0.0578598,0.0,0.0
300,74.75,30.4935,31.4398,139.846,105.245,105.531,0.000834392,0.0446205,21.0047,444.591,-0.024545,0.0,0.0
306,76.25,30.0723,31.2982,142.524,105.269,105.43,0.000860205,0.0444647,21.0047,444.601,-0.0138212,0.0,0.0
312,77.75,30.3108,31.3007,136.586,105.269,105.957,0.000884296,0.0442726,21.0048,444.621,-0.0587774,0.0,0.0
318,79.25,29.5837,31.6942,135.024,105.294,105.938,0.000845109,0.0442441,21.0048,444.631,-0.0550734,0.0,0.0
324,80.75,29.8175,31.5449,135.078,105.283,105.839,0.000771837,0.0441816,21.0048,444.651,-0.0476315,0.0,0.0
330,82.25,29.9502,31.8835,139.986,105.275,106.334,0.000732753,0.044095,21.0048,444.631,-0.0903445,0.0,0.0
336,83.75,30.0909,31.1063,136.938,105.27,105.967,0.000736566,0.0439601,21.0048,444.621,-0.0596231,0.0,0.0
342,85.25,30.0501,31.7099,135.853,105.253,105.846,0.000777778,0.0437979,21.0052,444.591,-0.0508059,0.0,0.0
348,86.75,30.3415,31.8149,134.247,105.239,106.384,0.000852803,0.0436507,21.0061,444.651,-0.0977324,0.0,0.0
354,88.25,30.303,31.6263,138.108,105.226,105.912,0.000865641,0.0436728,21.0065,444.651,-0.0586675,0.0,0.0
360,89.75,30.0384,31.7192,137.92,105.199,106.207,0.000819892,0.0436265,21.0068,444.621,-0.0860472,0.0,0.0
366,91.25,30.4339,31.3847,136.955,105.155,105.834,0.000767813,0.0435083,21.0073,444.641,-0.0581036,0.0,0.0
372,92.75,30.4046,31.1287,134.174,105.138,105.417,0.000786745,0.0434505,21.0076,444.601,-0.0239384,0.0,0.0
378,94.25,30.3777,31.3796,136.24,105.09,105.294,0.000808372,0.043401,21.0077,444.681,-0.0175224,0.0,0.0
384,95.75,30.3506,32.0429,137.622,105.051,106.071,0.000769737,0.0434521,21.0078,444.581,-0.0872285,0.0,0.0
390,97.25,30.1938,31.7364,139.731,105.017,105.873,0.00068458,0.0435356,21.0079,444.591,-0.0732999,0.0,0.0
396,98.75,30.3001,31.8933,139.278,104.961,106.327,0.000612166,0.0435554,21.0079,444.611,-0.11671,0.0,0.0
402,100.25,30.61,31.5592,137.856,104.917,105.947,0.000565365,0.0435571,21.0079,444.631,-0.0882469,0.0,0.0
408,101.75,30.0652,31.5116,137.726,104.864,105.27,0.000547376,0.0435173,21.0075,444.601,-0.0349076,0.0,0.0
414,103.25,30.249,31.3814,138.394,104.808,105.764,0.000555933,0.0434355,21.0073,444.611,-0.0820311,0.0,0.0
420,104.75,30.1201,31.5949,136.077,104.769,105.376,0.000614286,0.0434204,21.0072,444.601,-0.0522029,0.0,0.0
426,106.25,30.4883,31.3655,137.919,104.681,105.478,0.000708264,0.0432956,21.0071,444.601,-0.0684776,0.0,0.0
432,107.75,30.6575,31.8572,135.873,104.624,104.786,0.000752749,0.0431497,21.007,444.611,-0.0139188,0.0,0.0
438,109.25,30.5819,31.6211,138.026,104.544,105.214,0.000742864,0.0430477,21.0062,444.541,-0.057648,0.0,0.0
444,110.75,30.3069,31.2651,141.785,104.475,105.034,0.000723979,0.0430091,21.0051,444.561,-0.0481666,0.0,0.0
450,112.25,30.2859,31.4303,135.455,104.381,104.867,0.000731928,0.0430282,21.0044,444.561,-0.0419524,0.0,0.0
456,113.75,30.4019,31.5929,139.128,104.391,105.318,0.000755793,0.0430004,21.0041,444.571,-0.0798573,0.0,0.0
462,115.25,30.5767,31.4328,139.436,104.367,105.036,0.000749218,0.0429015,21.004,444.571,-0.0576437,0.0,0.0
468,116.75,30.0011,31.3065,138.678,104.386,105.302,0.000693282,0.0429136,21.0041,444.581,-0.0788452,0.0,0.0
474,118.25,30.237,31.4008,138.268,104.383,104.871,0.000600319,0.0428663,21.0044,444.561,-0.0421335,0.0,0.0
480,119.75,30.5828,31.4643,137.515,104.402,105.529,,0.0428213,,444.521,-0.0969855,0.0,0.0
486,121.25,30.3325,31.5999,134.841,104.394,105.381,,0.0428643,,444.551,-0.0849209,0.0,0.0
492,122.75,30.2985,31.6456,137.865,104.419,105.057,,,,444.591,-0.0550009,0.0,0.0
498,124.25,30.704,31.7281,136.025,104.442,104.777,,,,444.561,-0.0289184,0.0,0.0
504,125.75,30.1628,31.917,137.491,104.446,104.756,,,,444.591,-0.0266893,0.0,0.0
510,127.25,30.6204,31.2918,139.535,104.459,105.581,,,,444.601,-0.0965187,0.0,0.0
516,128.75,30.315,31.338,132.857,104.471,105.088,,,,444.591,-0.0531789,0.0,0.0
522,130.25,30.104,31.2202,145.242,104.506,105.113,,,,444.591,-0.05229,0.0,0.0
523,130.5,30.6376,31.4155,141.697,104.495,104.737,,,,444.591,-0.0209052,0.0,0.0

File: Fiberglass_Insulation_3_Cone_HF75Scalar_220509_R2.csv
LABORATORY,FSRI
TEST IDENT,Insulation3_HF75_2
OPERATOR,Dow
MATERIAL,fiberglass insulation 3 (saint gobain)
ORIENTATION,Horizontal
HEAT FLUX,75
SURF AREA,0.01
C FACTOR,0.042088
SPEC HOLDER DIFF,-566
SPECIMEN MASS,6.58
SCAN TIME,0.25
O2 DELAY TIME,11
CO DELAY TIME,11
CO2 DELAY TIME,8
FLOW FACTOR,1
SCAN COUNT,515
TIME TO IGN,1.5
END OF TEST SCAN,35
END OF TEST TIME,8.75
TEST STATUS,1
PRE TEST CMT,Dimensions: 103 x 102 x 50 mm; with frame compressed to about 40 mm