Folder: fsri_materials_database/01_Data/Vinyl_Siding/Cone (part 5)

File: Vinyl_Siding_Cone_HF75Scan_220331_R3.csv
Names,Time,Stack TC,Smoke TC,Exh Press,Smoke Comp,Smoke Meas,CO Meter,CO2 Meter,O2 Meter,Sample Mass,Ext Coeff,Start Test,Flame Verif
Chan Gain,,500,500,1,1,1,1,1,1,1,1,1.0,1.0
Offset,,0,0,0.133521,0,0,0,0,0,0,0,0.0,0.0
Gain,,1,1,25.011,13.1585,13.8929,1,1,1,1.00096,1.01488,1.0,1.0
Units,sec,C,C,Pa,%,%,%,%,%,g,/m,,
Baseline,,42.9029,44.8516,138.486,99.4429,96.8056,0.000335099,0.065052,21.0335,-835.83,0.239375,,
9,2,40.8864,42.5636,137.17,99.2406,96.3843,0.000674621,0.0694712,21.0282,205.478,0.259984,0.0,0.0
18,4.25,40.5923,43.0298,138.248,99.2607,96.3207,0.000732059,0.0694651,21.0286,205.588,0.26766,0.0,0.0
27,6.5,40.9922,42.4701,139.569,99.2872,96.4225,0.00083115,0.0693257,21.0287,205.558,0.260637,0.0,0.0
36,8.75,41.3908,42.4235,136.512,99.3061,86.2788,0.00111578,0.0696647,21.0258,205.388,1.25189,0.0,0.0
45,11,41.3846,42.9511,135.662,99.3113,64.3252,0.00185182,0.0732501,21.0212,204.857,3.86641,0.0,0.0
54,13.25,41.7663,43.5954,135.551,99.3205,46.6173,0.0035339,0.0802758,21.0202,204.167,6.73366,0.0,0.0
63,15.5,41.5405,43.8603,124.394,99.3426,57.8426,0.0118513,0.0994563,21.0019,203.556,4.8149,0.0,0.0
72,17.75,42.4781,44.5602,120.932,99.3522,39.349,0.0307425,0.19284,20.7944,202.805,8.24547,0.0,1.0
81,20,44.1441,46.4118,121.604,99.3571,30.0151,0.0487246,0.327231,20.547,202.125,10.6564,0.0,1.0
90,22.25,45.3554,48.0926,124.294,99.3695,34.6624,0.0573388,0.404174,20.4338,201.474,9.376,0.0,1.0
99,24.5,47.7232,50.6553,121.752,99.3719,38.036,0.0574572,0.425374,20.4087,200.954,8.54938,0.0,0.0
108,26.75,49.3438,52.072,123.995,99.3828,48.2556,0.0535534,0.421747,20.4261,200.453,6.43175,0.0,0.0
117,29,50.2209,53.1334,124.248,99.3836,63.1465,0.0485469,0.411538,20.4504,200.063,4.03753,0.0,0.0
126,31.25,51.5682,54.6686,126.317,99.4064,67.5504,0.0440983,0.398488,20.4836,199.642,3.43941,0.0,0.0
135,33.5,52.9244,56.183,130.375,99.4153,66.1199,0.0408583,0.382713,20.522,199.282,3.63075,0.0,0.0
144,35.75,53.6269,56.9887,122.751,99.4269,62.5822,0.038813,0.362833,20.5489,198.902,4.12133,0.0,0.0
153,38,54.2222,57.7052,126.72,99.4566,61.2675,0.0371915,0.345646,20.5765,198.551,4.31301,0.0,0.0
162,40.25,55.0135,59.0012,128.527,99.4731,57.8243,0.0354559,0.321877,20.6158,198.221,4.82939,0.0,0.0
171,42.5,55.4464,59.2215,130.349,99.4711,56.9692,0.0336222,0.297611,20.6498,197.931,4.96186,0.0,0.0
180,44.75,55.9691,59.7713,130.522,99.4771,58.5688,0.0316076,0.278485,20.6771,197.61,4.71586,0.0,0.0
189,47,56.081,59.7638,128.457,99.4928,56.0262,0.0295753,0.26322,20.7021,197.39,5.11238,0.0,0.0
198,49.25,56.4426,60.4113,131.275,99.5165,56.4858,0.0276604,0.251758,20.7171,197.14,5.04177,0.0,0.0
207,51.5,56.7135,60.6055,129.992,99.5225,57.7972,0.0257268,0.242911,20.7301,196.94,4.83799,0.0,0.0
216,53.75,56.4828,60.6588,128.953,99.5394,59.2328,0.0237726,0.235643,20.743,196.72,4.62108,0.0,0.0
225,56,57.2469,60.9397,127.929,99.5739,64.1162,0.0217998,0.228202,20.7572,196.559,3.9189,0.0,0.0
234,58.25,57.1221,61.1459,127.158,99.588,67.6929,0.0198293,0.220926,20.7699,196.419,3.4369,0.0,0.0
243,60.5,56.911,61.1057,132.438,99.6096,69.3027,0.0178285,0.212093,20.7837,196.279,3.2296,0.0,0.0
252,62.75,57.3155,61.22,131.835,99.61,71.4497,0.0161805,0.203558,20.7979,196.119,2.95802,0.0,0.0
261,65,57.0538,61.2615,130.458,99.6341,73.0278,0.0146831,0.197121,20.8096,196.029,2.76569,0.0,0.0
270,67.25,56.6098,60.9197,135.703,99.6422,73.6578,0.013302,0.192477,20.8198,195.889,2.68993,0.0,0.0
279,69.5,56.4318,60.9669,130.966,99.6514,76.0613,0.0121191,0.18957,20.8252,195.799,2.4049,0.0,0.0
288,71.75,56.2949,60.3025,132.323,99.6723,78.1541,0.0108131,0.187704,20.8282,195.699,2.16513,0.0,0.0
297,74,56.3948,60.3918,129.86,99.6767,80.6755,0.00955145,0.185786,20.8342,195.618,1.88285,0.0,0.0
306,76.25,56.4296,60.2148,132.491,99.688,83.8609,0.00855366,0.182844,20.8425,195.558,1.53911,0.0,0.0
315,78.5,56.0041,60.0151,133.372,99.6988,87.3421,0.0076182,0.178064,20.8549,195.498,1.17798,0.0,0.0
324,80.75,55.841,60.0302,128.846,99.7213,88.8129,0.0068925,0.170599,20.8714,195.428,1.03132,0.0,0.0
333,83,55.3655,59.3674,133.172,99.7237,91.2542,0.00650988,0.162246,20.8837,195.378,0.790131,0.0,0.0
342,85.25,54.6249,59.3797,131.056,99.7389,94.7266,0.00627076,0.154483,20.8971,195.348,0.459026,0.0,0.0
351,87.5,54.987,58.8117,137.624,99.753,94.9106,0.00618274,0.145832,20.9153,195.318,0.443003,0.0,0.0
360,89.75,54.9977,58.9622,137.544,99.7586,95.7484,0.00638128,0.137774,20.93,195.288,0.365267,0.0,0.0
369,92,54.3242,58.3061,132.731,99.7654,97.8433,0.00680985,0.130033,20.9409,195.268,0.173199,0.0,0.0
378,94.25,53.8291,58.3374,135.641,99.7819,96.2584,0.00715186,0.123444,20.9517,195.228,0.320048,0.0,0.0
387,96.5,53.462,57.5046,138.577,99.8028,96.6964,0.00736361,0.118697,20.9608,195.228,0.281497,0.0,0.0
396,98.75,52.7306,56.5795,137.534,99.7928,96.8982,0.00758154,0.115607,20.9647,195.158,0.262041,0.0,0.0
405,101,52.2149,56.274,135.486,99.796,97.4239,0.00768725,0.113842,20.9663,195.158,0.214157,0.0,0.0
414,103.25,52.2125,55.7074,135.551,99.81,97.5533,0.00776054,0.113312,20.9669,195.118,0.203602,0.0,0.0
423,105.5,51.8558,55.4456,134.883,99.8156,97.0538,0.00787588,0.113083,20.9664,195.108,0.249798,0.0,0.0
432,107.75,51.5072,54.5995,134.445,99.8253,96.8376,0.00806898,0.112647,20.9654,195.038,0.270514,0.0,0.0
441,110,51.3404,54.4993,136.189,99.8289,96.6392,0.00830357,0.111681,20.9666,195.028,0.289097,0.0,0.0
450,112.25,50.8744,54.8774,138.876,99.8337,96.8439,0.0084924,0.110729,20.9684,195.018,0.270682,0.0,0.0
459,114.5,50.5195,54.6295,133.249,99.8466,96.9478,0.00843398,0.109696,20.9705,194.938,0.262284,0.0,0.0
468,116.75,50.2389,53.894,135.806,99.8361,96.8198,0.0081566,0.108954,20.9721,194.938,0.273119,0.0,0.0
477,119,49.7622,53.0992,134.477,99.8502,97.3141,0.00785984,0.108359,20.974,194.918,0.229031,0.0,0.0
486,121.25,50.2269,53.2731,133.287,99.8438,97.4646,0.00769465,0.10747,20.9749,194.878,0.214701,0.0,0.0
495,123.5,50.0096,53.5532,133.442,99.8426,96.5874,0.00760636,0.106707,20.9753,194.888,0.29508,0.0,0.0
504,125.75,49.7607,52.759,139.547,99.8421,97.178,0.00756874,0.106022,20.9768,194.838,0.240774,0.0,0.0
513,128,49.3306,52.6987,134.343,99.865,96.4051,0.00754944,0.105604,20.9778,194.828,0.313905,0.0,0.0
522,130.25,49.524,52.7573,139.277,99.845,96.5747,0.00738994,0.105358,20.9793,194.788,0.296468,0.0,0.0
531,132.5,48.6477,52.0866,137.113,99.8474,96.6163,0.00718183,0.104948,20.9809,194.758,0.292853,0.0,0.0
540,134.75,48.9129,52.208,133.838,99.8546,96.8791,0.0069872,0.104516,20.9815,194.798,0.269309,0.0,0.0
549,137,48.5978,52.3365,137.521,99.8586,97.2582,0.00687023,0.10416,20.9818,194.748,0.234904,0.0,0.0
558,139.25,48.6198,52.004,137.911,99.8434,97.599,0.00683074,0.10368,20.9819,194.748,0.202396,0.0,0.0
567,141.5,48.2965,51.8128,138.576,99.853,97.5931,0.00649662,0.103218,20.9819,194.708,0.203797,0.0,0.0
576,143.75,48.3162,51.6893,138.471,99.8562,96.679,0.00601903,0.10306,20.9825,194.708,0.28786,0.0,0.0
585,146,48.1453,51.3166,136.834,99.8614,96.4908,0.00573294,0.102899,20.9822,194.648,0.305677,0.0,0.0
594,148.25,48.0424,51.3645,133.869,99.8442,97.8738,0.00567506,0.10272,20.982,194.628,0.177443,0.0,0.0
603,150.5,47.4717,50.7219,135.438,99.8542,97.1458,0.00553016,0.102527,20.982,194.607,0.244801,0.0,0.0
612,152.75,47.9302,51.1166,135.281,99.8711,97.0937,0.00530424,0.102119,20.9816,194.567,0.251085,0.0,0.0
621,155,48.3814,50.6969,135.45,99.8562,97.0945,0.00515248,0.101682,20.9829,194.567,0.249682,0.0,0.0
630,157.25,47.4935,50.604,141.694,99.8618,97.7203,0.00497018,0.101242,20.9845,194.547,0.192989,0.0,0.0
639,159.5,47.9217,50.931,139.522,99.8574,97.5761,0.00467581,0.100825,20.9852,194.517,0.205737,0.0,0.0
648,161.75,47.3588,50.381,137.013,99.8478,96.8414,0.00432783,0.100352,20.9854,194.487,0.272169,0.0,0.0
657,164,47.8401,50.2629,133.542,99.8462,96.626,0.00407924,0.0999094,20.9855,194.457,0.291847,0.0,0.0
666,166.25,47.299,50.6583,133.743,99.847,97.4163,0.00394711,0.099723,20.9866,194.457,0.219403,0.0,0.0
675,168.5,46.9663,50.316,139.81,99.8506,96.9211,0.00384873,0.0993739,20.9869,194.427,0.265094,0.0,0.0
684,170.75,46.9055,50.038,139.662,99.8257,96.8537,0.0037254,0.0991111,20.987,194.397,0.269069,0.0,0.0
693,173,46.9067,49.7687,137.109,99.8349,96.6934,0.00359137,0.0989456,20.9871,194.387,0.284636,0.0,0.0
702,175.25,46.5082,49.881,137.354,99.8281,97.2857,0.00345208,0.0992708,20.9871,194.377,0.229661,0.0,0.0
711,177.5,46.4578,49.7997,132.033,99.8373,97.0288,0.00329629,0.100082,20.9878,194.327,0.254028,0.0,0.0
720,179.75,46.6765,49.7488,135.06,99.8197,97.4184,0.00301146,0.100563,20.9882,194.317,0.216773,0.0,0.0
729,182,46.8376,49.858,136.718,99.8225,96.5789,0.00284244,0.100259,20.9884,194.277,0.294071,0.0,0.0
738,184.25,46.4217,48.9114,135.319,99.8185,97.0852,0.00275776,0.0999649,20.9889,194.297,0.247172,0.0,0.0
747,186.5,46.0871,48.981,138.028,99.8048,96.4988,0.00265895,0.0997427,20.9901,194.267,0.299885,0.0,0.0
756,188.75,46.5986,49.2335,137.56,99.8112,96.9512,0.00258952,0.0991886,20.9905,194.247,0.258821,0.0,0.0
765,191,46.6716,49.7175,137.609,99.796,96.835,0.00255654,0.098833,20.9907,194.237,0.268134,0.0,0.0
774,193.25,46.6204,49.3204,136.092,99.7968,97.0911,0.00252622,0.0984162,20.9922,194.207,0.244693,0.0,0.0
783,195.5,46.868,49.3058,138.057,99.7787,96.7299,0.00241437,0.0982445,20.9928,194.187,0.276265,0.0,0.0
792,197.75,46.5902,49.2178,137.26,99.7642,96.5925,0.00219411,0.098575,20.993,194.187,0.287627,0.0,0.0
801,200,46.9302,49.18,133.651,99.7654,97.1301,0.00195281,0.0987409,20.9927,194.187,0.238323,0.0,0.0
810,202.25,46.7889,48.8422,138.207,99.7574,96.6553,0.00190387,0.0984128,20.9925,194.147,0.281235,0.0,0.0
819,204.5,46.5497,49.1123,136.989,99.7317,97.1505,0.00201565,0.0980454,20.9924,194.127,0.233447,0.0,0.0
828,206.75,45.9822,49.2307,136.385,99.7265,97.7436,,0.0982643,,194.117,0.178793,0.0,0.0
837,209,46.5193,48.9946,134.759,99.7209,96.9338,,,,194.097,0.252355,0.0,0.0
846,211.25,45.9623,48.764,135.416,99.6948,96.9771,,,,194.057,0.246054,0.0,0.0
855,213.5,45.7269,48.967,133.113,99.6815,96.9542,,,,194.057,0.246973,0.0,0.0
864,215.75,46.189,48.8852,134.628,99.6691,97.3616,,,,194.007,0.208527,0.0,0.0
865,216,46.0582,49.2133,138.694,99.6643,97.0008,,,,193.997,0.241148,0.0,0.0