Folder: fsri_materials_database/01_Data/Vinyl_Siding/Cone (part 2)

File: Vinyl_Siding_Cone_HF25Scan_220331_R3.csv
Names,Time,Stack TC,Smoke TC,Exh Press,Smoke Comp,Smoke Meas,CO Meter,CO2 Meter,O2 Meter,Sample Mass,Ext Coeff,Start Test,Flame Verif
Chan Gain,,500,500,1,1,1,1,1,1,1,1,1.0,1.0
Offset,,0,0,0.133521,0,0,0,0,0,0,0,0.0,0.0
Gain,,1,1,25.011,13.1585,13.8929,1,1,1,1.00096,1.01488,1.0,1.0
Units,sec,C,C,Pa,%,%,%,%,%,g,/m,,
Baseline,,17.8999,18.4172,154.039,98.0604,97.5282,0.000852606,0.0726236,21.0008,-833.708,0.048481,,
16,3.75,16.3849,16.5172,151.352,98.4371,97.8746,0.000901098,0.0747437,20.9981,199.712,0.0510126,0.0,0.0
32,7.75,16.043,17.0439,154.705,98.4696,97.8221,0.00096976,0.0754651,20.9962,199.632,0.0587374,0.0,0.0
48,11.75,16.1183,16.7329,152.191,98.4748,97.945,0.00120765,0.0763994,20.9933,199.672,0.0480269,0.0,0.0
64,15.75,16.5987,17.9126,156.345,98.4857,97.6792,0.00124578,0.0792438,20.9883,199.682,0.073202,0.0,0.0
80,19.75,16.8282,17.3909,155.768,98.509,97.8297,0.00127547,0.0791737,20.9874,199.662,0.0616004,0.0,0.0
96,23.75,17.5111,17.6403,155.999,98.4905,98.3838,0.00128245,0.0775077,20.9893,199.672,0.00964585,0.0,0.0
112,27.75,16.7502,17.2613,154.252,98.5001,98.2867,0.00102611,0.076151,20.9908,199.662,0.0193067,0.0,0.0
128,31.75,17.3809,18.0619,153.392,98.4817,97.9085,0.000793636,0.0749048,20.9922,199.652,0.051958,0.0,0.0
144,35.75,17.3209,17.8788,156.48,98.4732,96.7176,0.000638289,0.0743992,20.9925,199.642,0.160149,0.0,0.0
160,39.75,17.5241,17.8099,152.973,98.4612,95.9548,0.000534757,0.0753264,20.993,199.632,0.229545,0.0,0.0
176,43.75,16.9575,17.9214,155.061,98.4306,95.8065,0.000710023,0.0757628,20.9963,199.582,0.240564,0.0,0.0
192,47.75,17.2042,17.8047,153.51,98.4078,95.971,0.000778913,0.0757924,20.9961,199.522,0.223221,0.0,0.0
208,51.75,18.0681,18.3948,151.865,98.3801,95.1887,0.000831233,0.0765331,20.9957,199.442,0.293573,0.0,0.0
224,55.75,17.3818,17.9245,153.952,98.3568,94.6706,0.000767879,0.0775556,20.9959,199.312,0.340053,0.0,0.0
240,59.75,17.833,18.3634,153.984,98.3355,94.6922,0.000975976,0.0788623,20.9942,199.152,0.336093,0.0,0.0
256,63.75,17.7832,18.6478,154.335,98.3258,94.6066,0.00117241,0.0802438,20.9936,198.992,0.343276,0.0,0.0
272,67.75,17.9879,18.2842,151.851,98.3459,94.2009,0.00124214,0.0807927,20.9924,198.812,0.383357,0.0,0.0
288,71.75,17.8526,18.4483,150.572,98.321,93.3838,0.000961471,0.0810246,20.9929,198.631,0.458652,0.0,0.0
304,75.75,18.1541,18.4108,152.856,98.3234,93.7451,0.00103142,0.0802263,20.9949,198.421,0.424499,0.0,0.0
320,79.75,18.0252,18.8699,156.819,98.3234,93.9897,0.000979466,0.0797425,20.9943,198.211,0.401297,0.0,0.0
336,83.75,17.9027,18.9965,153.169,98.3058,93.6166,0.00096219,0.0814202,20.9902,198.021,0.435107,0.0,0.0
352,87.75,18.1364,18.7987,155.354,98.2993,94.0126,0.000966594,0.0835263,20.9874,197.841,0.396947,0.0,0.0
368,91.75,18.3681,18.7555,154.555,98.2941,94.4828,0.00110581,0.0842113,20.9878,197.62,0.352062,0.0,0.0
384,95.75,18.5147,19.4973,156.229,98.2857,94.7957,0.00108618,0.0837359,20.9879,197.45,0.321863,0.0,0.0
400,99.75,18.403,19.1503,153.346,98.2965,94.1949,0.00106906,0.0828278,20.9879,197.27,0.379445,0.0,0.0
416,103.75,18.2886,19.4731,159.022,98.2841,93.5937,0.00110369,0.0819659,20.9898,197.08,0.435321,0.0,0.0
432,107.75,18.4592,19.2429,154.104,98.276,94.794,0.00097736,0.0812212,20.9902,196.92,0.32115,0.0,0.0
448,111.75,18.3821,18.7786,150.921,98.2813,94.1754,0.000861123,0.0807875,20.9906,196.76,0.379907,0.0,0.0
464,115.75,18.4406,19.2987,158.583,98.2905,94.7741,0.0013072,0.0798439,20.9925,196.609,0.324331,0.0,0.0
480,119.75,18.2096,19.5522,157.51,98.2849,94.4175,0.00145095,0.0790599,20.9939,196.469,0.357379,0.0,0.0
496,123.75,18.2982,19.4312,149.72,98.2905,94.8309,0.001357,0.0789502,20.9948,196.339,0.318996,0.0,0.0
512,127.75,18.4908,19.4475,154.527,98.2929,94.4412,0.00147178,0.0785442,20.9962,196.209,0.355868,0.0,0.0
528,131.75,18.797,19.2875,150.087,98.2897,93.8829,0.000941396,0.0784385,20.9962,196.099,0.408369,0.0,0.0
544,135.75,18.6375,19.6746,154.307,98.2447,94.9301,0.000806144,0.0785033,20.992,195.969,0.305541,0.0,0.0
560,139.75,18.4703,19.9097,157.638,98.1953,93.4508,0.000966285,0.0785876,20.9884,195.859,0.44088,0.0,0.0
576,143.75,18.5092,19.4553,153.582,98.1214,94.4989,0.00112064,0.0791018,20.9865,195.739,0.33489,0.0,0.0
592,147.75,18.7452,19.3632,150.212,98.0455,93.8956,0.00131018,0.0792831,20.9861,195.618,0.385021,0.0,0.0
608,151.75,18.9349,19.7305,154.389,97.9395,93.408,0.00133885,0.0793343,20.988,195.508,0.421738,0.0,0.0
624,155.75,18.9658,19.3484,147.458,97.8239,93.2181,0.00153253,0.0800107,20.9867,195.408,0.429341,0.0,0.0
640,159.75,18.5937,19.3135,154.558,97.7271,93.5331,0.00139759,0.080741,20.9882,195.298,0.390496,0.0,0.0
656,163.75,18.9126,19.8356,154.475,97.6356,93.7497,0.00144939,0.0821293,20.9857,195.188,0.361554,0.0,0.0
672,167.75,19.0907,19.9893,154.397,97.5914,93.0205,0.00159061,0.0892853,20.9783,195.088,0.427045,0.0,0.0
688,171.75,18.8996,19.8256,150.957,97.6099,92.0059,0.00170059,0.0918386,20.9765,194.998,0.526365,0.0,0.0
704,175.75,18.6737,19.433,150.425,97.7046,91.654,0.00170903,0.0878132,20.9842,194.928,0.569118,0.0,0.0
720,179.75,19.0806,19.8364,152.876,97.8616,92.9137,0.00143375,0.0838835,20.9878,194.828,0.461896,0.0,0.0
736,183.75,19.4809,19.7829,157.318,98.0624,91.5196,0.00154319,0.0819925,20.9904,194.718,0.614724,0.0,0.0
752,187.75,19.0114,20.007,153.204,98.2993,91.2661,0.00162602,0.0802568,20.9921,194.628,0.660904,0.0,0.0
768,191.75,19.0905,20.1044,149.874,98.5254,92.1306,0.0019033,0.0781235,20.9923,194.527,0.597426,0.0,0.0
784,195.75,19.3066,20.1945,145.86,98.7467,61.8661,0.00675971,0.110451,20.9033,194.377,4.16266,0.0,1.0
800,199.75,20.5887,20.6099,135.763,98.88,39.2511,0.0170359,0.227741,20.6941,193.927,8.22524,0.0,0.0
816,203.75,22.5136,23.1762,133.195,98.98,42.7019,0.0220565,0.303741,20.5879,193.506,7.48409,0.0,0.0
832,207.75,24.6616,25.4225,145.518,99.023,53.501,0.0203597,0.301839,20.6071,193.086,5.48082,0.0,0.0
848,211.75,25.8298,26.6803,145.068,99.0374,59.296,0.0167032,0.268299,20.6677,192.926,4.56658,0.0,0.0
864,215.75,26.3618,27.3171,143.73,99.0286,69.0106,0.0126126,0.236213,20.7352,192.676,3.21512,0.0,0.0
880,219.75,26.9225,28.1712,146.359,98.9788,72.7768,0.0100707,0.208163,20.7813,192.515,2.73759,0.0,0.0
896,223.75,27.7291,28.9287,147.571,98.886,80.72,0.00811632,0.190038,20.8183,192.375,1.80704,0.0,0.0
912,227.75,27.8591,29.1444,143.199,98.8105,87.6249,0.00627254,0.170158,20.8509,192.275,1.06953,0.0,0.0
928,231.75,27.6301,29.0029,148.101,98.7463,90.7908,0.00525809,0.147196,20.8912,192.205,0.74777,0.0,0.0
944,235.75,27.2794,28.946,149.505,99.0804,95.1807,0.00505023,0.127823,20.9212,192.125,0.357476,0.0,0.0
960,239.75,26.8831,28.3094,149.819,99.3595,97.435,0.00503189,0.111713,20.9443,192.125,0.174125,0.0,0.0
976,243.75,26.5029,28.1209,147.177,99.5101,97.7233,0.00463446,0.09858,20.9637,192.095,0.161304,0.0,0.0
992,247.75,26.0862,27.3403,154.507,99.5269,97.9823,0.00436858,0.0902149,20.9763,192.055,0.139245,0.0,0.0
1008,251.75,24.7812,26.7238,149.738,99.4161,98.1595,0.00413201,0.0858103,20.9785,192.025,0.113239,0.0,0.0
1024,255.75,24.7587,26.3442,149.734,99.1655,97.6949,0.00448088,0.0843603,20.9776,192.025,0.133015,0.0,0.0
1040,259.75,24.1859,25.5762,149.02,98.9696,97.2989,0.00461069,0.0853166,20.9757,191.995,0.151564,0.0,0.0
1056,263.75,23.9944,25.2144,150.172,99.1422,97.6228,0.00438452,0.0860144,20.9738,191.975,0.137495,0.0,0.0
1072,267.75,23.6321,24.6835,149.283,99.3506,98.2308,0.00432532,0.0863381,20.9748,191.955,0.100917,0.0,0.0
1088,271.75,22.7512,25.3917,152.459,99.5498,98.0769,0.00460361,0.0874264,20.974,191.925,0.132705,0.0,0.0
1104,275.75,23.1106,24.4402,151.85,99.6916,98.6111,0.00491743,0.0884276,20.9736,191.915,0.0970139,0.0,0.0
1120,279.75,22.5817,24.1205,154.65,99.7381,98.4067,0.00514349,0.0889679,20.9727,191.875,0.119641,0.0,0.0
1136,283.75,22.4293,23.7265,152.117,99.6606,98.1248,0.00526161,0.089355,20.9725,191.855,0.138265,0.0,0.0
1152,287.75,21.8955,23.4065,154.633,99.4526,98.6191,0.00546688,0.0901048,20.9725,191.835,0.0749249,0.0,0.0
1168,291.75,22.0639,23.4055,153.717,99.1306,97.5253,0.00576296,0.0908297,20.9725,191.815,0.145345,0.0,0.0
1184,295.75,21.7649,23.4954,150.673,98.6997,97.0614,0.00586409,0.0916811,20.9708,191.775,0.149007,0.0,0.0
1200,299.75,21.945,23.4817,152.653,98.2636,97.4082,0.00599196,0.0923293,20.9706,191.775,0.0778321,0.0,0.0
1216,303.75,22.0132,22.871,150.644,97.8821,96.0943,0.00604662,0.0936343,20.9704,191.745,0.164103,0.0,0.0
1232,307.75,21.1633,22.7207,150.825,97.6745,96.2809,0.00588635,0.0943212,20.969,191.705,0.127935,0.0,0.0
1248,311.75,21.2114,22.991,150.192,97.6914,95.7327,0.00570556,0.0954057,20.9667,191.665,0.180305,0.0,0.0
1264,315.75,21.5619,22.7271,152.473,97.9074,96.0706,0.00559288,0.0957102,20.9658,191.645,0.168603,0.0,0.0
1280,319.75,21.8991,22.565,149.698,98.256,96.5531,0.00520542,0.0953375,20.9667,191.615,0.155642,0.0,0.0
1296,323.75,21.0198,22.3717,149.389,98.6375,96.8041,0.00493502,0.0950016,20.9669,191.595,0.167028,0.0,0.0
1312,327.75,21.2172,22.118,152.537,98.9499,96.9097,0.00489701,0.0949055,20.9667,191.565,0.185477,0.0,0.0
1328,331.75,20.5323,22.5461,149.731,99.0523,97.2247,0.0046559,0.0954167,20.9662,191.535,0.165792,0.0,0.0
1344,335.75,20.7791,22.2327,151.99,99.0278,97.1903,0.00422494,0.0954525,20.9661,191.505,0.166737,0.0,0.0
1360,339.75,20.7377,22.3184,148.335,98.8892,96.4428,0.00393931,0.0953773,20.9666,191.474,0.223005,0.0,0.0
1376,343.75,20.9145,21.8246,157.115,98.7511,96.9656,0.00409675,0.0954165,20.969,191.454,0.162435,0.0,0.0
1392,347.75,20.782,22.1085,149.538,99.2551,96.8834,0.00407123,0.0947933,20.9714,191.454,0.215307,0.0,0.0
1408,351.75,20.6944,21.185,152.41,99.5458,97.2683,0.00380995,0.0943313,20.9716,191.424,0.206041,0.0,0.0
1424,355.75,20.3813,21.4292,150.95,99.3619,97.4532,0.00370056,0.0943851,20.9727,191.394,0.172675,0.0,0.0
1440,359.75,19.6077,21.7645,151.912,99.0314,96.4301,,0.0944547,,191.364,0.236967,0.0,0.0
1456,363.75,20.3169,21.8037,152.704,99.3173,97.5465,,,,191.344,0.160164,0.0,0.0
1472,367.75,20.2874,21.8628,150.009,99.6394,97.7199,,,,191.314,0.173173,0.0,0.0

File: Vinyl_Siding_Cone_HF50Scalar_220331_R1.csv
LABORATORY,FSRI
TEST IDENT,Vinyl_Siding_HF50_1
OPERATOR,Dow
MATERIAL,Vinyl Siding
ORIENTATION,Horizontal
HEAT FLUX,50
SURF AREA,0.00884
C FACTOR,0.0397155
SPEC HOLDER DIFF,-566
SPECIMEN MASS,14.78
SCAN TIME,0.25
O2 DELAY TIME,11
CO DELAY TIME,11
CO2 DELAY TIME,8
FLOW FACTOR,1
SCAN COUNT,1078
TIME TO IGN,35.5
END OF TEST SCAN,598
END OF TEST TIME,149.5
TEST STATUS,1
PRE TEST CMT,Dimensions: 102.28 x 100.10 x 1.03 mm; with frame; with calcium silicate substrate
POST TEST CMT,"Prior to ignition, the sample warped and shrivel with one edge shrinking from the overlap with the frame. The sample impacted the spark ignitor causing a spike in mass data immediately prior to ignition. "

File: Vinyl_Siding_Cone_HF50Scalar_220331_R2.csv
LABORATORY,FSRI
TEST IDENT,Vinyl_Siding_HF50_2
OPERATOR,Dow
MATERIAL,Vinyl Siding
ORIENTATION,Horizontal
HEAT FLUX,50
SURF AREA,0.00884
C FACTOR,0.0397155
SPEC HOLDER DIFF,-566
SPECIMEN MASS,14.2
SCAN TIME,0.25
O2 DELAY TIME,11
CO DELAY TIME,11
CO2 DELAY TIME,8
FLOW FACTOR,1
SCAN COUNT,1021
TIME TO IGN,32.25
END OF TEST SCAN,541
END OF TEST TIME,135.25
TEST STATUS,1
PRE TEST CMT,Dimensions: 102.12 x 98.35 x 1.06 mm; with frame; with calcium silicate substrate

File: Vinyl_Siding_Cone_HF50Scalar_220331_R3.csv
LABORATORY,FSRI
TEST IDENT,Vinyl_Siding_HF50_3
OPERATOR,Dow
MATERIAL,Vinyl Siding
ORIENTATION,Horizontal
HEAT FLUX,50
SURF AREA,0.01
C FACTOR,0.0397155
SPEC HOLDER DIFF,-566
SPECIMEN MASS,14.07
SCAN TIME,0.25
O2 DELAY TIME,11
CO DELAY TIME,11
CO2 DELAY TIME,8
FLOW FACTOR,1
SCAN COUNT,1004
TIME TO IGN,33
END OF TEST SCAN,524
END OF TEST TIME,131
TEST STATUS,1
PRE TEST CMT,Dimensions: 102.29 x 100.00 x 0.94 mm; with frame; with calcium silicate substrate

File: Vinyl_Siding_Cone_HF50Scan_220331_R1.csv
Names,Time,Stack TC,Smoke TC,Exh Press,Smoke Comp,Smoke Meas,CO Meter,CO2 Meter,O2 Meter,Sample Mass,Ext Coeff,Start Test,Flame Verif
Chan Gain,,500,500,1,1,1,1,1,1,1,1,1.0,1.0
Offset,,0,0,0.133521,0,0,0,0,0,0,0,0.0,0.0
Gain,,1,1,25.011,13.1585,13.8929,1,1,1,1.00096,1.01488,1.0,1.0
Units,sec,C,C,Pa,%,%,%,%,%,g,/m,,
Baseline,,23.8757,25.3902,149.713,99.0403,97.571,0.000587428,0.0626607,21.0429,-834.376,0.133093,,
11,2.5,23.0415,24.5472,149.422,99.5928,97.9603,0.00071794,0.0670981,21.0359,194.237,0.147137,0.0,0.0
22,5.25,23.5846,24.6308,148.708,99.6647,98.0022,0.000819301,0.0657495,21.0372,194.317,0.149746,0.0,0.0
33,8,23.5412,24.7352,149.425,99.7494,98.0048,0.000912034,0.0647106,21.0393,194.297,0.15708,0.0,0.0
44,10.75,22.8384,25.0352,150.185,99.812,97.8988,0.000718694,0.0637306,21.0414,194.267,0.172303,0.0,0.0
55,13.5,23.8821,25.4143,153.356,99.847,97.1373,0.000465873,0.0633095,21.0426,194.227,0.244934,0.0,0.0
66,16.25,23.7192,25.1082,146.211,99.8819,92.3549,0.000567314,0.0634892,21.0419,194.157,0.697512,0.0,0.0
77,19,23.6094,25.4728,149.034,99.8839,85.6433,0.00119718,0.0662889,21.0394,193.847,1.36936,0.0,0.0
88,21.75,24.1417,25.0529,149.799,99.8699,78.9478,0.00185847,0.0707727,21.0368,193.406,2.0928,0.0,0.0
99,24.5,24.404,26.2751,142.488,99.8217,75.6721,0.00215696,0.0754723,21.0354,192.976,2.46577,0.0,0.0
110,27.25,24.4542,26.1954,149.775,99.7265,71.0741,0.00232001,0.0795129,21.0336,192.495,3.01535,0.0,0.0
121,30,24.2846,26.0049,142.567,99.6217,69.3892,0.00348844,0.0848399,21.0257,192.035,3.21957,0.0,0.0
132,32.75,25.0466,26.8742,133.451,99.4815,81.872,0.00845572,0.109467,20.9731,191.615,1.73434,0.0,0.0
143,35.5,26.1725,27.0504,140.014,99.3121,57.4762,0.0150908,0.161499,20.8854,196.86,4.86872,0.0,1.0
154,38.25,26.8866,28.2413,135.596,99.1125,42.2626,0.0261935,0.213977,20.7838,190.624,7.58805,0.0,1.0
165,41,27.7357,29.2858,134.375,99.0884,41.3333,0.0331724,0.264812,20.6794,190.133,7.78383,0.0,1.0
176,43.75,29.2351,30.8972,130.721,99.1177,50.0346,0.0356817,0.303618,20.6231,189.623,6.08568,0.0,0.0
187,46.5,30.4566,32.0598,133.641,99.1679,47.1087,0.0358984,0.323372,20.6017,189.102,6.62662,0.0,0.0
198,49.25,31.9884,34.07,138.872,99.2045,46.9531,0.0348036,0.319235,20.6119,188.652,6.65935,0.0,0.0
209,52,33.2423,35.3409,136.009,99.2466,52.6272,0.0324098,0.309461,20.6275,188.251,5.64751,0.0,0.0
220,54.75,33.7551,35.9453,136.997,99.2808,61.4231,0.0290877,0.293514,20.6692,187.911,4.27467,0.0,0.0
231,57.5,34.5233,36.891,140.799,99.3101,63.1949,0.0254024,0.27182,20.7052,187.551,4.02413,0.0,0.0
242,60.25,35.0836,37.7904,136.177,99.3382,71.8805,0.0220541,0.255821,20.7322,187.25,2.88017,0.0,0.0
253,63,35.8287,37.9834,142.181,99.38,75.3741,0.019663,0.241202,20.7606,187,2.46142,0.0,0.0
264,65.75,36.0468,38.4652,139.857,99.3691,73.5217,0.0179931,0.227573,20.7835,186.77,2.68196,0.0,0.0
275,68.5,35.9712,38.5954,140.228,99.3675,71.434,0.0169898,0.216713,20.7985,186.57,2.93827,0.0,0.0
286,71.25,36.5028,39.0304,142.364,99.3406,72.366,0.0159302,0.206105,20.8163,186.37,2.82047,0.0,0.0
297,74,36.0512,38.7669,141.999,99.353,74.2552,0.0148656,0.195549,20.8332,186.169,2.59215,0.0,0.0
308,76.75,36.5433,39.0933,142.983,99.333,73.1838,0.0139853,0.185546,20.8495,186.039,2.71973,0.0,0.0
319,79.5,36.6569,39.4451,138.702,99.3105,76.3543,0.0133841,0.176995,20.8614,185.869,2.34016,0.0,0.0
330,82.25,36.5651,39.1359,145.576,99.2695,75.8519,0.0130863,0.170574,20.8708,185.699,2.39526,0.0,0.0
341,85,36.5231,39.4085,142.477,99.2245,77.7208,0.0126569,0.164716,20.8769,185.549,2.17454,0.0,0.0
352,87.75,36.9196,39.8873,141.387,99.1591,77.0437,0.0123219,0.159708,20.8846,185.429,2.24656,0.0,0.0
363,90.5,36.566,39.3649,144.837,99.0968,78.3453,0.0117742,0.155918,20.8899,185.299,2.09183,0.0,0.0
374,93.25,36.5117,39.4582,145.106,98.9965,79.4405,0.0109473,0.151707,20.8968,185.188,1.95922,0.0,0.0
385,96,36.845,39.6192,145.558,98.9001,83.3695,0.0101438,0.147336,20.9044,185.078,1.52079,0.0,0.0
396,98.75,36.5686,39.187,142.971,98.8117,83.2435,0.00956792,0.144144,20.9096,184.978,1.52629,0.0,0.0
407,101.5,36.1669,39.1072,145.105,98.7049,84.5592,0.00905709,0.142442,20.9129,184.898,1.37707,0.0,0.0
418,104.25,36.3828,38.9957,143.331,98.5969,84.2119,0.00842528,0.140766,20.9156,184.798,1.40395,0.0,0.0
429,107,36.2657,38.8281,144.237,98.4873,83.7833,0.00773244,0.139763,20.9192,184.728,1.43948,0.0,0.0
440,109.75,35.4282,38.3051,141.921,98.3837,85.6679,0.00699347,0.13922,20.9202,184.668,1.23208,0.0,0.0
451,112.5,36.0033,38.8215,145.04,98.2825,83.6501,0.00619992,0.140018,20.9197,184.578,1.4351,0.0,0.0
462,115.25,35.4254,38.6001,144.176,98.2062,85.0963,0.00558117,0.140685,20.9196,184.518,1.27559,0.0,0.0
473,118,35.7507,38.8155,143.51,98.1034,86.0812,0.00517993,0.138644,20.9236,184.438,1.16382,0.0,0.0
484,120.75,35.6836,38.1908,140.404,98.0219,89.4646,0.00494842,0.134802,20.9302,184.408,0.81322,0.0,0.0
495,123.5,35.4798,38.4007,145.169,97.9817,89.462,0.00478563,0.129121,20.9397,184.358,0.809825,0.0,0.0
506,126.25,35.2339,37.9615,150.717,97.9303,91.2088,0.00473029,0.123849,20.9494,184.318,0.633004,0.0,0.0
517,129,34.6661,37.6682,145.9,97.8994,92.6749,0.00483026,0.119278,20.9554,184.268,0.48823,0.0,0.0
528,131.75,34.5445,37.1513,144.053,97.8857,92.8687,0.00517423,0.115269,20.9627,184.247,0.468394,0.0,0.0
539,134.5,34.4689,37.558,146.154,97.8865,92.9675,0.00552757,0.111051,20.9696,184.227,0.459002,0.0,0.0
550,137.25,34.3015,37.0642,150.081,97.9243,93.3754,0.00589216,0.106834,20.977,184.197,0.423464,0.0,0.0
561,140,33.9516,36.6661,143.302,97.9652,95.059,0.00609761,0.102739,20.9834,184.157,0.2681,0.0,0.0
572,142.75,33.2517,36.1516,145.937,98.0227,95.6907,0.00616812,0.0994415,20.9879,184.127,0.214348,0.0,0.0
583,145.5,33.3995,35.9379,144.724,98.0885,96.0884,0.00617779,0.0974278,20.9908,184.127,0.183406,0.0,0.0
594,148.25,32.9498,35.6354,147.984,98.1632,96.2966,0.0060486,0.0959556,20.9929,184.067,0.170916,0.0,0.0
605,151,32.3877,35.0316,144.255,98.254,96.1736,0.00591479,0.0952,20.9944,184.047,0.190516,0.0,0.0
616,153.75,32.4156,35.1045,145.059,98.3363,95.8701,0.00583186,0.0954884,20.9937,184.007,0.226117,0.0,0.0
627,156.5,31.8904,34.4459,139.685,98.4306,96.9737,0.00568479,0.096425,20.9924,183.997,0.13276,0.0,0.0
638,159.25,31.8304,34.187,149.295,98.5351,96.4997,0.00563258,0.096707,20.9917,183.967,0.18582,0.0,0.0
649,162,31.5409,34.2693,149.014,98.6395,96.4975,0.00569684,0.0962772,20.9928,183.947,0.195444,0.0,0.0
660,164.75,31.4112,33.5619,144.665,98.7676,96.4284,0.00570028,0.095521,20.9948,183.927,0.213376,0.0,0.0
671,167.5,31.4634,33.5647,152.103,98.8965,97.1539,0.00563666,0.0944855,20.997,183.887,0.158264,0.0,0.0
682,170.25,30.9441,33.0943,144.824,99.0117,96.8558,0.00541914,0.0936388,20.9977,183.867,0.195986,0.0,0.0
693,173,30.6535,32.9198,147.423,99.1326,96.7998,0.00530626,0.0927551,20.9992,183.827,0.211993,0.0,0.0
704,175.75,30.2997,32.8184,142.659,99.2426,96.852,0.00542056,0.0925299,21,183.797,0.217074,0.0,0.0
715,178.5,30.1823,32.8705,152.179,99.3506,97.1072,0.00552153,0.0922157,21.0001,183.767,0.203329,0.0,0.0
726,181.25,30.4601,32.8677,145.851,99.451,97.0979,0.00556614,0.0919397,21.0001,183.737,0.213175,0.0,0.0
737,184,30.2834,32.3047,147.015,99.5137,97.8271,0.00559006,0.0920808,21.0001,183.727,0.15217,0.0,0.0
748,186.75,30.1545,32.275,145.683,99.5956,97.4167,0.00544462,0.0919465,21.0001,183.697,0.196921,0.0,0.0
759,189.5,30.0984,32.6447,148.877,99.6711,97.1242,0.00537155,0.0916118,21.0001,183.677,0.230442,0.0,0.0
770,192.25,30.3982,32.2574,145.424,99.7325,97.3938,0.00551205,0.0912962,21.0007,183.647,0.211246,0.0,0.0
781,195,29.8316,32.0712,147.588,99.7711,97.7432,0.00554209,0.0912067,21.0014,183.627,0.182809,0.0,0.0
792,197.75,29.8144,32.12,147.736,99.814,97.9785,0.00528475,0.0907918,21.0015,183.597,0.165237,0.0,0.0
803,200.5,29.8862,31.5181,148.292,99.8695,97.3951,0.00497297,0.0904613,21.0035,183.567,0.223345,0.0,0.0
814,203.25,28.8793,31.6851,144.984,99.8988,97.3735,0.0047957,0.0904771,21.0041,183.537,0.227935,0.0,0.0
825,206,29.6575,31.5614,147.783,99.9269,98.0476,0.00480033,0.0905789,21.0043,183.517,0.169019,0.0,0.0
836,208.75,29.3463,31.5837,150.642,99.9397,97.9781,0.00486577,0.0904855,21.005,183.487,0.176478,0.0,0.0
847,211.5,29.2877,31.2079,145.683,99.9433,98.1108,0.00490664,0.0902314,21.0048,183.477,0.16475,0.0,0.0
858,214.25,29.4008,31.7837,148.68,99.9462,98.1176,0.00486033,0.0898965,21.0053,183.457,0.164386,0.0,0.0
869,217,29.3124,31.6641,146.686,99.9449,97.0347,0.0046862,0.0896375,21.0061,183.447,0.263074,0.0,0.0
880,219.75,29.6448,31.2292,146.534,99.9393,97.9883,0.0044669,0.0894238,21.0065,183.427,0.175519,0.0,0.0
891,222.5,29.7434,31.1026,146.356,99.9084,97.7525,0.00443189,0.0894985,21.0076,183.377,0.194206,0.0,0.0
902,225.25,29.6365,31.8331,147.014,99.8911,97.8712,0.00449946,0.0894125,21.0084,183.357,0.181862,0.0,0.0
913,228,29.6348,31.2432,147.57,99.8771,98.246,0.00460281,0.0896863,21.0086,183.337,0.146583,0.0,0.0
924,230.75,28.8079,30.9026,143.889,99.8385,97.3324,0.00461512,0.0892676,21.0087,183.317,0.226325,0.0,0.0
935,233.5,29.0553,31.3805,148.767,99.798,97.206,0.00447258,0.089041,21.0101,183.287,0.234271,0.0,0.0
946,236.25,29.6226,31.2325,146.024,99.7462,97.474,0.00446483,0.0888779,21.0108,183.277,0.205143,0.0,0.0
957,239,28.8249,30.3857,146.546,99.7104,98.8273,0.00448823,0.0888698,21.011,183.257,0.0791996,0.0,0.0
968,241.75,29.3752,31.0366,151.592,99.6755,98.0056,0.00423113,0.0884344,21.0111,183.237,0.150407,0.0,0.0
979,244.5,29.5345,31.1745,140.54,99.6434,98.5555,0.00394557,0.0882753,21.0111,183.216,0.0977256,0.0,0.0
990,247.25,28.9824,31.4503,148.721,99.5916,97.2412,0.00391224,0.0878794,21.0111,183.196,0.212618,0.0,0.0
1001,250,28.3612,30.8624,146.272,99.5731,97.2671,0.00375776,0.0875903,21.0111,183.176,0.208599,0.0,0.0
1012,252.75,29.196,30.9192,145.093,99.5056,98.1761,0.00366366,0.0875862,21.0127,183.146,0.119754,0.0,0.0
1023,255.5,29.6834,31.1747,146.853,99.4683,97.7568,0.00368382,0.0874822,21.0119,183.136,0.154516,0.0,0.0
1034,258.25,29.0777,30.9332,145.679,99.4285,97.315,0.00366567,0.0875945,21.0114,183.116,0.191281,0.0,0.0
1045,261,29.3252,31.1428,146.578,99.3803,97.6414,,0.0874671,,183.086,0.15715,0.0,0.0
1056,263.75,29.3378,30.747,149.012,99.3426,97.1182,,,,183.066,0.201598,0.0,0.0
1067,266.5,29.0594,31.188,145.359,99.3318,97.5325,,,,183.066,0.162737,0.0,0.0
1078,269.25,28.9781,31.2029,146.351,99.2928,97.3832,,,,183.046,0.172878,0.0,0.0