Folder: fsri_materials_database/01_Data/Vinyl_Siding/Cone

Note: 01_Data/README.md
# Materials and Products Database
## 01_Data

Raw data generated from each apparatus are included here in plain-text format. The data is organized first by material, next by the short name of test apparatus used, and where applicable additional filtering by test settings.

### material.json

Each material directory contains a json file of the same name as the material. This file links the data stored in the repository as well as data and graphs produced by the accompanying scripts (__02_Scripts__) to the respective landing page for the material on the front-end website.

File: Vinyl_Siding_Cone_HF25Scalar_220331_R1.csv
LABORATORY,FSRI
TEST IDENT,Vinyl_Siding_HF25_1
OPERATOR,Dow
MATERIAL,Vinyl Siding
ORIENTATION,Horizontal
HEAT FLUX,25
SURF AREA,0.00884
C FACTOR,0.0397155
SPEC HOLDER DIFF,-566
SPECIMEN MASS,13.77
SCAN TIME,0.25
O2 DELAY TIME,11
CO DELAY TIME,11
CO2 DELAY TIME,8
FLOW FACTOR,1
SCAN COUNT,1409
TIME TO IGN,148.5
END OF TEST SCAN,929
END OF TEST TIME,232.25
TEST STATUS,1
PRE TEST CMT,Dimensions: 102.85 x 99.64 x 1.00 mm; with frame; with calcium silicate substrate
POST TEST CMT,"Prior to ignition, the sample began to melt and warp."

File: Vinyl_Siding_Cone_HF25Scalar_220331_R2.csv
LABORATORY,FSRI
TEST IDENT,Vinyl_Siding_HF25_2
OPERATOR,Dow
MATERIAL,Vinyl Siding
ORIENTATION,Horizontal
HEAT FLUX,25
SURF AREA,0.00884
C FACTOR,0.0397155
SPEC HOLDER DIFF,-566
SPECIMEN MASS,14.17
SCAN TIME,0.25
O2 DELAY TIME,11
CO DELAY TIME,11
CO2 DELAY TIME,8
FLOW FACTOR,1
SCAN COUNT,1529
TIME TO IGN,202.75
END OF TEST SCAN,1049
END OF TEST TIME,262.25
TEST STATUS,1
PRE TEST CMT,Dimensions: 102.70 x 100.01 x 1.05 mm; with frame; with calcium silicate substrate
POST TEST CMT,"Prior to ignition, the sample began to melt and warp."

File: Vinyl_Siding_Cone_HF25Scalar_220331_R3.csv
LABORATORY,FSRI
TEST IDENT,Vinyl_Siding_HF25_3
OPERATOR,Dow
MATERIAL,Vinyl Siding
ORIENTATION,Horizontal
HEAT FLUX,25
SURF AREA,0.00884
C FACTOR,0.0397155
SPEC HOLDER DIFF,-566
SPECIMEN MASS,14.18
SCAN TIME,0.25
O2 DELAY TIME,11
CO DELAY TIME,11
CO2 DELAY TIME,8
FLOW FACTOR,1
SCAN COUNT,1472
TIME TO IGN,194.25
END OF TEST SCAN,992
END OF TEST TIME,248
TEST STATUS,1
PRE TEST CMT,Dimensions: 100.80 x 101.06 x 1.03 mm; with frame; with calcium silicate substrate
POST TEST CMT,"Prior to ignition, the sample began to melt and warp."

File: Vinyl_Siding_Cone_HF25Scan_220331_R1.csv
Names,Time,Stack TC,Smoke TC,Exh Press,Smoke Comp,Smoke Meas,CO Meter,CO2 Meter,O2 Meter,Sample Mass,Ext Coeff,Start Test,Flame Verif
Chan Gain,,500,500,1,1,1,1,1,1,1,1,1.0,1.0
Offset,,0,0,0.133521,0,0,0,0,0,0,0,0.0,0.0
Gain,,1,1,25.011,13.1585,13.8929,1,1,1,1.00096,1.01488,1.0,1.0
Units,sec,C,C,Pa,%,%,%,%,%,g,/m,,
Baseline,,15.924,15.5942,155.344,97.8854,97.3001,0.000760707,0.0759277,20.9939,-833.572,0.0534127,,
15,3.5,14.5911,14.6657,152.921,97.8596,97.1869,0.000719182,0.0801124,20.9888,193.817,0.0614075,0.0,0.0
30,7.25,14.6255,14.6514,152.817,97.8841,97.3141,0.000956941,0.0805679,20.9887,193.817,0.0519928,0.0,0.0
45,11,15.4787,14.7065,154.049,97.9146,97.4672,0.000841311,0.0802126,20.9892,193.777,0.0407766,0.0,0.0
60,14.75,14.8961,14.9266,158.569,97.9387,97.0542,0.000705322,0.0790084,20.9895,193.797,0.0807657,0.0,0.0
75,18.5,15.0603,14.8989,158.384,97.9761,97.2204,0.000501077,0.0811502,20.9856,193.787,0.0689275,0.0,0.0
90,22.25,14.9002,14.7981,154.736,97.9885,97.3061,0.000412996,0.0834354,20.9832,193.777,0.0622201,0.0,0.0
105,26,14.8803,15.057,154.413,98.0094,97.0987,0.000692112,0.0831546,20.9827,193.787,0.0831043,0.0,0.0
120,29.75,15.1676,15.4493,153.665,98.0387,97.2738,0.000772541,0.0854952,20.9791,193.777,0.0697278,0.0,0.0
135,33.5,15.0407,14.9661,155.366,98.0725,96.8982,0.000845528,0.0841849,20.9798,193.757,0.107236,0.0,0.0
150,37.25,15.1069,15.3033,155.222,98.1227,96.562,0.0010399,0.0826659,20.9829,193.707,0.142734,0.0,0.0
165,41,15.225,14.829,155.539,98.154,95.9222,0.000851865,0.082048,20.9844,193.727,0.204756,0.0,0.0
180,44.75,15.5148,15.7295,151.648,98.1921,95.5258,0.000890603,0.0841819,20.9812,193.687,0.245083,0.0,0.0
195,48.5,15.1653,15.7135,158.009,98.2138,94.1724,0.000832142,0.0851252,20.9817,193.617,0.374075,0.0,0.0
210,52.25,15.6262,15.923,154.213,98.2303,93.6052,0.000684421,0.0839615,20.9839,193.506,0.429356,0.0,0.0
225,56,15.6974,15.8998,149.89,98.2516,93.545,0.000612578,0.0824924,20.9863,193.376,0.437013,0.0,0.0
240,59.75,15.3274,16.1571,157.27,98.2728,93.656,0.000624903,0.0816581,20.9876,193.216,0.428376,0.0,0.0
255,63.5,16.203,15.9655,155.641,98.2768,92.7148,0.000921347,0.0813195,20.9896,193.046,0.518661,0.0,0.0
270,67.25,16.0039,16.5974,154.737,98.2925,93.2151,0.00132561,0.0812198,20.9904,192.856,0.47217,0.0,0.0
285,71,16.1916,16.4001,155.735,98.3066,93.9838,0.00101405,0.0808973,20.9921,192.666,0.400333,0.0,0.0
300,74.75,16.1868,16.4288,152.033,98.3194,93.7637,0.00074108,0.0812232,20.9917,192.475,0.422364,0.0,0.0
315,78.5,16.1479,16.8265,151.775,98.3339,93.0413,0.000765112,0.0827968,20.9888,192.295,0.492532,0.0,0.0
330,82.25,16.5385,16.6146,154.179,98.325,93.5996,0.000909756,0.0832876,20.9881,192.105,0.438465,0.0,0.0
345,86,16.9822,16.9503,153.608,98.327,93.7688,0.000963988,0.0828431,20.9899,191.925,0.422572,0.0,0.0
360,89.75,16.6633,16.7728,148.713,98.3343,93.8896,0.00101251,0.0825721,20.9899,191.735,0.411762,0.0,0.0
375,93.5,16.7942,17.0634,158.546,98.3367,93.871,0.00112889,0.0823325,20.9894,191.565,0.413749,0.0,0.0
390,97.25,17.0347,17.0119,153.537,98.3246,93.7061,0.00130334,0.0826264,20.9881,191.384,0.428313,0.0,0.0
405,101,16.5692,17.2887,153.336,98.3138,94.3293,0.00127168,0.0830874,20.9872,191.244,0.368317,0.0,0.0
420,104.75,16.6995,16.9992,150.622,98.2965,94.5337,0.0012681,0.0844983,20.9841,191.074,0.347486,0.0,0.0
435,108.5,16.4153,17.3538,154.082,98.2825,94.607,0.00152734,0.0868573,20.9807,190.894,0.339308,0.0,0.0
450,112.25,16.6734,16.9366,151.795,98.2789,94.4612,0.00138183,0.0876031,20.98,190.744,0.352717,0.0,0.0
465,116,16.6709,17.4253,149.19,98.2765,94.8004,0.00117312,0.0866638,20.9816,190.594,0.32059,0.0,0.0
480,119.75,16.811,17.1076,154.555,98.2708,95.2354,0.0010091,0.0850103,20.9835,190.473,0.279323,0.0,0.0
495,123.5,16.6497,17.3798,150.605,98.2957,94.6766,0.000985639,0.0852683,20.9822,190.343,0.333968,0.0,0.0
510,127.25,16.733,17.2973,152.295,98.2668,95.1124,0.00113942,0.0880388,20.9773,190.193,0.290461,0.0,0.0
525,131,17.0418,17.5832,150.726,98.2716,94.5994,0.00111183,0.0888931,20.9757,190.073,0.339045,0.0,0.0
540,134.75,16.8913,17.4099,158.348,98.2632,94.7643,0.00110692,0.0883492,20.9755,189.973,0.322773,0.0,0.0
555,138.5,16.5916,18.2322,148.523,98.2656,93.9753,0.0015147,0.0884171,20.9755,189.843,0.397425,0.0,0.0
570,142.25,16.8903,17.7403,155.897,98.256,94.4345,0.00162576,0.088584,20.9755,189.693,0.35316,0.0,0.0
585,146,17.5386,17.3926,152.667,98.2467,94.1016,0.00170871,0.0895632,20.9743,189.613,0.383755,0.0,0.0
600,149.75,17.2845,17.3195,153.46,98.2419,93.6306,0.00238314,0.0926688,20.9649,189.573,0.427992,0.0,1.0
615,153.5,17.2109,17.5878,148.469,98.2379,71.9772,0.00564732,0.116812,20.9213,189.382,2.76905,0.0,0.0
630,157.25,17.7361,18.0127,148.072,98.2403,57.6268,0.0105949,0.167113,20.8325,189.032,4.74884,0.0,0.0
645,161,19.1383,19.3235,148.795,98.2295,55.2465,0.0142168,0.205851,20.7626,188.722,5.12338,0.0,0.0
660,164.75,20.0159,20.1296,146.061,98.2242,57.7493,0.0158933,0.225641,20.7336,188.371,4.72848,0.0,0.0
675,168.5,21.1955,21.5742,147.023,98.2295,57.6751,0.016058,0.226618,20.7365,188.061,4.7404,0.0,0.0
690,172.25,21.8308,22.3046,146.111,98.2158,58.8415,0.0153584,0.22235,20.748,187.761,4.56092,0.0,0.0
705,176,22.7195,22.7755,143.952,98.2086,63.8559,0.0143289,0.215653,20.7627,187.481,3.83221,0.0,0.0
720,179.75,22.8628,23.5811,148.421,98.1873,66.1784,0.0128927,0.208808,20.7722,187.26,3.51223,0.0,0.0
735,183.5,23.8865,24.5166,147.842,98.1632,65.0964,0.0112805,0.2021,20.7861,187.06,3.6568,0.0,0.0
750,187.25,23.153,23.9781,145.883,98.1564,66.4277,0.0106998,0.198983,20.79,186.85,3.47595,0.0,0.0
765,191,24.0047,24.799,148.612,98.1475,70.0099,0.010454,0.199682,20.7865,186.67,3.00757,0.0,0.0
780,194.75,24.5687,25.6617,146.823,98.1415,67.7777,0.00987864,0.203131,20.7797,186.49,3.2955,0.0,0.0
795,198.5,24.9183,25.8616,144.972,98.1403,71.5858,0.00891604,0.201714,20.785,186.34,2.80874,0.0,0.0
810,202.25,25.2004,26.1781,149.893,98.1206,79.8352,0.00733614,0.191603,20.8019,186.199,1.83599,0.0,0.0
825,206,25.0718,26.4312,149.61,98.1275,86.4976,0.00584029,0.173824,20.8417,186.119,1.12306,0.0,0.0
840,209.75,25.3086,26.4204,148.564,98.1186,90.296,0.00483397,0.154211,20.8714,186.059,0.739654,0.0,0.0
855,213.5,24.7735,25.9402,150.967,98.1206,93.2706,0.00390939,0.137716,20.9,186.019,0.451287,0.0,0.0
870,217.25,24.818,25.8565,151.6,98.1058,94.8288,0.00353499,0.122948,20.9253,185.989,0.302448,0.0,0.0
885,221,24.3022,25.9703,149.769,98.1202,96.0583,0.00327882,0.110815,20.9429,185.959,0.189073,0.0,0.0
900,224.75,23.903,25.0722,158.853,98.1488,96.8253,0.00321709,0.103368,20.9524,185.919,0.120861,0.0,0.0
915,228.5,23.0879,24.6491,155.881,98.1459,96.9448,0.00328684,0.0976283,20.9605,185.909,0.10962,0.0,0.0
930,232.25,22.9118,24.0171,152.967,98.1696,97.1929,0.00332316,0.0930279,20.968,185.899,0.0890206,0.0,0.0
945,236,21.6957,23.3218,158.839,98.156,97.1522,0.00324207,0.0906221,20.9708,185.889,0.0915115,0.0,0.0
960,239.75,21.611,22.9379,156.779,98.1608,97.2145,0.00303784,0.0904216,20.9731,185.879,0.086239,0.0,0.0
975,243.5,21.668,22.8648,153.449,98.1813,96.8062,0.0029,0.0887091,20.9732,185.859,0.125566,0.0,0.0
990,247.25,20.9422,22.5588,153.828,98.1732,97.1823,0.0030557,0.086986,20.9731,185.839,0.0903203,0.0,0.0
1005,251,20.6161,21.4991,155.102,98.1692,97.3489,0.00314915,0.0859988,20.9751,185.829,0.0747049,0.0,0.0
1020,254.75,20.7726,21.0421,154.95,98.1592,97.3875,0.00326399,0.0853091,20.9759,185.829,0.0702669,0.0,0.0
1035,258.5,19.6694,20.895,156.612,98.1604,97.5248,0.00328557,0.0850476,20.9777,185.829,0.0578286,0.0,0.0
1050,262.25,19.6672,20.9292,154.961,98.1797,97.1963,0.00331375,0.0846972,20.9783,185.799,0.0896206,0.0,0.0
1065,266,20.0201,20.9157,157.04,98.1785,97.0496,0.0032459,0.0847503,20.9784,185.779,0.102959,0.0,0.0
1080,269.75,19.9249,20.3342,153.803,98.1789,97.5588,0.00296086,0.0851395,20.9794,185.769,0.0564072,0.0,0.0
1095,273.5,19.6699,20.5643,154.987,98.1841,97.0826,0.00295591,0.0850486,20.9805,185.759,0.100434,0.0,0.0
1110,277.25,19.6073,20.4261,148.923,98.1805,97.7059,0.00323113,0.0850274,20.9807,185.739,0.0431373,0.0,0.0
1125,281,19.0925,20.2451,151.133,98.1724,97.9187,0.00330233,0.0853191,20.9808,185.729,0.0230377,0.0,0.0
1140,284.75,19.3484,19.7836,151.735,98.166,97.6821,0.00317974,0.085649,20.9806,185.709,0.0439896,0.0,0.0
1155,288.5,19.0888,19.9791,151.975,98.1644,97.2192,0.00291978,0.0858969,20.9789,185.689,0.0861402,0.0,0.0
1170,292.25,19.1648,19.8534,148.058,98.1588,97.507,0.00289977,0.0863017,20.978,185.679,0.0593078,0.0,0.0
1185,296,19.3367,19.9979,154.913,98.1339,97.0326,0.00330736,0.0869709,20.9742,185.669,0.100471,0.0,0.0
1200,299.75,18.5065,19.8871,152.946,98.1391,97.4969,0.00349993,0.0876996,20.9733,185.659,0.0584517,0.0,0.0
1215,303.5,18.7368,19.8276,152.59,98.1467,97.3171,0.00346476,0.0878572,20.9715,185.639,0.0755742,0.0,0.0
1230,307.25,18.7104,19.3902,154.043,98.1271,97.1585,0.00320915,0.0880373,20.9709,185.619,0.0883072,0.0,0.0
1245,311,18.9824,19.5908,157.106,98.1206,96.9749,0.00322787,0.0880311,20.9708,185.599,0.104561,0.0,0.0
1260,314.75,18.9814,19.215,154.913,98.1182,97.0763,0.003348,0.087953,20.9707,185.599,0.0950444,0.0,0.0
1275,318.5,18.3724,19.4559,155.671,98.1142,97.2077,0.00337024,0.0879337,20.9726,185.579,0.0826354,0.0,0.0
1290,322.25,18.6185,19.0282,152.841,98.0953,96.7083,0.00294472,0.0878772,20.973,185.549,0.126781,0.0,0.0
1305,326,17.669,19.0976,155.4,98.0909,96.9635,0.00275491,0.0877116,20.9731,185.539,0.102916,0.0,0.0
1320,329.75,18.4481,18.9339,151.762,98.0913,96.9805,0.00284607,0.0872992,20.9731,185.529,0.101396,0.0,0.0
1335,333.5,18.1499,19.1138,157.427,98.1102,97.5736,0.00278607,0.0869749,20.9747,185.529,0.0488238,0.0,0.0
1350,337.25,18.7575,19.1748,151.689,98.0998,96.9262,0.00314506,0.0865261,20.9758,185.499,0.107144,0.0,0.0
1365,341,18.1715,18.847,153.926,98.1042,97.1636,0.00302291,0.0860813,20.976,185.499,0.0857639,0.0,0.0
1380,344.75,18.3498,18.8614,154.354,98.107,97.619,,,,185.469,0.0443951,0.0,0.0
1395,348.5,18.2532,18.7071,153.063,98.1178,97.1628,,,,185.469,0.0870798,0.0,0.0
1409,352,18.1534,18.618,151.095,98.1239,97.6219,,,,185.449,0.0456548,0.0,0.0

File: Vinyl_Siding_Cone_HF25Scan_220331_R2.csv
Names,Time,Stack TC,Smoke TC,Exh Press,Smoke Comp,Smoke Meas,CO Meter,CO2 Meter,O2 Meter,Sample Mass,Ext Coeff,Start Test,Flame Verif
Chan Gain,,500,500,1,1,1,1,1,1,1,1,1.0,1.0
Offset,,0,0,0.133521,0,0,0,0,0,0,0,0.0,0.0
Gain,,1,1,25.011,13.1585,13.8929,1,1,1,1.00096,1.01488,1.0,1.0
Units,sec,C,C,Pa,%,%,%,%,%,g,/m,,
Baseline,,19.0067,19.5888,153.015,99.355,96.9037,0.000921384,0.0723502,20.9968,-833.81,0.222418,,
16,3.75,17.6984,18.2168,154.657,98.7258,95.8166,0.00109629,0.0744454,20.9962,208.381,0.266273,0.0,0.0
32,7.75,17.3314,17.751,153.78,98.7403,96.5501,0.00115382,0.074377,20.9955,208.371,0.199687,0.0,0.0
48,11.75,17.5035,17.7315,148.478,98.7591,96.3848,0.00116442,0.0749395,20.9938,208.351,0.216648,0.0,0.0
64,15.75,17.8501,18.3972,156.705,98.7852,96.5081,0.00106677,0.0758227,20.9935,208.351,0.207613,0.0,0.0
80,19.75,17.684,18.4728,152.663,98.8041,96.4967,0.000913314,0.0770121,20.9918,208.351,0.210369,0.0,0.0
96,23.75,17.7583,18.345,149.488,98.8266,96.2355,0.000757875,0.0772951,20.9912,208.351,0.236522,0.0,0.0
112,27.75,17.8288,18.4945,153.052,98.8543,96.2665,0.000576337,0.0778467,20.991,208.341,0.236155,0.0,0.0
128,31.75,17.7219,18.5517,150.705,98.882,96.2402,0.000615924,0.0788557,20.9893,208.321,0.241082,0.0,0.0
144,35.75,17.91,18.7534,153.875,98.9073,95.5076,0.000740158,0.0788134,20.9904,208.301,0.311389,0.0,0.0
160,39.75,18.5136,18.351,152.651,98.9559,95.2816,0.00106748,0.0785603,20.9906,208.281,0.33685,0.0,0.0
176,43.75,18.5072,19.256,151.203,98.9699,94.8763,0.000972045,0.0784455,20.9916,208.261,0.376066,0.0,0.0
192,47.75,18.5429,19.0336,152.695,98.9977,93.5403,0.000948694,0.0788043,20.9927,208.191,0.504806,0.0,0.0
208,51.75,18.6776,19.0254,150.773,99.0254,92.853,0.00113181,0.0790564,20.9923,208.09,0.572947,0.0,0.0
224,55.75,18.6121,19.1665,153.93,99.0362,92.2018,0.00109629,0.0793421,20.9926,207.97,0.63658,0.0,0.0
240,59.75,19.1905,19.6551,154.784,99.0968,91.8113,0.00105607,0.0794326,20.9926,207.81,0.679812,0.0,0.0
256,63.75,18.8609,19.8736,153.566,99.1197,91.7409,0.0011528,0.0798276,20.992,207.63,0.688695,0.0,0.0
272,67.75,18.6074,19.1268,151.47,99.1133,92.2302,0.0012555,0.0818134,20.9896,207.46,0.640765,0.0,0.0
288,71.75,18.6378,19.8086,150.655,99.1306,92.7911,0.000932417,0.0838766,20.9863,207.26,0.588338,0.0,0.0
304,75.75,19.0224,19.9303,156.692,99.1342,93.3991,0.00115958,0.0837634,20.9877,207.079,0.530522,0.0,0.0
320,79.75,18.7064,19.3228,149.599,99.1274,92.9467,0.00135098,0.0830998,20.989,206.899,0.573133,0.0,0.0
336,83.75,18.6449,19.7122,153.024,99.1242,93.2147,0.00125278,0.0823793,20.9913,206.719,0.547217,0.0,0.0
352,87.75,18.9442,19.9718,150.869,99.0928,93.4797,0.00105832,0.0809936,20.9917,206.539,0.51913,0.0,0.0
368,91.75,19.0874,20.2547,153.552,99.0647,92.9599,0.00116632,0.0803843,20.9936,206.379,0.566246,0.0,0.0
384,95.75,18.9247,19.9738,152.793,99.0326,93.1596,0.00126197,0.0799633,20.9941,206.199,0.544256,0.0,0.0
400,99.75,19.5373,20.2127,150.591,98.9888,93.0849,0.00129933,0.0797157,20.994,206.038,0.547454,0.0,0.0
416,103.75,19.6062,20.1435,149.854,98.9471,93.5869,0.00115358,0.0801769,20.9926,205.878,0.495816,0.0,0.0
432,107.75,19.5045,20.3619,148.936,98.8945,93.3525,0.00118847,0.0816881,20.9918,205.738,0.513413,0.0,0.0
448,111.75,19.2001,20.2717,152.955,98.8354,92.8009,0.000817566,0.0810549,20.9927,205.578,0.560856,0.0,0.0
464,115.75,19.5848,20.1267,153.021,98.7913,93.3241,0.000779727,0.0797241,20.993,205.438,0.506827,0.0,0.0
480,119.75,19.8422,20.4537,150.418,98.735,93.5547,0.00112773,0.0786466,20.9948,205.318,0.479786,0.0,0.0
496,123.75,19.2369,20.4297,153.034,98.6788,92.934,0.00117137,0.0780177,20.9958,205.188,0.533977,0.0,0.0
512,127.75,19.4734,20.5021,151.937,98.6379,93.2066,0.00105674,0.0772694,20.9964,205.068,0.504204,0.0,0.0
528,131.75,20.0628,20.7667,154.736,98.5869,93.7218,0.00134777,0.0768769,20.9965,204.957,0.450533,0.0,0.0
544,135.75,19.9585,20.7943,153.405,98.5587,93.168,0.00147159,0.0767298,20.9965,204.827,0.500747,0.0,0.0
560,139.75,19.9669,20.6708,152.401,98.5258,92.9645,0.00126892,0.0771401,20.9947,204.707,0.517239,0.0,0.0
576,143.75,19.71,20.6477,153.012,98.4704,92.8908,0.00130344,0.0773825,20.9943,204.597,0.519299,0.0,0.0
592,147.75,19.9135,20.5795,155.547,98.4045,92.778,0.00163343,0.0776058,20.994,204.487,0.524158,0.0,0.0
608,151.75,20.228,20.815,152.804,98.3431,92.6135,0.00166792,0.0775285,20.994,204.387,0.534397,0.0,0.0
624,155.75,20.2278,21.1363,152.782,98.2648,92.1267,0.00122222,0.0776894,20.9925,204.287,0.574215,0.0,0.0
640,159.75,20.0303,20.1669,150.177,98.1881,92.541,0.00112901,0.077807,20.9918,204.167,0.527325,0.0,0.0
656,163.75,19.511,20.6506,150.707,98.1275,91.7261,0.000993463,0.07791,20.9916,204.087,0.600565,0.0,0.0
672,167.75,19.8241,20.6753,152.6,98.0544,92.1492,0.00113798,0.0777119,20.9931,203.977,0.55296,0.0,0.0
688,171.75,19.953,20.7571,149.568,97.9737,92.0581,0.0011683,0.0776265,20.9938,203.886,0.55444,0.0,0.0
704,175.75,20.1244,20.3475,151.208,97.9038,91.9368,0.00115217,0.0784567,20.9922,203.796,0.559823,0.0,0.0
720,179.75,20.0677,20.5836,148.693,97.8524,92.3472,0.00124008,0.0785113,20.9917,203.716,0.515495,0.0,0.0
736,183.75,20.1107,20.5734,149.167,97.805,92.1963,0.0010491,0.0779909,20.9916,203.616,0.525746,0.0,0.0
752,187.75,19.9545,20.5143,153.343,97.7861,91.7821,0.00130454,0.0776207,20.9916,203.546,0.564115,0.0,0.0
768,191.75,19.9746,20.5664,150.38,97.7773,91.9389,0.00144112,0.0772254,20.9916,203.456,0.548107,0.0,0.0
784,195.75,19.9513,21.1663,151.649,97.7833,91.6188,0.0013093,0.0765671,20.9937,203.406,0.579705,0.0,0.0
800,199.75,20.1458,21.0468,149.223,97.8199,91.342,0.00130315,0.0770798,20.9922,203.306,0.609975,0.0,0.0
816,203.75,19.983,20.8992,144.429,97.8709,84.089,0.00275939,0.0872751,20.964,203.286,1.35116,0.0,1.0
832,207.75,19.7178,21.1326,145.525,97.9263,49.1875,0.00865869,0.146763,20.8531,202.976,6.13003,0.0,0.0
848,211.75,21.756,22.1512,145.9,98.0162,44.0387,0.0153268,0.224432,20.7011,202.565,7.12256,0.0,0.0
864,215.75,23.0835,24.0498,141.391,98.1034,51.0581,0.0180293,0.257549,20.6591,202.195,5.81384,0.0,0.0
880,219.75,24.636,25.3519,142.597,98.2126,54.9548,0.0172817,0.257021,20.6745,201.854,5.16898,0.0,0.0
896,223.75,25.8651,26.7505,142.819,98.3515,59.0984,0.0147414,0.240081,20.712,201.624,4.53443,0.0,0.0
912,227.75,26.5139,27.3114,143.373,98.4636,63.7554,0.0130002,0.227166,20.737,201.374,3.86931,0.0,0.0
928,231.75,26.9525,28.1924,146.035,98.5985,68.989,0.0109614,0.214375,20.7641,201.214,3.17916,0.0,0.0
944,235.75,27.0336,28.4496,146.474,98.715,78.2529,0.00855831,0.195064,20.8003,201.044,2.06796,0.0,0.0
960,239.75,27.3959,28.56,148.321,98.8105,86.7583,0.00663492,0.173035,20.8405,200.944,1.15801,0.0,0.0
976,243.75,27.104,28.5438,153.046,98.9338,90.9617,0.00528385,0.148346,20.8834,200.823,0.747923,0.0,0.0
992,247.75,27.0198,28.2671,154.336,99.0539,94.9954,0.00447755,0.128173,20.9193,200.783,0.372441,0.0,0.0
1008,251.75,26.6085,27.9979,153.494,99.1611,95.6593,0.00387161,0.111657,20.9459,200.733,0.320066,0.0,0.0
1024,255.75,26.2484,27.7121,149,99.2631,95.2125,0.00330307,0.0978447,20.9676,200.723,0.370904,0.0,0.0
1040,259.75,25.8775,27.2106,147.11,99.3502,95.7573,0.00309704,0.0884696,20.9792,200.723,0.32792,0.0,0.0
1056,263.75,24.5294,26.277,149.087,99.4522,96.64,0.00326315,0.0833965,20.9824,200.673,0.255365,0.0,0.0
1072,267.75,24.191,25.8954,150.709,99.5301,96.4475,0.0031749,0.0805961,20.9849,200.673,0.280084,0.0,0.0
1088,271.75,24.2919,25.7834,150.548,99.5908,97.393,0.00323919,0.0796077,20.9864,200.663,0.198661,0.0,0.0
1104,275.75,23.5077,24.6952,150.787,99.6438,97.6313,0.0032866,0.0794821,20.9876,200.623,0.181645,0.0,0.0
1120,279.75,23.2736,24.6351,150.9375,99.692,97.1674,0.00315044,0.0795018,20.9869,200.593,0.228344,0.0,0.0
1136,283.75,23.3463,24.6443,151.833,99.7422,97.2255,0.00331634,0.0795316,20.987,200.593,0.227504,0.0,0.0
1152,287.75,22.2957,24.1003,150.731,99.7671,97.3921,0.00357722,0.0805693,20.9868,200.563,0.214484,0.0,0.0
1168,291.75,22.4137,24.065,154.052,99.7831,97.1886,0.00398358,0.0815822,20.9863,200.533,0.234538,0.0,0.0
1184,295.75,22.0816,24.1625,153.623,99.7915,97.9565,0.00396762,0.0826399,20.9848,200.523,0.165235,0.0,0.0
1200,299.75,21.9617,23.1828,151.551,99.8136,97.591,0.00418756,0.0837797,20.9822,200.493,0.200481,0.0,0.0
1216,303.75,22.0607,23.2453,151.009,99.8112,97.4829,0.00423328,0.0848814,20.9797,200.453,0.210134,0.0,0.0
1232,307.75,22.0093,23.0957,153.094,99.7968,97.8823,0.00465589,0.0859327,20.9792,200.443,0.172446,0.0,0.0
1248,311.75,21.6924,22.5976,150.772,99.7992,97.5494,0.00496052,0.086877,20.9791,200.443,0.202982,0.0,0.0
1264,315.75,21.5266,22.8675,154.617,99.7719,97.1026,0.00521162,0.087581,20.9772,200.403,0.241423,0.0,0.0
1280,319.75,21.4797,22.5545,154.253,99.7602,97.3739,0.00525805,0.0882551,20.9768,200.353,0.215541,0.0,0.0
1296,323.75,21.4015,22.1011,149.489,99.7241,97.7114,0.0053994,0.0889274,20.9752,200.323,0.181514,0.0,0.0
1312,327.75,21.3589,22.6411,154.148,99.6679,97.1365,0.00565696,0.0897983,20.9737,200.283,0.229028,0.0,0.0
1328,331.75,21.3864,22.5673,149.226,99.6482,97.8204,0.00534767,0.0904466,20.972,200.273,0.164813,0.0,0.0
1344,335.75,21.2205,22.2093,148.329,99.5868,97.9454,0.0052327,0.0910652,20.97,200.253,0.147947,0.0,0.0
1360,339.75,20.9692,22.1262,153.301,99.5297,97.2535,0.00522235,0.0913979,20.9697,200.203,0.205962,0.0,0.0
1376,343.75,20.8198,22.0633,150.46,99.4747,97.5168,0.00522358,0.091488,20.9694,200.173,0.176972,0.0,0.0
1392,347.75,20.8208,22.1808,151.207,99.4113,97.1115,0.00512506,0.0918292,20.9693,200.153,0.208372,0.0,0.0
1408,351.75,20.6801,21.9949,147.567,99.3462,97.0067,0.00508147,0.0916928,20.9705,200.123,0.212149,0.0,0.0
1424,355.75,20.5245,21.7486,155.147,99.2856,97.9001,0.00485535,0.0921962,20.969,200.093,0.125108,0.0,0.0
1440,359.75,20.8589,21.48,152.194,99.2245,97.1238,0.00444592,0.0925687,20.9676,200.073,0.190507,0.0,0.0
1456,363.75,20.7779,21.231,155.713,99.1539,96.8414,0.00464489,0.0925475,20.9674,200.033,0.210084,0.0,0.0
1472,367.75,20.7053,21.4841,147.227,99.1069,96.7837,0.00470271,0.0926983,20.9673,200.023,0.211167,0.0,0.0
1488,371.75,20.2596,21.9762,152.618,99.0551,96.8749,,0.0927209,,200.013,0.198131,0.0,0.0
1504,375.75,20.2056,21.468,150.064,99.0226,96.509,,,,199.953,0.228896,0.0,0.0
1520,379.75,20.3862,21.565,148.9,99.0711,97.1178,,,,199.903,0.177277,0.0,0.0
1529,382,20.5321,21.0913,148.843,99.1366,96.9495,,,,199.913,0.1986,0.0,0.0