Folder: fsri_materials_database/01_Data/Vinyl_Siding/Cone (part 3)

File: Vinyl_Siding_Cone_HF50Scan_220331_R2.csv
Names,Time,Stack TC,Smoke TC,Exh Press,Smoke Comp,Smoke Meas,CO Meter,CO2 Meter,O2 Meter,Sample Mass,Ext Coeff,Start Test,Flame Verif
Chan Gain,,500,500,1,1,1,1,1,1,1,1,1.0,1.0
Offset,,0,0,0.133521,0,0,0,0,0,0,0,0.0,0.0
Gain,,1,1,25.011,13.1585,13.8929,1,1,1,1.00096,1.01488,1.0,1.0
Units,sec,C,C,Pa,%,%,%,%,%,g,/m,,
Baseline,,28.7941,30.1806,147.204,99.2974,96.4496,0.000502731,0.0636043,21.0418,-834.427,0.259081,,
11,2.5,29.2011,29.902,145.53,99.176,95.8493,0.000701847,0.0691331,21.0361,198.581,0.30374,0.0,0.0
22,5.25,27.9909,29.8077,148.386,99.1322,96.6951,0.000658516,0.0687422,21.0362,198.601,0.221593,0.0,0.0
33,8,28.6118,29.9644,147.7,99.1338,95.982,0.000365999,0.0677014,21.0392,198.551,0.287637,0.0,0.0
44,10.75,28.7574,29.7324,145.308,99.1153,96.0447,0.00046291,0.0662555,21.0417,198.521,0.280161,0.0,0.0
55,13.5,28.6625,29.8962,144.372,99.1025,95.1675,0.000642355,0.0651045,21.0425,198.481,0.360689,0.0,0.0
66,16.25,28.3493,29.6988,146.969,99.08,88.5382,0.000920959,0.0666064,21.0408,198.341,1.00147,0.0,0.0
77,19,28.0041,30.1335,149.371,99.0744,82.24,0.00118716,0.0711963,21.0352,198.041,1.6579,0.0,0.0
88,21.75,28.9101,30.7447,147.297,99.0507,78.9067,0.00151145,0.0763389,21.0324,197.55,2.02412,0.0,0.0
99,24.5,28.9376,30.1679,142.957,99.0302,71.8122,0.00203826,0.0809066,21.0309,197.06,2.86099,0.0,0.0
110,27.25,29.0012,30.7302,143.556,99.0085,65.3177,0.00279386,0.0849798,21.0286,196.559,3.70292,0.0,0.0
121,30,29.5775,31.1242,138.289,98.992,83.5552,0.00706358,0.107222,21.0137,196.109,1.50926,0.0,0.0
132,32.75,30.4405,31.7818,134.107,98.9896,61.3497,0.0175556,0.163753,20.8915,195.689,4.25916,0.0,1.0
143,35.5,31.3093,33.0365,131.021,98.9764,44.427,0.0284409,0.228427,20.7741,195.138,7.13118,0.0,1.0
154,38.25,32.3582,34.0321,142.467,98.9699,43.3459,0.0364905,0.264053,20.6918,194.497,7.34992,0.0,0.0
165,41,33.7893,35.4968,132.479,98.9563,49.7764,0.0399503,0.298924,20.6345,193.957,6.11723,0.0,0.0
176,43.75,35.0118,37.0354,133.511,98.9451,47.0031,0.0422516,0.337502,20.5755,193.406,6.62656,0.0,0.0
187,46.5,36.46,38.3587,135.312,98.9322,43.7762,0.0436251,0.359158,20.5371,192.866,7.25858,0.0,0.0
198,49.25,37.6785,39.9119,135.612,98.937,47.7095,0.0419938,0.358048,20.5369,192.375,6.49305,0.0,0.0
209,52,38.699,41.4169,129.491,98.9242,56.0979,0.0377887,0.340034,20.5697,191.985,5.04998,0.0,0.0
220,54.75,39.3773,42.4268,139.888,98.9137,59.438,0.032672,0.314475,20.6192,191.625,4.53416,0.0,0.0
231,57.5,40.0965,42.5869,133.728,98.8985,61.0491,0.0285302,0.285537,20.6701,191.324,4.29469,0.0,0.0
242,60.25,40.9335,43.2782,135.72,98.9049,62.1841,0.0252571,0.259028,20.7167,191.074,4.13128,0.0,0.0
253,63,40.8499,43.2965,134.168,98.8993,66.705,0.0227225,0.236078,20.7544,190.824,3.50599,0.0,0.0
264,65.75,40.9154,44.0575,136.481,98.8896,68.4997,0.0204812,0.21854,20.7842,190.594,3.26877,0.0,0.0
275,68.5,41.7935,44.2835,142.777,98.8784,73.3894,0.0184605,0.206136,20.807,190.403,2.65392,0.0,0.0
286,71.25,41.6467,44.1607,142.361,98.8607,74.4036,0.0168587,0.194903,20.8261,190.183,2.53015,0.0,0.0
297,74,41.4045,44.7264,140.399,98.8704,74.6983,0.0154896,0.186583,20.8423,190.013,2.49583,0.0,0.0
308,76.75,41.8664,44.4615,136.213,98.8555,74.6537,0.0141077,0.179537,20.8516,189.853,2.4998,0.0,0.0
319,79.5,41.8901,44.6083,140.958,98.8406,74.8356,0.0125354,0.175091,20.8594,189.753,2.4768,0.0,0.0
330,82.25,41.5834,44.7311,139.649,98.8479,75.3257,0.0112699,0.172012,20.8652,189.623,2.41934,0.0,0.0
341,85,41.8433,44.3494,139.862,98.8551,78.135,0.00999035,0.167112,20.8732,189.493,2.09401,0.0,0.0
352,87.75,41.4983,44.4385,139.981,98.8362,80.9452,0.00877423,0.16193,20.8853,189.402,1.77776,0.0,0.0
363,90.5,41.2068,44.274,138.131,98.835,82.7818,0.00781976,0.156334,20.8951,189.302,1.5779,0.0,0.0
374,93.25,41.4252,44.2883,141.727,98.8145,83.1541,0.00709091,0.15199,20.904,189.242,1.53612,0.0,0.0
385,96,41.0402,44.415,141.203,98.8137,84.758,0.00646605,0.148167,20.9109,189.192,1.36597,0.0,0.0
396,98.75,41.1845,43.8977,136.886,98.8238,86.2195,0.00556391,0.145158,20.9149,189.102,1.21468,0.0,0.0
407,101.5,40.4277,43.8933,143.063,98.8234,87.8268,0.00482544,0.142054,20.9195,189.062,1.05021,0.0,0.0
418,104.25,40.6642,43.7208,141.044,98.8166,89.4854,0.00431372,0.138502,20.9257,189.012,0.883037,0.0,0.0
429,107,40.4861,43.0204,145.391,98.8129,89.6533,0.0042581,0.134176,20.9339,188.982,0.866024,0.0,0.0
440,109.75,40.3035,43.113,142.799,98.8021,91.5192,0.00444231,0.128873,20.9441,188.932,0.681665,0.0,0.0
451,112.5,39.5621,42.8504,143.309,98.823,92.8424,0.00453318,0.122346,20.9554,188.922,0.55575,0.0,0.0
462,115.25,39.7825,42.5634,146.198,98.8603,94.0584,0.00467578,0.116658,20.9656,188.872,0.443273,0.0,0.0
473,118,39.3936,42.0148,142.9,98.8643,95.2481,0.0050836,0.110761,20.9739,188.852,0.33174,0.0,0.0
484,120.75,39.4072,41.7295,149.138,98.8394,94.4099,0.00551209,0.105756,20.9815,188.852,0.408188,0.0,0.0
495,123.5,38.0545,41.3514,146.778,98.8499,95.0781,0.00600095,0.101716,20.9873,188.802,0.346343,0.0,0.0
506,126.25,38.1286,40.9149,143.18,98.872,94.8885,0.00647338,0.098963,20.9904,188.782,0.366094,0.0,0.0
517,129,37.9665,40.655,145.43,98.8904,95.4075,0.0067489,0.0971005,20.9932,188.732,0.319203,0.0,0.0
528,131.75,37.5931,40.3451,143.204,98.9013,95.3893,0.00688949,0.0955656,20.9945,188.702,0.32188,0.0,0.0
539,134.5,37.5064,40.0874,144.493,98.8969,94.9229,0.00720171,0.0948628,20.9953,188.672,0.365115,0.0,0.0
550,137.25,36.8124,39.3388,143.497,98.9202,95.357,0.00761602,0.0941252,20.9968,188.642,0.326586,0.0,0.0
561,140,36.2344,39.2792,139.55,98.9226,94.6876,0.00784941,0.0934271,20.9963,188.642,0.389525,0.0,0.0
572,142.75,36.1796,38.2795,147.349,98.9085,95.2472,0.00791667,0.0933955,20.9954,188.632,0.335796,0.0,0.0
583,145.5,35.8208,38.3763,143.576,98.9001,95.3566,0.00794173,0.0936682,20.9958,188.582,0.324818,0.0,0.0
594,148.25,35.9328,38.3747,142.78,98.8888,96.2262,0.00804013,0.0935886,20.9974,188.542,0.24299,0.0,0.0
605,151,35.5445,37.7947,142.303,98.8824,95.6975,0.00807965,0.0935978,20.998,188.512,0.29146,0.0,0.0
616,153.75,34.9221,37.3426,148.994,98.8567,95.4257,0.00783387,0.0934092,20.9995,188.502,0.314464,0.0,0.0
627,156.5,35.2253,37.7298,146.923,98.8105,95.8717,0.00754069,0.0931125,21.0003,188.462,0.268791,0.0,0.0
638,159.25,35.0984,37.1884,147.014,98.8057,95.416,0.00735803,0.092988,21,188.432,0.310779,0.0,0.0
649,162,34.9446,37.4588,144.757,98.8089,95.4571,0.00732279,0.093122,21.0014,188.402,0.307233,0.0,0.0
660,164.75,34.0584,36.4273,145.546,98.8153,95.6589,0.00740572,0.0932058,21.0019,188.402,0.289011,0.0,0.0
671,167.5,34.155,36.6186,144.405,98.8174,96.138,0.00742207,0.0930354,21.002,188.381,0.244716,0.0,0.0
682,170.25,34.353,36.5192,145.216,98.8254,95.5716,0.00728976,0.092895,21.0017,188.331,0.298047,0.0,0.0
693,173,34.2847,36.4256,146.298,98.8149,95.5313,0.00718986,0.0928201,21.0015,188.321,0.300859,0.0,0.0
704,175.75,33.4067,36.4444,143.377,98.825,95.65,0.00696081,0.0924911,21.0015,188.281,0.290708,0.0,0.0
715,178.5,34.3399,36.433,144.472,98.8262,95.4859,0.00677877,0.092244,21.0015,188.261,0.306101,0.0,0.0
726,181.25,33.868,35.5435,145.551,98.8326,95.53,0.00645435,0.0919087,21.0009,188.221,0.30257,0.0,0.0
737,184,34.2472,36.1386,140.958,98.831,95.7017,0.00624763,0.0917018,21.0029,188.201,0.286437,0.0,0.0
748,186.75,33.5094,36.1702,144.09,98.8402,96.0172,0.00607247,0.0915859,21.0035,188.171,0.257974,0.0,0.0
759,189.5,32.9878,35.4381,144.009,98.8491,95.929,0.00589062,0.0913744,21.0037,188.171,0.26695,0.0,0.0
770,192.25,33.2789,35.3866,147.022,98.8491,95.4295,0.00564739,0.0912767,21.0038,188.141,0.313421,0.0,0.0
781,195,33.4225,35.8686,142.628,98.8575,95.5779,0.00529995,0.0911699,21.0038,188.141,0.300347,0.0,0.0
792,197.75,33.2654,35.5098,144.315,98.8615,95.8022,0.0052909,0.0909716,21.0049,188.111,0.279844,0.0,0.0
803,200.5,32.9606,34.9388,147.784,98.874,95.7882,0.00523245,0.0907727,21.0058,188.061,0.282264,0.0,0.0
814,203.25,32.9477,35.2976,144.361,98.8832,95.2544,0.00506235,0.0905865,21.006,188.041,0.332845,0.0,0.0
825,206,33.3126,35.285,145.159,98.8993,95.5444,0.00509104,0.0901484,21.0073,188.021,0.307229,0.0,0.0
836,208.75,33.142,35.3406,140.935,98.8929,95.6559,0.00496269,0.090055,21.0067,188.001,0.296267,0.0,0.0
847,211.5,33.3569,35.3428,142.78,98.8997,95.2544,0.00478417,0.0898424,21.0063,187.981,0.334327,0.0,0.0
858,214.25,33.1899,35.0669,143.634,98.9198,95.8586,0.00478437,0.0896472,21.0062,187.971,0.279846,0.0,0.0
869,217,33.0554,35.109,145.398,98.9161,95.7738,0.00483788,0.0896316,21.008,187.941,0.287401,0.0,0.0
880,219.75,33.2086,34.6906,142.205,98.9173,95.9358,0.00475029,0.0897249,21.0086,187.921,0.272466,0.0,0.0
891,222.5,33.2184,34.6286,141.131,98.9322,95.6937,0.00453839,0.0896791,21.009,187.901,0.296298,0.0,0.0
902,225.25,33.2226,35.0606,143.331,98.9406,96.2707,0.00451048,0.0894778,21.0105,187.871,0.243535,0.0,0.0
913,228,33.6216,34.3655,145.604,98.9575,95.4499,0.00429319,0.0895013,21.011,187.841,0.321282,0.0,0.0
924,230.75,32.8565,34.7954,143.457,98.9635,95.6971,0.00394103,0.089709,21.0111,187.831,0.298799,0.0,0.0
935,233.5,32.7467,34.15,141.47,98.9788,95.6178,0.00367852,0.0896297,21.0097,187.811,0.30755,0.0,0.0
946,236.25,33.285,34.8507,145.234,98.99,95.8111,0.00346352,0.0894495,21.0103,187.771,0.29058,0.0,0.0
957,239,32.3714,34.0934,145.588,99.0005,95.6657,0.00324671,0.089089,21.0102,187.751,0.305042,0.0,0.0
968,241.75,33.6079,34.8397,146.612,99.0121,95.8595,0.00324448,0.0890767,21.01,187.751,0.288076,0.0,0.0
979,244.5,33.1932,34.593,145.471,99.0334,95.5792,,0.0887958,,187.711,0.316055,0.0,0.0
990,247.25,33.0422,34.6367,143.77,99.033,95.5003,,,,187.691,0.323367,0.0,0.0
1001,250,32.8614,34.5265,144.996,99.0342,95.848,,,,187.671,0.291126,0.0,0.0
1012,252.75,32.6038,34.4713,140.529,99.0555,96.082,,,,187.651,0.271327,0.0,0.0
1021,255,33.0127,34.1972,144.373,99.0627,95.7208,,,,187.641,0.305509,0.0,0.0

File: Vinyl_Siding_Cone_HF50Scan_220331_R3.csv
Names,Time,Stack TC,Smoke TC,Exh Press,Smoke Comp,Smoke Meas,CO Meter,CO2 Meter,O2 Meter,Sample Mass,Ext Coeff,Start Test,Flame Verif
Chan Gain,,500,500,1,1,1,1,1,1,1,1,1.0,1.0
Offset,,0,0,0.133521,0,0,0,0,0,0,0,0.0,0.0
Gain,,1,1,25.011,13.1585,13.8929,1,1,1,1.00096,1.01488,1.0,1.0
Units,sec,C,C,Pa,%,%,%,%,%,g,/m,,
Baseline,,31.4995,32.8901,145.935,97.8836,95.2935,0.000421397,0.0677196,21.0334,-834.74,0.238811,,
11,2.5,27.7778,29.3528,145.159,98.5045,95.6466,0.000742797,0.0712481,21.0299,207.46,0.262109,0.0,0.0
22,5.25,28.0536,29.1301,147.682,98.5061,95.2519,0.000748301,0.0709477,21.0305,207.4,0.29907,0.0,0.0
33,8,27.984,30.0071,148.903,98.5567,96.018,0.000693,0.0701422,21.0328,207.34,0.232324,0.0,0.0
44,10.75,28.4739,29.8014,144.38,98.5612,96.0337,0.000562829,0.0693112,21.0353,207.34,0.231268,0.0,0.0
55,13.5,28.8,30.1301,146.676,98.5768,94.6477,0.00042221,0.0683473,21.036,207.34,0.362102,0.0,0.0
66,16.25,28.8351,30.4193,148.435,98.5941,90.9112,0.000569763,0.0692767,21.036,207.26,0.72224,0.0,0.0
77,19,28.5423,30.0051,147.372,98.619,83.2817,0.00110107,0.073629,21.0343,206.939,1.50483,0.0,0.0
88,21.75,29.2561,30.2203,143.1,98.6479,77.8442,0.00161683,0.081442,21.0276,206.489,2.10853,0.0,0.0
99,24.5,29.3611,30.2995,146.685,98.6603,74.8403,0.00170984,0.0883725,21.0225,205.968,2.45999,0.0,0.0
110,27.25,29.4945,31.001,143.726,98.6599,70.581,0.00184099,0.0924581,21.0196,205.498,2.9816,0.0,0.0
121,30,30.1607,31.3735,142.141,98.6885,67.8722,0.00336282,0.0936623,21.0132,205.078,3.33256,0.0,0.0
132,32.75,29.8656,31.5487,142.256,98.7009,75.0459,0.0105738,0.118887,20.9634,204.697,2.43922,0.0,1.0
143,35.5,31.6203,32.6618,134.53,98.7198,42.6255,0.0223445,0.200329,20.7939,204.127,7.47658,0.0,1.0
154,38.25,32.8429,34.0027,134.926,98.7182,44.7336,0.0317795,0.278221,20.6599,203.586,7.04671,0.0,1.0
165,41,33.9325,35.4158,130.434,98.7222,44.31,0.0367377,0.320017,20.5966,203.056,7.13176,0.0,1.0
176,43.75,35.3208,36.5855,133.984,98.7133,44.3486,0.0378045,0.330471,20.5825,202.575,7.12322,0.0,0.0
187,46.5,36.5315,37.9441,133.276,98.733,50.3699,0.0367386,0.325443,20.5903,202.125,5.99159,0.0,0.0
198,49.25,37.2538,39.8684,130.299,98.7282,50.7324,0.0342237,0.312385,20.6145,201.764,5.92731,0.0,0.0
209,52,38.4293,40.3296,128.539,98.7346,58.1847,0.0306374,0.296732,20.6476,201.414,4.70775,0.0,0.0
220,54.75,38.8769,41.5085,135.747,98.7174,68.0694,0.026657,0.28035,20.6837,201.064,3.30935,0.0,0.0
231,57.5,39.9869,41.7032,137.089,98.7358,71.3887,0.0230491,0.259739,20.7261,200.813,2.88715,0.0,0.0
242,60.25,39.5524,42.5059,134.184,98.7298,74.6338,0.019727,0.238425,20.7614,200.563,2.49085,0.0,0.0
253,63,40.7262,43.0448,135.767,98.7391,75.3694,0.0172896,0.220682,20.7921,200.373,2.40437,0.0,0.0
264,65.75,40.8527,43.1665,139.992,98.7354,78.2376,0.0157195,0.208059,20.8119,200.153,2.07154,0.0,0.0
275,68.5,40.9659,43.4648,141.768,98.7463,74.4027,0.0149954,0.197607,20.8275,199.943,2.51994,0.0,0.0
286,71.25,41.3814,44.0908,134.622,98.7555,73.8168,0.0147797,0.189637,20.8383,199.762,2.59116,0.0,0.0
297,74,41.2296,43.9704,138.202,98.7611,73.0125,0.0145416,0.182709,20.846,199.602,2.6892,0.0,0.0
308,76.75,41.4507,44.0337,137.029,98.7656,71.465,0.0141269,0.178992,20.8516,199.422,2.88032,0.0,0.0
319,79.5,41.6008,44.2682,132.208,98.7772,71.2899,0.0136312,0.176318,20.8551,199.262,2.90321,0.0,0.0
330,82.25,41.5442,44.5309,141.335,98.7929,71.8415,0.012985,0.17443,20.8564,199.122,2.836,0.0,0.0
341,85,41.8332,44.4437,138.811,98.8129,74.8216,0.012236,0.172397,20.8582,198.982,2.47597,0.0,0.0
352,87.75,41.9084,44.1446,144.108,98.819,72.6165,0.0112278,0.170368,20.8606,198.862,2.74283,0.0,0.0
363,90.5,41.9519,44.5754,139.301,98.8214,76.6842,0.0100535,0.168985,20.8639,198.721,2.25783,0.0,0.0
374,93.25,41.9266,44.2889,136.74,98.8097,75.9448,0.00924223,0.166954,20.8692,198.611,2.34304,0.0,0.0
385,96,41.7428,44.435,138.304,98.821,80.0599,0.00827166,0.162965,20.8787,198.511,1.87428,0.0,0.0
396,98.75,42.04,44.6486,144.252,98.8314,83.1643,0.00715402,0.157516,20.8904,198.481,1.53655,0.0,0.0
407,101.5,41.8891,43.968,143.318,98.8214,87.8391,0.00617755,0.151362,20.9012,198.411,1.04878,0.0,0.0
418,104.25,41.3331,43.8851,143.466,98.817,88.6124,0.00519602,0.145073,20.9163,198.331,0.970348,0.0,0.0
429,107,40.9113,43.4683,142.258,98.8121,90.823,0.00472919,0.139247,20.9277,198.331,0.750547,0.0,0.0
440,109.75,41.143,43.8174,139.834,98.8258,90.7904,0.00453867,0.134616,20.9348,198.281,0.754978,0.0,0.0
451,112.5,40.9797,43.1568,144.283,98.8182,91.8554,0.00452977,0.130877,20.9381,198.241,0.650467,0.0,0.0
462,115.25,40.6136,43.4079,145.924,98.8053,93.0659,0.00447963,0.123962,20.9478,198.191,0.532759,0.0,0.0
473,118,40.2793,43.2468,142.263,98.7884,93.8201,0.00447911,0.116708,20.9603,198.141,0.459379,0.0,0.0
484,120.75,39.8895,43.0794,138.868,98.786,95.2286,0.00472598,0.109187,20.9713,198.111,0.326508,0.0,0.0
495,123.5,39.6679,42.2459,144.364,98.8013,95.3668,0.00532954,0.103905,20.9793,198.101,0.314972,0.0,0.0
506,126.25,38.8093,42.3603,143.655,98.7997,95.7234,0.00589936,0.100214,20.9872,198.081,0.281604,0.0,0.0
517,129,39.4728,41.3089,143.057,98.8069,96.0956,0.0063026,0.0977756,20.991,198.061,0.247702,0.0,0.0
528,131.75,38.6338,41.0018,144.113,98.8057,95.9782,0.00641856,0.0961172,20.9935,198.021,0.25848,0.0,0.0
539,134.5,37.9815,40.7214,148.625,98.8158,96.3932,0.00640392,0.0952182,20.9956,197.981,0.220967,0.0,0.0
550,137.25,38.5694,40.3244,142.021,98.8133,95.9493,0.00627072,0.0949613,20.9963,197.961,0.261842,0.0,0.0
561,140,37.6837,40.155,148.68,98.8178,96.0655,0.00616318,0.0946262,20.9976,197.931,0.251468,0.0,0.0
572,142.75,36.9309,39.534,142.877,98.8029,95.48,0.00593495,0.0941299,20.9985,197.901,0.304555,0.0,0.0
583,145.5,37.1833,39.6021,146.745,98.7929,95.6186,0.00571379,0.0936091,21.0003,197.881,0.290733,0.0,0.0
594,148.25,36.5826,39.1949,141.755,98.8057,95.9587,0.00571287,0.0932222,21.001,197.861,0.26029,0.0,0.0
605,151,36.3333,38.5765,144.878,98.8029,96.4984,0.00571629,0.0932452,21.0012,197.821,0.210104,0.0,0.0
616,153.75,36.3243,38.5213,141.988,98.7965,96.2058,0.0055789,0.0930479,21.0012,197.821,0.236555,0.0,0.0
627,156.5,36.41,38.5114,143.974,98.784,95.9968,0.00547059,0.092955,21.0017,197.811,0.254795,0.0,0.0
638,159.25,35.765,38.3762,142.101,98.7764,96.8189,0.00547433,0.0930581,21.0023,197.74,0.178195,0.0,0.0
649,162,35.9144,37.8734,144.783,98.7792,95.9667,0.00527211,0.0932615,21.0025,197.72,0.257154,0.0,0.0
660,164.75,35.6958,37.8507,144.434,98.7587,95.5788,0.00508658,0.0931207,21.0026,197.73,0.291369,0.0,0.0
671,167.5,34.9369,38.0319,146.656,98.7495,95.8277,0.00511329,0.0929605,21.0026,197.7,0.267384,0.0,0.0
682,170.25,35.7997,37.2336,145.203,98.7427,96.0816,0.00515949,0.0933499,21.0026,197.66,0.243207,0.0,0.0
693,173,35.6605,37.3917,139.177,98.7451,95.8722,0.00518626,0.0934416,21.0026,197.64,0.262852,0.0,0.0
704,175.75,35.4866,37.3718,143.813,98.7443,96.5438,0.00491671,0.0933077,21.0026,197.59,0.200636,0.0,0.0
715,178.5,34.9754,37.2736,145.914,98.7226,95.8751,0.00471939,0.0932554,21.0025,197.58,0.260548,0.0,0.0
726,181.25,34.7649,37.1621,145.147,98.6929,96.4462,0.00468157,0.0932696,21.0021,197.55,0.204997,0.0,0.0
737,184,34.782,37.0731,147.52,98.68,96.0977,0.0044707,0.0928686,21.0036,197.51,0.236066,0.0,0.0
748,186.75,34.7378,36.9917,144.189,98.684,96.1889,0.00430303,0.0926332,21.0041,197.49,0.227986,0.0,0.0
759,189.5,34.7594,36.5084,144.043,98.6712,96.3797,0.00456687,0.0921521,21.0042,197.46,0.209188,0.0,0.0
770,192.25,34.7695,37.0038,137.218,98.6599,95.7793,0.00467267,0.0919245,21.0043,197.44,0.263799,0.0,0.0
781,195,34.6136,36.451,148.669,98.6403,95.5466,0.00442834,0.091602,21.0043,197.41,0.283685,0.0,0.0
792,197.75,34.9002,36.5459,146.187,98.6134,96.2287,0.00428377,0.0915747,21.0043,197.39,0.217921,0.0,0.0
803,200.5,34.299,36.3192,145.948,98.6097,95.8968,0.00416226,0.0915446,21.0052,197.39,0.24836,0.0,0.0
814,203.25,34.3245,36.4103,145.934,98.5901,95.731,0.00396893,0.0915433,21.0038,197.34,0.261987,0.0,0.0
825,206,34.0224,37.0111,143.116,98.574,95.0263,0.00380382,0.0911822,21.0039,197.34,0.326307,0.0,0.0
836,208.75,34.1103,35.4264,147.833,98.5455,95.8048,0.00375316,0.0906453,21.0049,197.3,0.251103,0.0,0.0
847,211.5,33.6917,36.2508,143.978,98.5326,96.2491,0.00378125,0.0904457,21.0044,197.27,0.208749,0.0,0.0
858,214.25,34.1113,36.1857,148.287,98.5086,95.3617,0.00392653,0.0904033,21.0049,197.29,0.289031,0.0,0.0
869,217,33.9806,35.6637,143.909,98.5017,96.244,0.0039573,0.0903315,21.0052,197.27,0.206426,0.0,0.0
880,219.75,34.2368,36.1332,142.158,98.4547,96.2003,0.00371728,0.0900604,21.0061,197.23,0.206218,0.0,0.0
891,222.5,34.0477,36.1791,144.042,98.423,96.1673,0.00348966,0.089526,21.0072,197.2,0.20641,0.0,0.0
902,225.25,34.1529,35.9508,143.324,98.421,95.745,0.00330977,0.089046,21.0085,197.17,0.245407,0.0,0.0
913,228,34.0018,36.0988,144.572,98.3905,95.4355,0.00319153,0.0888185,21.0115,197.15,0.271471,0.0,0.0
924,230.75,34.1217,36.0092,144.402,98.3568,95.3138,0.00327218,0.0885451,21.0125,197.15,0.279776,0.0,0.0
935,233.5,33.9667,36.367,141.219,98.3214,95.9523,0.00325566,0.0883244,21.0129,197.13,0.217138,0.0,0.0
946,236.25,33.3841,35.0944,140.802,98.2973,95.2065,0.0030681,0.0880068,21.013,197.09,0.28442,0.0,0.0
957,239,33.9753,36.0424,145.964,98.2744,95.9599,0.00286343,0.087826,21.0146,197.06,0.212175,0.0,0.0
968,241.75,33.8929,35.6866,144.446,98.2512,95.2994,,0.0879932,,197.05,0.271558,0.0,0.0
979,244.5,33.7017,34.8628,147.281,98.2254,95.628,,,,197.02,0.238587,0.0,0.0
990,247.25,33.9822,35.5382,143.604,98.2082,96.3415,,,,196.99,0.17084,0.0,0.0
1001,250,34.0667,35.0379,142.725,98.2018,95.7971,,,,197,0.220704,0.0,0.0
1004,250.75,33.76,35.6423,145.291,98.1897,96.3254,,,,196.99,0.170654,0.0,0.0

File: Vinyl_Siding_Cone_HF75Scalar_220331_R1.csv
LABORATORY,FSRI
TEST IDENT,Vinyl_Siding_HF75_1
OPERATOR,Dow
MATERIAL,Vinyl Siding
ORIENTATION,Horizontal
HEAT FLUX,75
SURF AREA,0.00884
C FACTOR,0.0397155
SPEC HOLDER DIFF,-566
SPECIMEN MASS,13.55
SCAN TIME,0.25
O2 DELAY TIME,11
CO DELAY TIME,11
CO2 DELAY TIME,8
FLOW FACTOR,1
SCAN COUNT,876
TIME TO IGN,15.75
END OF TEST SCAN,396
END OF TEST TIME,99
TEST STATUS,1
PRE TEST CMT,Dimensions: 100.66 x 97.43 x 0.94 mm; with frame; with calcium silicate substrate

File: Vinyl_Siding_Cone_HF75Scalar_220331_R2.csv
LABORATORY,FSRI
TEST IDENT,Vinyl_Siding_HF75_2
OPERATOR,Dow
MATERIAL,Vinyl Siding
ORIENTATION,Horizontal
HEAT FLUX,75
SURF AREA,0.00884
C FACTOR,0.0397155
SPEC HOLDER DIFF,-566
SPECIMEN MASS,14.63
SCAN TIME,0.25
O2 DELAY TIME,11
CO DELAY TIME,11
CO2 DELAY TIME,8
FLOW FACTOR,1
SCAN COUNT,969
TIME TO IGN,17.5
END OF TEST SCAN,489
END OF TEST TIME,122.25
TEST STATUS,1
PRE TEST CMT,Dimensions: 101.98 x 100.74 x 0.91 mm; with frame; with calcium silicate substrate
POST TEST CMT,"Prior to ignition, the sample warped and shrivelled. The sample impacted the spark ignitor causing a spike in mass data immediately prior to ignition. "

File: Vinyl_Siding_Cone_HF75Scalar_220331_R3.csv
LABORATORY,FSRI
TEST IDENT,Vinyl_Siding_HF75_3
OPERATOR,Dow
MATERIAL,Vinyl Siding
ORIENTATION,Horizontal
HEAT FLUX,75
SURF AREA,0.00884
C FACTOR,0.0397155
SPEC HOLDER DIFF,-566
SPECIMEN MASS,14.01
SCAN TIME,0.25
O2 DELAY TIME,11
CO DELAY TIME,11
CO2 DELAY TIME,8
FLOW FACTOR,1
SCAN COUNT,865
TIME TO IGN,17.5
END OF TEST SCAN,385
END OF TEST TIME,96.25
TEST STATUS,1
PRE TEST CMT,Dimensions: 101.06 x 100.02 x 1.02 mm; with frame; with calcium silicate substrate