Folder: fsri_materials_database/01_Data/Vinyl_Siding/HFM

Note: 01_Data/README.md
# Materials and Products Database
## 01_Data

Raw data generated from each apparatus are included here in plain-text format. The data is organized first by material, next by the short name of test apparatus used, and where applicable additional filtering by test settings.

### material.json

Each material directory contains a json file of the same name as the material. This file links the data stored in the repository as well as data and graphs produced by the accompanying scripts (__02_Scripts__) to the respective landing page for the material on the front-end website.

File: Vinyl_Siding_Density_Wet_R1.csv
,Vinyl_Siding_WET_1
Sample Mass [g],32.8
Sample Volume [cm3],24.0
Sample Density [kg/m3],1365

File: Vinyl_Siding_Density_Wet_R2.csv
,Vinyl_Siding_WET_2
Sample Mass [g],35.0
Sample Volume [cm3],25.3
Sample Density [kg/m3],1383

File: Vinyl_Siding_Density_Wet_R3.csv
,Vinyl_Siding_WET_3
Sample Mass [g],33.8
Sample Volume [cm3],24.5
Sample Density [kg/m3],1382