Folder: fsri_materials_database/01_Data/Vinyl_Siding/MCC (part 2)

File: Vinyl_Siding_30K_min_210609_R3.txt
Sample ID:	C:\MCC\MCC Cal\Test\Vinyl Siding\Vinyl_Siding_30_3.txt
Sample Weight (mg):	4.69
Heating Rate (C/s):	0.5
Combustor Temp (C):	900
N2 Flow Rate (cc/min):	80
O2 Flow Rate (cc/min):	20
Calibration File:	C:\MCC\MCC Cal\Coeff1 JN10440_30_210304.txt.txt
T Correction Coefficients:	0	1.024463	0
Time Shift (s):	14
*
Time (s)	Temperature (C)	N2 flow rate (cc/min)	O2 flow rate (cc/min)	Flow Rate (cc/min)	Oxygen (%)	HRR (W/g)	Heating rate (C/s)
0.000	111.309	79.982	19.992	99.889	20.077	0.040	0.023
8.000	111.241	79.980	19.993	99.896	20.077	0.070	-0.009
16.000	111.161	79.982	19.994	99.913	20.072	0.367	-0.014
24.000	111.287	79.980	19.994	100.047	20.051	1.788	0.044
32.000	111.956	79.983	19.994	100.114	20.034	2.926	0.093
40.000	113.219	79.982	19.993	100.101	20.035	2.893	0.172
48.001	114.863	79.983	19.993	100.116	20.038	2.652	0.232
56.000	116.937	79.984	19.992	100.113	20.033	2.983	0.278
64.000	119.217	79.982	19.992	100.110	20.035	2.861	0.273
72.001	121.786	79.982	19.993	100.141	20.028	3.308	0.315
80.000	124.652	79.984	19.991	100.151	20.026	3.470	0.375
88.000	127.754	79.981	19.992	100.092	20.022	3.731	0.398
96.000	131.088	79.982	19.995	100.159	20.021	3.767	0.421
104.000	134.611	79.981	19.993	100.159	20.023	3.637	0.426
112.000	138.391	79.982	19.993	100.155	20.018	4.010	0.500
120.001	142.220	79.981	19.994	100.153	20.022	3.717	0.458
128.000	146.242	79.981	19.994	100.149	20.028	3.315	0.501
136.000	150.326	79.984	19.992	100.149	20.021	3.819	0.499
144.000	154.350	79.982	19.993	100.144	20.023	3.638	0.482
152.000	158.420	79.982	19.993	100.134	20.027	3.396	0.512
160.000	162.519	79.979	19.992	100.129	20.025	3.533	0.493
168.000	166.696	79.982	19.993	100.123	20.020	3.880	0.533
176.000	170.751	79.981	19.993	100.124	20.027	3.377	0.510
184.000	174.790	79.981	19.994	100.111	20.021	3.814	0.487
192.000	178.855	79.983	19.993	100.107	20.024	3.592	0.492
200.000	182.841	79.982	19.994	100.096	20.025	3.539	0.501
208.000	186.842	79.982	19.993	100.090	20.021	3.790	0.530
216.000	190.735	79.985	19.993	100.086	20.021	3.772	0.513
224.000	194.577	79.980	19.993	100.078	20.028	3.335	0.478
232.000	198.463	79.981	19.993	100.082	20.022	3.736	0.489
240.000	202.330	79.983	19.992	100.077	20.021	3.765	0.459
248.000	206.150	79.983	19.992	100.075	20.017	4.055	0.463
256.000	210.088	79.980	19.993	100.076	20.020	3.878	0.524
264.000	214.006	79.985	19.993	100.076	20.013	4.305	0.510
272.000	217.883	79.981	19.993	100.074	20.016	4.099	0.492
280.000	221.832	79.983	19.993	100.078	20.014	4.276	0.515
288.000	225.766	79.982	19.993	100.076	20.000	5.212	0.505
296.000	229.752	79.984	19.993	100.077	19.994	5.615	0.521
304.000	233.749	79.981	19.993	100.071	19.982	6.376	0.511
312.000	237.734	79.981	19.992	100.072	19.969	7.246	0.473
320.000	241.707	79.981	19.993	100.072	19.960	7.841	0.489
328.000	245.685	79.982	19.993	100.053	19.957	8.045	0.459
336.000	249.683	79.981	19.992	100.062	19.961	7.802	0.510
344.000	253.597	79.983	19.993	100.073	19.966	7.485	0.464
352.000	257.511	79.983	19.993	100.075	19.962	7.700	0.465
360.000	261.464	79.981	19.993	100.078	19.952	8.362	0.520
368.000	265.387	79.983	19.993	100.078	19.939	9.273	0.474
376.000	269.277	79.984	19.992	100.085	19.929	9.893	0.485
384.000	273.265	79.982	19.994	100.112	19.922	10.403	0.523
392.000	277.205	79.982	19.994	100.144	19.908	11.316	0.498
400.000	281.103	79.982	19.992	100.154	19.900	11.845	0.454
408.000	285.141	79.980	19.992	100.173	19.905	11.526	0.522
416.000	289.071	79.981	19.993	100.190	19.915	10.889	0.474
424.000	293.100	79.983	19.993	100.199	19.926	10.148	0.486
432.000	297.130	79.982	19.992	100.181	19.920	10.508	0.532
440.000	301.160	79.983	19.993	100.163	19.918	10.625	0.518
448.000	305.202	79.982	19.993	100.131	19.912	11.014	0.493
456.000	309.264	79.983	19.992	100.065	19.924	10.269	0.512
464.000	313.291	79.981	19.993	100.015	19.944	8.936	0.491
472.000	317.376	79.981	19.994	99.989	19.954	8.260	0.480
480.000	321.506	79.982	19.993	99.974	19.967	7.384	0.533
488.000	325.510	79.981	19.993	100.006	19.978	6.643	0.482
496.000	329.481	79.982	19.993	99.994	19.983	6.344	0.490
504.000	333.587	79.982	19.994	100.004	19.981	6.448	0.508
512.000	337.670	79.984	19.992	100.004	19.977	6.727	0.525
520.000	341.676	79.983	19.994	100.028	19.972	7.042	0.489
528.000	345.696	79.982	19.993	100.035	19.970	7.194	0.499
536.000	349.554	79.985	19.994	100.036	19.961	7.815	0.470
544.000	353.805	79.982	19.993	100.049	19.957	8.062	0.495
552.000	357.816	79.981	19.993	100.068	19.954	8.234	0.515
560.000	361.827	79.982	19.994	100.073	19.952	8.364	0.517
568.000	365.854	79.981	19.994	100.073	19.944	8.938	0.523
576.000	369.771	79.982	19.993	100.077	19.939	9.268	0.490
584.000	373.822	79.984	19.993	100.076	19.934	9.589	0.519
592.000	377.863	79.983	19.993	100.079	19.904	11.591	0.511
600.000	381.869	79.985	19.993	100.087	19.885	12.872	0.492
608.000	385.930	79.983	19.991	100.095	19.858	14.663	0.511
616.000	389.931	79.985	19.994	100.098	19.824	16.907	0.514
624.000	394.070	79.981	19.993	100.080	19.789	19.210	0.500
632.000	398.147	79.981	19.993	100.077	19.751	21.740	0.520
640.000	402.169	79.982	19.993	100.073	19.710	24.520	0.481
648.000	406.197	79.980	19.994	100.080	19.669	27.202	0.521
656.000	410.288	79.981	19.994	100.079	19.634	29.587	0.533
664.001	414.260	79.982	19.992	100.080	19.608	31.271	0.511
672.000	418.280	79.983	19.992	100.076	19.591	32.411	0.509
680.000	422.350	79.982	19.993	100.076	19.574	33.558	0.492
688.001	426.404	79.984	19.992	100.072	19.563	34.307	0.539
696.000	430.392	79.984	19.992	100.070	19.529	36.542	0.500
704.000	434.534	79.982	19.993	100.061	19.482	39.690	0.538
712.000	438.549	79.980	19.993	100.043	19.420	43.827	0.491
720.000	442.608	79.981	19.992	100.051	19.351	48.407	0.510
728.000	446.675	79.980	19.992	100.057	19.278	53.266	0.513
736.000	450.754	79.981	19.993	100.042	19.204	58.144	0.498
744.001	454.889	79.983	19.993	100.038	19.165	60.782	0.514
752.000	458.968	79.983	19.993	100.034	19.135	62.751	0.525
760.000	462.975	79.983	19.991	100.031	19.122	63.628	0.465
768.000	467.012	79.983	19.992	100.027	19.169	60.520	0.493
776.000	471.086	79.984	19.991	100.031	19.255	54.756	0.506
784.000	475.175	79.981	19.993	100.024	19.334	49.519	0.505
792.000	479.224	79.982	19.992	100.027	19.403	44.911	0.513
800.000	483.288	79.980	19.993	100.035	19.473	40.239	0.508
808.000	487.367	79.981	19.992	100.025	19.548	35.285	0.503
816.000	491.452	79.982	19.993	100.025	19.620	30.473	0.485
824.000	495.590	79.982	19.993	100.030	19.691	25.757	0.486
832.000	499.776	79.982	19.993	100.026	19.752	21.664	0.527
840.000	503.877	79.982	19.993	100.014	19.805	18.193	0.527
848.000	507.999	79.984	19.993	100.007	19.849	15.250	0.533
856.000	512.012	79.982	19.992	100.024	19.890	12.518	0.491
864.000	516.146	79.982	19.993	100.021	19.919	10.571	0.533
872.000	520.203	79.981	19.993	100.004	19.941	9.103	0.514
880.000	524.321	79.980	19.992	99.999	19.964	7.597	0.556
888.000	528.390	79.981	19.993	100.005	19.971	7.094	0.521
896.000	532.478	79.981	19.993	100.014	19.985	6.158	0.532
904.000	536.581	79.983	19.993	99.995	19.994	5.573	0.515
912.000	540.636	79.982	19.994	99.998	19.997	5.388	0.516
920.000	544.725	79.982	19.993	100.013	20.004	4.939	0.513
928.000	548.762	79.984	19.992	100.005	20.010	4.490	0.514
936.000	552.799	79.981	19.993	100.000	20.015	4.167	0.480
944.000	556.849	79.983	19.994	99.997	20.012	4.378	0.534
952.000	560.985	79.982	19.993	100.006	20.019	3.932	0.575
960.000	564.947	79.982	19.992	100.020	20.022	3.738	0.494
968.000	569.046	79.980	19.992	100.011	20.021	3.814	0.510
976.001	573.135	79.981	19.993	100.000	20.023	3.666	0.545
984.000	577.211	79.982	19.993	100.006	20.032	3.086	0.523
992.000	581.292	79.981	19.993	100.010	20.029	3.291	0.504
1000.000	585.416	79.983	19.994	99.999	20.029	3.274	0.521
1008.000	589.440	79.984	19.992	100.000	20.029	3.263	0.512
1016.000	593.519	79.981	19.991	100.002	20.028	3.310	0.533
1024.000	597.619	79.982	19.993	100.018	20.033	2.966	0.526
1032.000	601.730	79.982	19.992	100.003	20.031	3.125	0.513
1040.000	605.755	79.982	19.992	100.008	20.036	2.787	0.489
1048.000	609.901	79.982	19.992	100.008	20.034	2.949	0.514
1056.000	614.022	79.982	19.992	100.001	20.034	2.922	0.501
1064.000	618.080	79.985	19.993	100.022	20.036	2.805	0.515
1072.000	622.154	79.983	19.993	99.994	20.035	2.855	0.473
1080.000	626.220	79.982	19.993	99.995	20.036	2.795	0.497
1088.001	630.278	79.984	19.993	99.999	20.032	3.028	0.512
1096.000	634.388	79.982	19.993	100.013	20.037	2.700	0.525
1104.000	638.520	79.982	19.993	99.996	20.034	2.897	0.528
1112.000	642.620	79.981	19.992	100.004	20.039	2.583	0.492
1120.000	646.703	79.983	19.992	100.009	20.042	2.384	0.517
1128.000	650.885	79.982	19.993	99.997	20.044	2.241	0.505
1136.001	654.930	79.983	19.993	99.997	20.039	2.561	0.507
1144.000	659.015	79.983	19.993	99.993	20.041	2.434	0.489
1152.001	663.117	79.983	19.994	99.996	20.040	2.555	0.502
1160.000	667.236	79.984	19.993	100.002	20.039	2.582	0.516
1168.001	671.364	79.985	19.993	100.006	20.041	2.472	0.526
1176.000	675.523	79.982	19.993	99.998	20.039	2.571	0.525
1184.000	679.618	79.982	19.992	99.997	20.037	2.707	0.486
1192.001	683.704	79.984	19.993	99.998	20.036	2.760	0.537
1200.001	687.756	79.983	19.993	100.006	20.038	2.675	0.491
1208.000	691.751	79.981	19.993	100.000	20.037	2.752	0.537
1216.001	695.803	79.984	19.993	100.000	20.037	2.731	0.512
1224.000	699.762	79.983	19.991	100.000	20.040	2.506	0.507
1232.000	703.780	79.982	19.993	100.002	20.042	2.407	0.520
1240.001	707.760	79.983	19.993	99.997	20.040	2.530	0.503
1248.000	711.761	79.984	19.992	99.996	20.041	2.467	0.472
1256.001	715.764	79.984	19.994	100.011	20.044	2.243	0.515
1264.001	719.756	79.983	19.994	99.996	20.043	2.297	0.457
1272.001	723.786	79.984	19.993	99.993	20.037	2.743	0.484
1280.000	727.869	79.982	19.992	99.994	20.041	2.485	0.522
1288.000	731.946	79.981	19.993	99.997	20.041	2.488	0.514
1296.000	736.004	79.982	19.992	99.997	20.040	2.512	0.497
1304.000	740.067	79.981	19.991	99.995	20.039	2.595	0.511
1310.500	743.396	79.985	19.992	99.997	20.044	2.291	0.500