Folder: fsri_materials_database/01_Data/Vinyl_Siding/MCC

Note: 01_Data/README.md
# Materials and Products Database
## 01_Data

Raw data generated from each apparatus are included here in plain-text format. The data is organized first by material, next by the short name of test apparatus used, and where applicable additional filtering by test settings.

### material.json

Each material directory contains a json file of the same name as the material. This file links the data stored in the repository as well as data and graphs produced by the accompanying scripts (__02_Scripts__) to the respective landing page for the material on the front-end website.

File: Vinyl_Siding_30K_min_210609_R1.txt
Sample ID:	C:\MCC\MCC Cal\Test\Vinyl Siding\Vinyl_Siding_30_1.txt
Sample Weight (mg):	4.15
Heating Rate (C/s):	0.5
Combustor Temp (C):	900
N2 Flow Rate (cc/min):	80
O2 Flow Rate (cc/min):	20
Calibration File:	C:\MCC\MCC Cal\Coeff1 JN10440_30_210304.txt.txt
T Correction Coefficients:	0	1.024463	0
Time Shift (s):	14
*
Time (s)	Temperature (C)	N2 flow rate (cc/min)	O2 flow rate (cc/min)	Flow Rate (cc/min)	Oxygen (%)	HRR (W/g)	Heating rate (C/s)
0.000	104.456	79.976	19.992	99.862	20.059	0.589	-0.057
8.000	104.421	79.977	19.993	99.846	20.061	0.428	-0.013
16.000	104.448	79.975	19.990	99.856	20.068	-0.118	0.006
24.000	104.449	79.979	19.994	99.872	20.059	0.561	0.034
32.001	104.572	79.978	19.994	99.926	20.054	0.988	0.017
40.000	104.956	79.983	19.993	100.036	20.035	2.400	0.066
48.000	105.920	79.981	19.993	100.060	20.023	3.281	0.152
56.001	107.315	79.981	19.993	100.080	20.019	3.573	0.193
64.000	109.170	79.980	19.993	100.096	20.016	3.785	0.238
72.001	111.359	79.980	19.992	100.092	20.020	3.497	0.312
80.000	113.829	79.979	19.995	100.102	20.015	3.902	0.358
88.000	116.504	79.977	19.994	100.105	20.012	4.102	0.351
96.001	119.409	79.979	19.992	100.099	20.010	4.276	0.385
104.000	122.548	79.974	19.992	100.115	20.011	4.172	0.430
112.000	125.808	79.978	19.996	100.116	20.005	4.658	0.441
120.000	129.296	79.978	19.993	100.116	20.015	3.915	0.421
128.000	132.839	79.978	19.993	100.118	20.011	4.170	0.430
136.000	136.552	79.981	19.991	100.115	20.011	4.158	0.462
144.000	140.390	79.979	19.992	100.119	20.007	4.484	0.510
152.000	144.255	79.983	19.993	100.112	20.013	4.016	0.515
160.000	148.185	79.980	19.994	100.102	20.012	4.094	0.473
168.000	152.212	79.979	19.993	100.107	20.011	4.185	0.558
176.000	156.146	79.984	19.994	100.099	20.009	4.330	0.486
184.000	160.182	79.979	19.994	100.085	20.009	4.332	0.516
192.000	164.267	79.977	19.993	100.084	20.009	4.303	0.514
200.000	168.253	79.981	19.995	100.079	20.008	4.436	0.515
208.000	172.237	79.980	19.994	100.079	20.006	4.540	0.471
216.000	176.326	79.981	19.992	100.077	20.005	4.671	0.526
224.000	180.332	79.977	19.990	100.073	20.008	4.385	0.505
232.000	184.362	79.982	19.993	100.072	20.009	4.354	0.500
240.000	188.373	79.979	19.993	100.065	20.007	4.490	0.502
248.000	192.423	79.978	19.993	100.052	20.010	4.249	0.511
256.000	196.397	79.979	19.991	100.061	20.009	4.341	0.503
264.000	200.351	79.979	19.993	100.059	20.008	4.400	0.498
272.000	204.271	79.979	19.994	100.058	20.003	4.796	0.493
280.000	208.225	79.979	19.994	100.043	19.997	5.253	0.499
288.000	212.091	79.981	19.994	100.040	20.002	4.877	0.470
296.000	216.004	79.980	19.994	100.038	19.999	5.092	0.507
304.000	219.903	79.981	19.993	100.089	19.997	5.241	0.499
312.000	223.843	79.982	19.992	100.040	19.992	5.647	0.474
320.000	227.856	79.978	19.993	100.054	19.983	6.307	0.519
328.000	231.817	79.978	19.993	100.041	19.969	7.317	0.466
336.000	235.832	79.979	19.992	100.043	19.963	7.809	0.490
344.000	239.774	79.978	19.993	100.040	19.945	9.154	0.491
352.000	243.869	79.978	19.995	100.037	19.937	9.736	0.533
360.000	247.884	79.980	19.994	100.038	19.940	9.538	0.500
368.000	251.929	79.980	19.994	100.031	19.940	9.532	0.532
376.000	255.907	79.979	19.994	100.037	19.943	9.285	0.479
384.000	259.901	79.979	19.995	100.038	19.940	9.525	0.497
392.000	263.888	79.981	19.993	100.039	19.931	10.189	0.468
400.000	267.874	79.978	19.994	100.054	19.922	10.906	0.513
408.000	271.884	79.979	19.994	100.072	19.912	11.630	0.493
416.000	275.863	79.979	19.993	100.089	19.912	11.669	0.492
424.000	279.792	79.979	19.991	100.111	19.914	11.509	0.460
432.000	283.793	79.978	19.993	100.118	19.917	11.305	0.489
440.000	287.781	79.980	19.994	100.139	19.923	10.803	0.494
448.000	291.778	79.980	19.993	100.151	19.919	11.120	0.496
456.000	295.715	79.979	19.992	100.155	19.919	11.093	0.481
464.000	299.695	79.979	19.994	100.122	19.913	11.588	0.484
472.000	303.737	79.981	19.995	100.074	19.916	11.319	0.503
480.000	307.772	79.979	19.993	100.034	19.915	11.400	0.463
488.000	311.806	79.978	19.993	99.992	19.925	10.616	0.504
496.000	315.822	79.979	19.993	99.953	19.937	9.756	0.508
504.000	319.806	79.979	19.993	99.954	19.953	8.550	0.503
512.000	323.833	79.980	19.993	99.959	19.962	7.903	0.504
520.000	327.809	79.979	19.993	99.965	19.966	7.540	0.487
528.000	331.854	79.979	19.994	99.964	19.972	7.130	0.492
536.000	335.934	79.980	19.993	99.959	19.972	7.120	0.506
544.000	339.982	79.980	19.993	99.962	19.964	7.701	0.526
552.000	343.986	79.982	19.993	99.958	19.966	7.558	0.493
560.000	348.063	79.979	19.994	99.966	19.965	7.678	0.507
568.000	352.143	79.979	19.993	99.973	19.957	8.208	0.505
576.000	356.225	79.978	19.992	99.995	19.959	8.112	0.516
584.001	360.260	79.979	19.993	99.996	19.955	8.369	0.535
592.000	364.286	79.979	19.994	99.998	19.958	8.153	0.529
600.000	368.279	79.980	19.993	99.997	19.949	8.869	0.493
608.000	372.341	79.981	19.993	99.985	19.935	9.910	0.470
616.000	376.348	79.981	19.993	99.998	19.921	10.916	0.475
624.000	380.368	79.981	19.993	99.997	19.897	12.782	0.495
632.000	384.393	79.982	19.993	100.000	19.877	14.257	0.501
640.000	388.426	79.980	19.994	99.996	19.849	16.341	0.496
648.000	392.482	79.978	19.994	100.002	19.821	18.502	0.505
656.000	396.511	79.980	19.993	100.006	19.783	21.331	0.479
664.000	400.635	79.979	19.992	100.002	19.748	23.937	0.513
672.000	404.587	79.978	19.993	99.998	19.708	26.939	0.546
680.000	408.443	79.981	19.992	100.000	19.677	29.265	0.437
688.000	412.482	79.981	19.992	100.003	19.655	30.989	0.492
696.000	416.583	79.980	19.993	100.004	19.638	32.206	0.552
704.000	420.771	79.981	19.994	100.005	19.621	33.473	0.497
712.000	424.925	79.981	19.992	100.004	19.607	34.570	0.538
720.000	429.089	79.980	19.993	100.007	19.593	35.584	0.519
728.001	433.275	79.979	19.993	100.001	19.560	38.111	0.543
736.000	437.481	79.980	19.994	100.001	19.510	41.844	0.522
744.000	441.636	79.980	19.993	99.995	19.447	46.598	0.504
752.000	445.746	79.980	19.994	99.998	19.374	52.078	0.486
760.000	449.861	79.980	19.994	100.001	19.302	57.470	0.520
768.000	453.980	79.982	19.992	99.995	19.246	61.665	0.519
776.000	458.114	79.979	19.992	99.991	19.205	64.746	0.544
784.000	462.193	79.981	19.993	99.988	19.173	67.145	0.510
792.000	466.281	79.982	19.994	99.972	19.207	64.596	0.556
800.000	470.372	79.979	19.993	99.988	19.284	58.834	0.525
808.000	474.473	79.978	19.994	99.996	19.360	53.148	0.517
816.000	478.525	79.980	19.994	99.993	19.435	47.494	0.514
824.000	482.614	79.978	19.994	99.991	19.499	42.643	0.501
832.000	486.662	79.978	19.994	99.992	19.574	37.067	0.504
840.000	490.784	79.979	19.993	99.996	19.641	31.976	0.508
848.001	494.916	79.982	19.993	99.995	19.705	27.214	0.520
856.000	499.067	79.981	19.993	99.995	19.763	22.838	0.514
864.000	503.151	79.982	19.993	99.988	19.814	19.013	0.470
872.000	507.324	79.983	19.993	99.969	19.855	15.881	0.522
880.000	511.419	79.980	19.994	99.977	19.886	13.581	0.531
888.000	515.599	79.981	19.994	99.967	19.917	11.243	0.537
896.000	519.707	79.980	19.994	99.975	19.937	9.751	0.529
904.000	523.836	79.979	19.994	99.969	19.955	8.403	0.516
912.000	527.938	79.981	19.994	99.976	19.964	7.753	0.519
920.000	532.036	79.980	19.993	99.964	19.977	6.777	0.528
928.000	536.091	79.982	19.993	99.965	19.979	6.606	0.504
936.000	540.146	79.981	19.993	99.964	19.984	6.249	0.521
944.000	544.210	79.983	19.993	99.967	19.987	5.993	0.480
952.000	548.244	80.002	20.000	99.997	19.994	5.491	0.504
960.000	552.270	79.980	19.994	99.987	19.990	5.753	0.508
968.000	556.411	79.978	19.994	99.984	19.993	5.558	0.525
976.000	560.503	79.981	19.994	99.980	20.003	4.811	0.535
984.000	564.530	79.979	19.993	99.975	20.007	4.507	0.490
992.000	568.591	79.979	19.995	99.989	20.010	4.227	0.523
1000.000	572.651	79.981	19.995	99.965	20.008	4.421	0.487
1008.000	576.743	79.981	19.994	99.989	20.008	4.407	0.512
1016.000	580.753	79.981	19.993	99.975	20.010	4.280	0.532
1024.001	584.824	79.982	19.993	99.968	20.016	3.807	0.524
1032.000	588.862	79.982	19.992	99.971	20.017	3.721	0.495
1040.000	592.948	79.981	19.993	99.971	20.015	3.880	0.532
1048.000	597.029	79.980	19.994	99.967	20.016	3.802	0.484
1056.000	601.055	79.982	19.994	99.968	20.020	3.479	0.517
1064.000	605.086	79.980	19.994	99.994	20.020	3.526	0.497
1072.000	609.136	79.979	19.994	99.973	20.018	3.656	0.503
1080.000	613.126	79.981	19.993	99.978	20.021	3.448	0.467
1088.000	617.214	79.980	19.993	99.974	20.018	3.666	0.491
1096.000	621.210	79.979	19.993	100.046	20.017	3.746	0.495
1104.000	625.272	79.982	19.993	99.966	20.016	3.803	0.520
1112.001	629.328	79.983	19.993	99.973	20.024	3.201	0.497
1120.001	633.463	79.981	19.992	99.976	20.020	3.527	0.510
1128.000	637.602	79.981	19.994	99.978	20.021	3.456	0.491
1136.001	641.775	79.979	19.993	99.972	20.022	3.325	0.540
1144.001	645.784	79.978	19.995	99.969	20.019	3.583	0.492
1152.000	649.899	79.979	19.992	99.967	20.027	3.020	0.516
1160.000	653.952	79.981	19.994	99.991	20.020	3.483	0.501
1168.000	658.003	79.983	19.995	99.960	20.016	3.780	0.462
1176.000	662.058	79.981	19.994	99.957	20.011	4.174	0.488
1184.001	666.140	79.983	19.993	99.971	20.015	3.869	0.506
1192.000	670.077	79.983	19.993	99.967	20.018	3.660	0.498
1200.001	674.179	79.979	19.992	99.968	20.022	3.385	0.539
1208.000	678.197	79.981	19.993	99.973	20.015	3.860	0.503
1216.000	682.066	79.980	19.993	99.986	20.014	3.948	0.480
1224.000	686.072	79.978	19.993	99.977	20.012	4.113	0.486
1232.000	689.999	79.980	19.993	99.995	20.016	3.841	0.500
1240.000	694.074	79.984	19.993	99.987	20.010	4.291	0.556
1248.000	698.160	79.981	19.993	99.966	20.010	4.237	0.496
1256.000	702.202	79.978	19.994	99.972	20.009	4.326	0.471
1264.000	706.281	79.984	19.994	99.982	20.014	3.981	0.478
1272.001	710.341	79.982	19.992	99.976	20.015	3.856	0.492
1280.000	714.526	79.978	19.992	99.980	20.013	4.029	0.514
1288.000	718.593	79.981	19.994	99.973	20.017	3.768	0.459
1296.000	722.707	79.981	19.993	99.965	20.009	4.299	0.546
1304.000	726.753	79.980	19.992	99.964	20.017	3.768	0.492
1312.000	730.889	79.981	19.993	99.969	20.013	3.999	0.525
1320.000	734.995	79.981	19.993	99.968	20.012	4.113	0.486
1328.000	739.032	79.981	19.993	99.976	20.010	4.227	0.524
1336.000	743.064	79.981	19.994	99.965	20.013	4.035	0.501
1340.500	745.378	79.980	19.995	99.965	20.012	4.115	0.541

File: Vinyl_Siding_30K_min_210609_R2.txt
Sample ID:	C:\MCC\MCC Cal\Test\Vinyl Siding\Vinyl_Siding_30_2.txt
Sample Weight (mg):	3.72
Heating Rate (C/s):	0.5
Combustor Temp (C):	900
N2 Flow Rate (cc/min):	80
O2 Flow Rate (cc/min):	20
Calibration File:	C:\MCC\MCC Cal\Coeff1 JN10440_30_210304.txt.txt
T Correction Coefficients:	0	1.024463	0
Time Shift (s):	14
*
Time (s)	Temperature (C)	N2 flow rate (cc/min)	O2 flow rate (cc/min)	Flow Rate (cc/min)	Oxygen (%)	HRR (W/g)	Heating rate (C/s)
0.000	111.185	79.981	19.993	99.879	20.067	0.434	0.009
8.000	111.138	79.981	19.993	99.874	20.069	0.307	0.033
16.000	111.080	79.980	19.992	99.885	20.071	0.107	0.008
24.000	111.095	79.980	19.993	99.935	20.063	0.797	0.020
32.000	111.403	79.982	19.993	100.056	20.038	2.924	0.048
39.999	112.269	79.980	19.993	100.079	20.035	3.183	0.117
47.999	113.669	79.982	19.992	100.078	20.034	3.271	0.162
55.999	115.435	79.983	19.992	100.101	20.027	3.852	0.238
63.999	117.558	79.981	19.993	100.116	20.028	3.706	0.280
72.000	119.948	79.981	19.994	100.119	20.024	4.099	0.311
79.999	122.631	79.983	19.992	100.124	20.020	4.414	0.337
87.999	125.595	79.981	19.994	100.149	20.020	4.394	0.372
96.000	128.757	79.981	19.994	100.151	20.012	5.096	0.397
103.999	132.180	79.983	19.994	100.152	20.010	5.263	0.415
111.999	135.760	79.981	19.994	100.146	20.017	4.674	0.456
119.999	139.523	79.981	19.994	100.151	20.013	5.009	0.477
127.999	143.403	79.983	19.994	100.147	20.015	4.810	0.527
136.000	147.359	79.983	19.994	100.132	20.021	4.318	0.495
144.000	151.381	79.981	19.993	100.132	20.017	4.629	0.498
152.000	155.395	79.982	19.993	100.128	20.018	4.563	0.493
160.000	159.456	79.983	19.993	100.113	20.015	4.814	0.515
168.000	163.531	79.982	19.993	100.115	20.018	4.592	0.513
176.000	167.611	79.980	19.993	100.113	20.019	4.466	0.503
184.000	171.645	79.980	19.993	100.106	20.018	4.542	0.484
192.000	175.754	79.981	19.992	100.101	20.019	4.519	0.507
200.000	179.662	79.979	19.993	100.109	20.022	4.231	0.476
208.000	183.686	79.980	19.993	100.101	20.018	4.539	0.477
216.000	187.745	79.984	19.993	100.079	20.017	4.676	0.474
224.000	191.699	79.982	19.992	100.086	20.014	4.926	0.482
232.000	195.635	79.982	19.994	100.079	20.019	4.501	0.446
240.000	199.514	79.985	19.993	100.060	20.019	4.471	0.466
248.000	203.455	79.981	19.993	100.084	20.014	4.913	0.493
256.000	207.373	79.981	19.993	100.085	20.012	5.072	0.492
264.000	211.289	79.981	19.995	100.078	20.010	5.281	0.527
272.000	215.225	79.982	19.993	100.071	20.010	5.218	0.473
280.000	219.197	79.980	19.994	100.078	20.007	5.498	0.487
288.000	223.140	79.982	19.993	100.073	20.003	5.814	0.495
296.000	227.141	79.982	19.993	100.072	20.000	6.097	0.505
304.000	231.132	79.982	19.992	100.077	19.990	6.912	0.477
312.000	235.060	79.982	19.994	100.072	19.976	8.111	0.473
320.000	239.088	79.983	19.993	100.076	19.961	9.336	0.524
328.000	243.020	79.980	19.994	100.075	19.944	10.819	0.480
336.000	247.040	79.981	19.994	100.052	19.943	10.839	0.487
344.000	251.107	79.981	19.992	100.061	19.952	10.150	0.512
352.000	255.174	79.981	19.995	100.070	19.956	9.741	0.504
360.000	259.246	79.981	19.993	100.069	19.955	9.838	0.494
368.000	263.192	79.982	19.993	100.073	19.946	10.588	0.524
376.000	267.210	79.982	19.992	100.076	19.931	11.845	0.527
384.000	271.227	79.980	19.992	100.085	19.923	12.555	0.481
392.000	275.214	79.981	19.993	100.109	19.925	12.423	0.518
400.000	279.229	79.984	19.991	100.114	19.921	12.760	0.482
408.000	283.244	79.981	19.993	100.140	19.928	12.128	0.531
416.000	287.221	79.981	19.994	100.154	19.938	11.264	0.498
424.000	291.278	79.980	19.992	100.154	19.939	11.197	0.538
432.000	295.280	79.980	19.993	100.161	19.936	11.503	0.485
440.000	299.283	79.979	19.993	100.157	19.931	11.856	0.490
448.000	303.280	79.981	19.993	100.131	19.929	12.008	0.493
456.000	307.331	79.982	19.992	100.098	19.930	11.942	0.519
464.000	311.415	79.982	19.992	100.036	19.938	11.287	0.511
472.000	315.429	79.983	19.992	99.997	19.948	10.430	0.534
480.000	319.460	79.984	19.991	99.987	19.957	9.646	0.510
488.000	323.467	79.980	19.993	99.989	19.970	8.612	0.506
496.000	327.436	79.980	19.993	99.968	19.975	8.157	0.503
504.000	331.530	79.979	19.993	99.996	19.975	8.167	0.517
512.000	335.594	79.979	19.993	99.995	19.974	8.287	0.492
520.000	339.619	79.979	19.994	100.003	19.980	7.759	0.541
528.000	343.609	79.980	19.994	100.003	19.978	7.930	0.523
536.000	347.671	79.983	19.994	100.007	19.977	8.008	0.510
544.000	351.708	79.981	19.992	100.016	19.973	8.329	0.487
552.000	355.802	79.985	19.994	100.019	19.969	8.709	0.512
560.000	359.792	79.983	19.993	100.036	19.961	9.359	0.513
568.000	363.821	79.983	19.992	100.038	19.962	9.293	0.470
576.000	367.689	79.980	19.991	100.041	19.957	9.666	0.612
584.000	371.828	79.981	19.992	100.042	19.955	9.865	0.478
592.000	375.846	79.981	19.994	100.037	19.939	11.181	0.551
600.000	379.769	79.978	19.993	100.040	19.923	12.557	0.483
608.000	383.657	79.983	19.993	100.046	19.906	13.930	0.481
616.000	387.593	79.982	19.994	100.044	19.888	15.443	0.478
624.000	391.564	79.981	19.992	100.048	19.862	17.699	0.499
632.000	395.599	79.985	19.992	100.059	19.836	19.879	0.470
640.000	399.575	79.981	19.992	100.054	19.810	22.054	0.485
648.000	403.552	79.982	19.993	100.046	19.777	24.763	0.452
656.000	407.578	79.980	19.992	100.049	19.744	27.546	0.480
664.000	411.615	79.983	19.993	100.051	19.721	29.485	0.485
672.000	415.621	79.982	19.992	100.055	19.702	31.046	0.512
680.000	419.633	79.981	19.995	100.060	19.689	32.171	0.492
688.000	423.726	79.980	19.992	100.041	19.671	33.722	0.516
696.000	427.800	79.982	19.993	100.052	19.658	34.772	0.525
704.000	431.885	79.978	19.993	100.041	19.636	36.620	0.519
712.000	436.032	79.983	19.993	100.040	19.592	40.282	0.538
720.000	440.080	79.984	19.992	100.033	19.530	45.499	0.507
728.000	444.161	79.982	19.993	100.038	19.461	51.267	0.516
736.000	448.192	79.980	19.993	100.033	19.396	56.785	0.523
744.000	452.229	79.981	19.992	100.032	19.335	61.892	0.486
752.000	456.262	79.984	19.992	100.036	19.301	64.750	0.491
760.000	460.298	79.982	19.993	100.028	19.285	66.096	0.506
768.000	464.302	79.981	19.992	100.015	19.285	66.058	0.491
776.000	468.270	79.980	19.992	100.026	19.317	63.377	0.479
784.000	472.349	79.983	19.993	100.028	19.377	58.316	0.515
792.000	476.438	79.984	19.993	100.024	19.441	52.966	0.504
800.000	480.500	79.983	19.993	100.019	19.497	48.240	0.507
808.000	484.601	79.982	19.992	100.023	19.564	42.629	0.499
816.000	488.663	79.980	19.992	100.031	19.625	37.566	0.497
824.000	492.818	79.981	19.992	100.020	19.683	32.671	0.485
832.000	496.979	79.979	19.992	100.018	19.745	27.474	0.521
840.000	501.100	79.981	19.993	100.008	19.790	23.698	0.544
848.000	505.218	79.982	19.993	100.013	19.830	20.318	0.545
856.000	509.276	79.983	19.993	100.004	19.867	17.227	0.497
864.000	513.330	79.982	19.993	100.001	19.898	14.639	0.512
872.000	517.499	79.984	19.993	100.003	19.922	12.595	0.515
880.000	521.636	79.984	19.993	100.002	19.942	10.980	0.520
888.000	525.827	79.981	19.992	100.003	19.956	9.779	0.494
896.000	529.920	79.982	19.992	100.000	19.963	9.204	0.539
904.000	534.065	79.981	19.993	100.011	19.974	8.246	0.537
912.000	538.167	79.980	19.993	99.999	19.982	7.615	0.504
920.000	542.234	79.981	19.992	99.997	19.985	7.317	0.516
928.000	546.336	79.984	19.993	99.998	19.990	6.910	0.529
936.000	550.377	79.983	19.993	99.996	19.994	6.582	0.494
944.000	554.478	79.981	19.993	100.002	19.996	6.458	0.474
952.000	558.616	79.984	19.993	100.001	19.998	6.273	0.551
960.000	562.722	79.981	19.993	100.006	19.999	6.149	0.497
968.000	566.804	79.980	19.994	100.000	20.003	5.856	0.541
976.000	570.897	79.982	19.992	99.997	20.002	5.892	0.539
984.000	575.021	79.981	19.993	99.998	20.008	5.419	0.526
992.000	579.083	79.981	19.994	100.006	20.009	5.307	0.486
1000.000	583.208	79.982	19.992	100.000	20.013	5.000	0.526
1008.000	587.295	79.985	19.993	100.008	20.014	4.900	0.496
1016.000	591.479	79.982	19.992	100.003	20.012	5.105	0.517
1024.000	595.608	79.983	19.993	100.012	20.013	4.997	0.499
1031.999	599.712	79.984	19.993	100.004	20.009	5.357	0.489
1039.999	603.742	79.984	19.993	99.998	20.012	5.043	0.494
1047.999	607.759	79.981	19.993	100.004	20.013	5.018	0.463
1055.999	611.879	79.981	19.994	100.006	20.011	5.120	0.541
1063.999	616.021	79.982	19.992	100.011	20.014	4.888	0.545
1071.999	619.984	79.980	19.993	100.001	20.016	4.772	0.477
1079.999	623.978	79.982	19.992	99.999	20.013	4.979	0.496
1087.999	627.999	79.984	19.994	100.001	20.014	4.922	0.510
1096.001	632.074	79.983	19.993	99.996	20.016	4.772	0.488
1103.999	636.222	79.983	19.993	99.996	20.014	4.867	0.508
1112.000	640.278	79.984	19.993	99.993	20.016	4.772	0.503
1119.999	644.379	79.983	19.994	99.992	20.011	5.177	0.502
1127.999	648.373	79.981	19.992	99.999	20.014	4.947	0.467
1135.999	652.449	79.981	19.994	99.999	20.010	5.280	0.526
1143.999	656.488	79.982	19.994	99.999	20.012	5.095	0.489
1151.999	660.525	79.981	19.993	100.002	20.014	4.895	0.516
1159.999	664.555	79.982	19.994	99.998	20.015	4.863	0.502
1167.999	668.641	79.983	19.993	99.996	20.010	5.218	0.489
1175.999	672.678	79.984	19.992	99.992	20.014	4.929	0.515
1183.999	676.693	79.983	19.992	99.995	20.012	5.034	0.480
1192.000	680.760	79.985	19.992	99.996	20.012	5.100	0.494
1199.999	684.727	79.980	19.993	99.998	20.013	4.995	0.506
1207.999	688.886	79.981	19.993	100.001	20.008	5.396	0.538
1215.999	692.992	79.980	19.992	100.005	20.013	5.029	0.558
1223.999	697.085	79.981	19.993	99.996	20.014	4.924	0.546
1231.999	701.150	79.981	19.993	99.999	20.011	5.186	0.507
1239.999	705.241	79.982	19.992	100.000	20.010	5.252	0.494
1248.000	709.346	79.982	19.993	99.996	20.010	5.270	0.540
1256.000	713.399	79.982	19.993	99.998	20.009	5.362	0.540
1263.999	717.438	79.985	19.992	99.999	20.012	5.031	0.488
1271.999	721.524	79.984	19.992	99.984	20.009	5.347	0.496
1279.999	725.620	79.983	19.992	99.997	20.010	5.254	0.518
1287.999	729.677	79.982	19.993	99.993	20.012	5.090	0.509
1296.000	733.724	79.983	19.994	99.994	20.008	5.368	0.541
1303.999	737.700	79.982	19.993	100.042	20.014	4.885	0.507
1312.000	741.702	79.982	19.994	99.995	20.010	5.209	0.515
1316.000	743.735	79.982	19.994	99.992	20.014	4.924	0.554