Folder: fsri_materials_database/01_Data/Scott_HT_SCBA/Cone

Note: 01_Data/README.md
# Materials and Products Database
## 01_Data

Raw data generated from each apparatus are included here in plain-text format. The data is organized first by material, next by the short name of test apparatus used, and where applicable additional filtering by test settings.

### material.json

Each material directory contains a json file of the same name as the material. This file links the data stored in the repository as well as data and graphs produced by the accompanying scripts (__02_Scripts__) to the respective landing page for the material on the front-end website.

File: Scott_HT_SCBA_Cone_HF50-FrameScan_201103_R1.csv
Names,Time,Stack TC,Smoke TC,Exh Press,Smoke Comp,Smoke Meas,CO Meter,CO2 Meter,O2 Meter,Sample Mass,Ext Coeff,Start Test,Flame Verif
Chan Gain,,500,500,1,1,1,1,1,1,1,1,1.0,1.0
Offset,,0,0,0.134413,0,0,0,0,0,0,0,0.0,0.0
Gain,,1,1,25.011,13.8462,17.0661,1,1,1,1.0009,1.04998,1.0,1.0
Units,sec,C,C,Pa,%,%,%,%,%,g,/m,,
Baseline,,28.7288,31.7265,181.82,102.437,103.643,0.00370355,0.0790577,20.9871,-938.742,-0.10772,,
9,2,25.9445,27.6134,183.629,102.413,103.23,0.00347285,0.0798318,20.9864,2.25202,-0.0731141,0.0,0.0
18,4.25,26.1363,28.19,180.126,102.412,103.89,0.00356309,0.0797289,20.9864,2.16194,-0.132,0.0,0.0
27,6.5,26.248,28.7584,183.477,102.4,103.286,0.00360109,0.0800587,20.9858,2.19196,-0.079393,0.0,0.0
36,8.75,26.4249,28.8188,181.037,102.411,103.47,0.0036486,0.081265,20.9839,2.19196,-0.0947015,0.0,0.0
45,11,27.2827,29.2753,180.72,102.404,103.187,0.00371715,0.0828265,20.9826,2.18195,-0.0701386,0.0,0.0
54,13.25,26.5762,30.1661,182.711,102.4,103.753,0.00379642,0.0832027,20.9825,2.17195,-0.120828,0.0,0.0
63,15.5,26.9946,29.8724,179.65,102.412,103.77,0.00387435,0.0827615,20.9835,2.16194,-0.121336,0.0,0.0
72,17.75,27.1217,30.1934,183.096,102.424,103.548,0.00389361,0.0829986,20.9821,2.15193,-0.100551,0.0,0.0
81,20,26.9896,30.2032,182.726,102.411,103.809,0.00379677,0.0843606,20.9804,2.15193,-0.12487,0.0,0.0
90,22.25,26.8367,29.8369,182.318,102.41,103.323,0.00351476,0.08622,20.9781,2.13191,-0.0817782,0.0,0.0
99,24.5,27.0583,30.2461,182.223,102.43,103.756,0.00330945,0.0860262,20.9775,2.16194,-0.11853,0.0,0.0
108,26.75,27.3416,29.6642,183.729,102.429,103.412,0.00338554,0.0847774,20.9787,2.1219,-0.0879954,0.0,0.0
117,29,27.1185,30.1076,181.476,102.413,103.453,0.00362026,0.0840484,20.9799,2.15193,-0.0930188,0.0,0.0
126,31.25,27.0356,29.9404,187.327,102.418,103.836,0.00382519,0.0840129,20.9804,2.13191,-0.126711,0.0,0.0
135,33.5,27.0735,30.1169,179.63,102.424,104.159,0.00394244,0.0852431,20.9792,2.1219,-0.154739,0.0,0.0
144,35.75,27.1864,30.3064,178.807,102.418,103.991,0.00392589,0.0865303,20.9775,2.10188,-0.140375,0.0,0.0
153,38,27.226,30.5566,182.462,102.426,103.759,0.00386527,0.0861931,20.9775,2.10188,-0.119103,0.0,0.0
162,40.25,27.6115,30.6625,185.462,102.432,103.914,0.00388109,0.0847799,20.9784,2.09187,-0.132292,0.0,0.0
171,42.5,27.4068,31.2726,182.905,102.426,103.466,0.00397933,0.0838143,20.9803,2.08187,-0.0929994,0.0,0.0
180,44.75,27.572,30.7931,183.687,102.431,103.12,0.00398433,0.0829284,20.9811,2.08187,-0.0617458,0.0,0.0
189,47,27.5364,30.6388,182.812,102.422,103.187,0.00380854,0.0825859,20.9814,2.07186,-0.0685512,0.0,0.0
198,49.25,27.8793,30.9583,184.536,102.426,102.581,0.00375327,0.0831873,20.9807,2.07186,-0.0139294,0.0,0.0
207,51.5,27.6611,31.0973,180.689,102.414,102.335,0.00384776,0.0843871,20.9791,2.0118,0.0070967,0.0,0.0
216,53.75,27.6882,31.2071,182.69,102.405,101.789,0.00392422,0.085767,20.977,2.07186,0.0556116,0.0,0.0
225,56,27.9584,30.9799,175.231,102.412,101.478,0.00397792,0.0884141,20.9743,2.03182,0.084435,0.0,0.0
234,58.25,27.9053,31.1705,181.448,102.426,101.305,0.00414205,0.0901422,20.9723,2.04183,0.101357,0.0,0.0
243,60.5,27.8365,31.2796,179.003,102.428,100.499,0.0044027,0.0934267,20.9658,2.0118,0.175179,0.0,0.0
252,62.75,27.8295,31.3703,175.215,102.424,99.022,0.00504224,0.116535,20.9456,1.92172,0.311083,0.0,1.0
261,65,28.7407,33.189,168.447,102.41,89.4353,0.0065029,0.158919,20.9033,1.87168,1.24769,0.0,1.0
270,67.25,28.9383,33.9334,174.403,102.415,82.2157,0.00891212,0.218807,20.8091,1.75157,2.02341,0.0,0.0
279,69.5,31.3987,37.4655,168.396,102.404,79.1189,0.0113648,0.292968,20.7098,1.54138,2.37601,0.0,0.0
288,71.75,33.6598,41.0492,169.938,102.409,70.1619,0.0124698,0.348436,20.6632,1.92172,3.4831,0.0,0.0
297,74,35.7244,43.3269,179.951,102.418,102.847,0.0114475,0.297782,20.7042,-933.106,-0.0385246,0.0,0.0
306,76.25,33.2769,39.9131,184.901,102.406,100.275,0.00956323,0.224915,20.782,-938.771,0.193712,0.0,0.0
315,78.5,31.7356,37.2276,182.854,102.402,103.415,0.00756574,0.168324,20.8597,-938.771,-0.0905836,0.0,0.0
324,80.75,30.7135,35.6228,181.055,102.396,104.334,0.00604736,0.126378,20.9196,-938.741,-0.172662,0.0,0.0
333,83,29.4311,34.2458,187.302,102.405,103.217,0.0050352,0.103997,20.9511,-938.731,-0.0726736,0.0,0.0
342,85.25,28.9898,33.1829,178.878,102.399,103.684,0.00434245,0.0923252,20.9684,-938.751,-0.114884,0.0,0.0
351,87.5,28.4228,32.2715,176.736,102.407,103.939,0.00396499,0.0855907,20.9783,-938.751,-0.136712,0.0,0.0
360,89.75,27.8359,31.4177,181.64,102.394,103.438,0.00378988,0.0820966,20.9827,-938.761,-0.0933921,0.0,0.0
369,92,27.1114,31.3014,184.569,102.38,103.76,0.00365536,0.0811801,20.9838,-938.781,-0.123338,0.0,0.0
378,94.25,27.4127,30.7824,180.039,102.374,103.584,0.00350598,0.0819912,20.9834,-938.771,-0.108231,0.0,0.0
387,96.5,27.284,30.9096,178.683,102.379,103.632,0.00351238,0.0829569,20.9827,-938.751,-0.112043,0.0,0.0
396,98.75,27.2491,30.0601,178.206,102.37,103.635,0.00367775,0.0831562,20.9815,-938.781,-0.113148,0.0,0.0
405,101,27.2104,29.9374,184.421,102.355,103.483,0.00374191,0.0823132,20.982,-938.761,-0.100915,0.0,0.0
414,103.25,27.3449,30.1363,184.843,102.367,103.462,0.00363071,0.0807119,20.9827,-938.741,-0.0980051,0.0,0.0
423,105.5,26.7213,29.8545,178.669,102.356,103.373,0.00350797,0.0790882,20.9851,-938.751,-0.0911374,0.0,0.0
432,107.75,26.6464,29.6353,184.018,102.362,103.165,0.00348249,0.0778767,20.9867,-938.751,-0.0719875,0.0,0.0
441,110,26.34,28.5486,183.447,102.357,103.674,0.00347737,0.0769441,20.9874,-938.771,-0.117806,0.0,0.0
450,112.25,26.2085,28.9128,183.257,102.356,103.46,0.00353444,0.0764533,20.9886,-938.681,-0.098808,0.0,0.0
459,114.5,26.3982,29.2044,183.469,102.348,103.898,0.00348565,0.0761487,20.9891,-938.731,-0.138395,0.0,0.0
468,116.75,25.9581,28.0177,179.528,102.33,104.074,0.00347063,0.0763075,20.9893,-938.751,-0.155622,0.0,0.0
477,119,26.6987,28.7951,182.393,102.334,103.612,0.00339153,0.0764709,20.9894,-938.741,-0.114314,0.0,0.0
486,121.25,26.2001,28.8487,180.582,102.342,103.446,0.00320813,0.0767026,20.9886,-938.791,-0.0987636,0.0,0.0
495,123.5,25.7985,28.7434,188.918,102.331,103.547,0.00315094,0.0783889,20.9863,-938.751,-0.108821,0.0,0.0
504,125.75,25.7252,28.7198,184.49,102.335,103.468,0.00326697,0.0813286,20.9841,-938.731,-0.101405,0.0,0.0
513,128,25.3372,27.8365,181.969,102.33,103.45,0.00347117,0.0835899,20.9818,-938.711,-0.100239,0.0,0.0
522,130.25,25.6419,28.4451,184.289,102.327,103.48,0.00365946,0.0843017,20.9809,-938.761,-0.103147,0.0,0.0
531,132.5,25.7057,28.1626,184.476,102.318,103.302,0.00378692,0.0835154,20.9805,-938.761,-0.0881245,0.0,0.0
540,134.75,25.274,28.2891,176.141,102.299,103.736,0.00378089,0.0819801,20.9808,-938.771,-0.128513,0.0,0.0
549,137,25.9786,28.3624,182.336,102.305,103.62,0.00378407,0.0806998,20.9827,-938.791,-0.117625,0.0,0.0
558,139.25,26.2494,28.2291,183.899,102.304,103.529,0.00375498,0.0794232,20.9843,-938.781,-0.109642,0.0,0.0
567,141.5,25.651,28.5856,186.744,102.279,103.146,0.00358594,0.0784498,20.9857,-938.761,-0.0777214,0.0,0.0
576,143.75,26.0488,28.6361,178.208,102.262,103.895,0.00336276,0.0775308,20.9867,-938.771,-0.145916,0.0,0.0
585,146,26.162,28.3589,178.539,102.261,103.277,0.00328207,0.0769204,20.987,-938.791,-0.0910703,0.0,0.0
594,148.25,25.7659,28.6761,179.885,102.237,104.067,0.00339455,0.0765745,20.9872,-938.781,-0.163348,0.0,0.0
603,150.5,26.1416,28.9513,177.873,102.226,103.166,0.00354408,0.0765578,20.9872,-938.771,-0.0842926,0.0,0.0
612,152.75,25.7538,28.3304,181.922,102.219,103.467,0.00354335,0.0764485,20.9881,-938.771,-0.111776,0.0,0.0
621,155,25.9091,28.5666,176.701,102.216,103.795,0.00345816,0.0761392,20.989,-938.761,-0.141197,0.0,0.0
630,157.25,25.9429,28.5181,180.217,102.192,103.646,0.00341517,0.0760386,20.9892,-938.751,-0.130064,0.0,0.0
639,159.5,25.4318,28.413,180.426,102.176,103.308,0.00336923,0.0758233,20.989,-938.741,-0.10151,0.0,0.0
648,161.75,25.8064,28.1486,184.51,102.176,103.639,0.00331716,0.0757325,20.988,-938.771,-0.130985,0.0,0.0
657,164,25.4036,28.3479,184.78,102.162,103.316,0.00327976,0.075659,20.989,-938.741,-0.103501,0.0,0.0
666,166.25,25.6541,28.2091,180.139,102.157,103.568,0.00325488,0.0754679,20.9894,-938.761,-0.126327,0.0,0.0
675,168.5,26.0373,28.0896,182.745,102.133,103.393,0.00335122,0.0754577,20.9885,-938.771,-0.112876,0.0,0.0
684,170.75,25.5722,28.4677,181.759,102.137,103.571,0.00348427,0.075507,20.9878,-938.761,-0.128433,0.0,0.0
693,173,25.2676,28.9031,182.385,102.127,103.332,0.00360073,0.0755428,20.9875,-938.761,-0.10798,0.0,0.0
702,175.25,25.4883,28.1369,183.032,102.12,103.736,0.00364448,0.0754267,20.9879,-938.781,-0.144582,0.0,0.0
711,177.5,26.0169,28.3949,186.931,102.15,103.364,0.00351284,0.0754365,20.9883,-938.761,-0.1088,0.0,0.0
720,179.75,25.3209,28.4928,178.973,102.149,103.891,0.00341111,0.0754525,20.9878,-938.781,-0.155714,0.0,0.0
729,182,25.6485,28.1824,185.014,102.124,103.256,0.00342512,0.0755429,20.9878,-938.741,-0.101505,0.0,0.0
738,184.25,26.0567,28.284,179.044,102.135,103.444,0.00355549,0.0756297,20.9867,-938.731,-0.117231,0.0,0.0
747,186.5,25.007,28.3106,180.359,102.131,103.543,0.00357407,0.0756942,20.9872,-938.731,-0.126503,0.0,0.0
756,188.75,25.5784,27.9694,180.4,102.134,103.227,0.0034944,0.0757371,20.9875,-938.771,-0.0980345,0.0,0.0
765,191,25.2505,27.8932,183.402,102.11,103.745,,0.0759225,,-938.791,-0.146291,0.0,0.0
774,193.25,25.2294,28.2461,179.623,102.124,103.823,,,,-938.791,-0.15192,0.0,0.0
783,195.5,25.1353,28.2305,181.001,102.119,103.442,,,,-938.801,-0.11857,0.0,0.0
792,197.75,25.7061,28.27,180.35,102.108,102.861,,,,-938.791,-0.0676331,0.0,0.0
801,200,25.3708,28.0677,181.627,102.105,103.424,,,,-938.781,-0.118298,0.0,0.0
804,200.75,25.6891,28.1759,185.94,102.102,103.187,,,,-938.801,-0.0974369,0.0,0.0

File: Scott_HT_SCBA_Cone_HF75-Frame+GridScalar_201103_R1.csv
LABORATORY,FSRI
TEST IDENT,FacePiece_HF75_1
OPERATOR,Dow
MATERIAL,Phoenix Arizona SCBA Face Piece
ORIENTATION,Horizontal
HEAT FLUX,75
SURF AREA,0.01
C FACTOR,0.0377677
SPEC HOLDER DIFF,366.32
SPECIMEN MASS,45.21
SCAN TIME,0.25
O2 DELAY TIME,11
CO DELAY TIME,11
CO2 DELAY TIME,8
FLOW FACTOR,1
SCAN COUNT,711
TIME TO IGN,37.25
END OF TEST SCAN,231
END OF TEST TIME,57.75
TEST STATUS,1
,
POST TEST CMT,removed and extinguished sample 10 seconds after ignition. Pressed end test button shortly after.

File: Scott_HT_SCBA_Cone_HF75-Frame+GridScan_201103_R1.csv
Names,Time,Stack TC,Smoke TC,Exh Press,Smoke Comp,Smoke Meas,CO Meter,CO2 Meter,O2 Meter,Sample Mass,Ext Coeff,Start Test,Flame Verif
Chan Gain,,500,500,1,1,1,1,1,1,1,1,1.0,1.0
Offset,,0,0,0.134413,0,0,0,0,0,0,0,0.0,0.0
Gain,,1,1,25.011,13.8462,17.0661,1,1,1,1.0009,1.04998,1.0,1.0
Units,sec,C,C,Pa,%,%,%,%,%,g,/m,,
Baseline,,30.9925,34.7518,179.832,102.054,103.85,0.00369947,0.0650862,20.9971,-937.438,-0.160654,,
8,1.75,31.0588,34.4002,177.143,101.907,103.507,0.00381445,0.0759882,20.9873,40.9767,-0.143525,0.0,0.0
16,3.75,31.2556,34.6277,177.115,101.832,103.805,0.00395808,0.079805,20.9845,40.9667,-0.176797,0.0,0.0
24,5.75,31.3042,34.733,177.75,101.741,103.585,0.00406367,0.0814513,20.9839,40.9267,-0.165495,0.0,0.0
32,7.75,31.3444,34.5531,180.526,101.672,103.401,0.00410797,0.0808814,20.9848,40.9367,-0.155325,0.0,0.0
40,9.75,31.5573,34.8522,176.693,101.585,103.411,0.00398574,0.0795285,20.9863,40.9167,-0.164141,0.0,0.0
48,11.75,31.3173,34.8675,180.507,101.502,103.418,0.00378617,0.0776872,20.9887,40.9367,-0.172294,0.0,0.0
56,13.75,31.3785,34.6017,176.072,101.414,103.543,0.00368703,0.0766152,20.989,40.9267,-0.191353,0.0,0.0
64,15.75,31.2471,34.6592,180.099,101.337,102.94,0.0035921,0.0779615,20.9864,40.9267,-0.144496,0.0,0.0
72,17.75,31.1817,35.4441,176.41,101.216,103.158,0.0034483,0.0804074,20.9835,40.8966,-0.174991,0.0,0.0
80,19.75,31.2027,35.0929,176.236,101.105,103.014,0.00344368,0.0814896,20.9831,40.9167,-0.17222,0.0,0.0
88,21.75,31.2836,35.399,179.566,101.011,103.123,0.0035445,0.0811312,20.9842,40.9066,-0.190619,0.0,0.0
96,23.75,31.9376,35.1431,177.631,100.912,103.308,0.00359561,0.0793567,20.9857,40.8866,-0.216147,0.0,0.0
104,25.75,31.4929,35.6778,173.075,100.811,102.317,0.00362484,0.0767859,20.987,40.8866,-0.136533,0.0,0.0
112,27.75,31.4167,35.4418,177.729,100.723,102.557,0.00364716,0.0754339,20.9892,40.8566,-0.166193,0.0,0.0
120,29.75,31.3837,35.4944,177.255,100.62,101.552,0.0036745,0.0753011,20.9898,40.8766,-0.0849076,0.0,0.0
128,31.75,31.6947,35.8749,181.915,100.536,101.27,0.00373829,0.0756193,20.9897,40.8566,-0.0669877,0.0,0.0
136,33.75,31.503,35.3577,177.235,100.471,100.838,0.0037822,0.0754026,20.9896,40.8566,-0.0335814,0.0,0.0
144,35.75,31.6789,35.6122,179.461,100.401,99.9433,0.00391774,0.0754725,20.9874,40.8366,0.0421072,0.0,0.0
152,37.75,31.3724,35.6042,181.632,100.335,99.5647,0.00433052,0.0894775,20.9699,40.7765,0.0709793,0.0,1.0
160,39.75,32.264,36.3903,172.062,100.277,91.7722,0.00530046,0.12164,20.9287,40.7265,0.816331,0.0,1.0
168,41.75,33.4483,38.9687,169.775,100.215,80.1392,0.00700499,0.165738,20.8593,40.6564,2.05896,0.0,1.0
176,43.75,34.4004,40.8594,173.908,100.187,73.8962,0.00877864,0.215059,20.7981,40.5363,2.80344,0.0,0.0
184,45.75,35.9557,43.4926,161.903,100.151,68.6625,0.0115663,0.266023,20.7215,40.3461,3.47667,0.0,0.0
192,47.75,37.6096,46.3834,162.741,100.133,62.1195,0.0141067,0.321778,20.6489,40.166,4.39744,0.0,0.0
200,49.75,40.3894,49.2749,161.166,100.132,57.5675,0.015039,0.366522,20.6155,40.146,5.09825,0.0,0.0
208,51.75,40.9396,50.3275,187.727,100.13,95.6898,0.0137552,0.327486,20.6253,-937.47,0.417722,0.0,0.0
216,53.75,39.4313,47.657,184.285,100.141,100.757,0.0107863,0.255075,20.7355,-937.57,-0.0564692,0.0,0.0
224,55.75,37.7471,44.6939,179.436,100.17,101.315,0.00835476,0.180696,20.8311,-937.51,-0.104637,0.0,0.0
232,57.75,36.4854,42.3501,183.405,100.22,101.777,0.00652883,0.140214,20.9027,-937.55,-0.141993,0.0,0.0
240,59.75,35.0637,40.2646,181.779,100.289,102.178,0.00547336,0.113695,20.9397,-937.53,-0.171855,0.0,0.0
248,61.75,34.1548,40.3571,178.575,100.373,101.83,0.00470826,0.098323,20.9614,-937.57,-0.132752,0.0,0.0
256,63.75,33.7413,39.2151,175.136,100.437,102.318,0.00413826,0.0885282,20.9749,-937.57,-0.170942,0.0,0.0
264,65.75,33.7354,38.6474,173.641,100.541,102.405,0.0038313,0.0816171,20.9839,-937.53,-0.169241,0.0,0.0
272,67.75,33.7496,37.9519,175.651,100.648,102.3,0.00372872,0.0769256,20.9896,-937.57,-0.149946,0.0,0.0
280,69.75,33.0425,37.8876,180.065,100.757,103.165,0.00369878,0.0732798,20.9934,-937.58,-0.217572,0.0,0.0
288,71.75,32.731,37.2686,177.262,100.886,102.623,0.00365235,0.0712111,20.9967,-937.55,-0.157314,0.0,0.0
296,73.75,32.5511,36.6639,182.674,100.99,102.881,0.00358201,0.0697052,20.9987,-937.55,-0.170899,0.0,0.0
304,75.75,32.2256,36.7877,181.28,101.109,102.378,0.00351609,0.0685064,20.9999,-937.59,-0.114925,0.0,0.0
312,77.75,32.0057,36.4157,179.089,101.249,103.088,0.0034161,0.0678138,21.0008,-937.59,-0.165798,0.0,0.0
320,79.75,32.0629,35.7243,178.957,101.344,103.136,0.00338337,0.067253,21.0022,-937.56,-0.161441,0.0,0.0
328,81.75,32.554,35.9642,177.132,101.439,103.469,0.00345187,0.0668019,21.0023,-937.55,-0.182507,0.0,0.0
336,83.75,32.2498,35.6657,173.261,101.541,103.622,0.0034547,0.0665743,21.0011,-937.54,-0.186856,0.0,0.0
344,85.75,32.313,35.2831,177.433,101.628,102.782,0.00340744,0.0663197,21.0015,-937.55,-0.103989,0.0,0.0
352,87.75,31.6377,35.2484,178.408,101.711,102.902,0.00342124,0.0660969,21.0021,-937.56,-0.107253,0.0,0.0
360,89.75,31.8681,35.1909,175.285,101.789,102.983,0.00351127,0.065882,21.0023,-937.57,-0.107437,0.0,0.0
368,91.75,31.1882,34.7868,176.934,101.842,103.097,0.00363194,0.0660009,21.0024,-937.57,-0.112863,0.0,0.0
376,93.75,31.6207,35.2641,180.685,101.911,103.479,0.0036827,0.0662094,21.0024,-937.55,-0.140678,0.0,0.0
384,95.75,31.5577,34.9611,179.727,101.955,104.161,0.00363816,0.0664066,21.0012,-937.54,-0.197113,0.0,0.0
392,97.75,31.3873,35.3531,174.576,101.999,103.68,0.00354155,0.0665781,21.0008,-937.54,-0.150569,0.0,0.0
400,99.75,31.1958,34.9742,175.765,102.047,103.97,0.00340063,0.066613,21.0023,-937.56,-0.171916,0.0,0.0
408,101.75,30.879,34.7752,178.483,102.067,103.662,0.00333262,0.0665186,21.0034,-937.59,-0.142901,0.0,0.0
416,103.75,30.6842,34.7697,181.183,102.086,104.124,0.00332404,0.0663133,21.0039,-937.57,-0.182055,0.0,0.0
424,105.75,31.3698,35.0715,177.347,102.113,104.57,0.00332746,0.0661612,21.0034,-937.56,-0.219051,0.0,0.0
432,107.75,31.5422,34.9038,178.646,102.121,104.172,0.00333402,0.0659315,21.0032,-937.58,-0.183137,0.0,0.0
440,109.75,31.3218,34.8099,180.157,102.124,104.192,0.00335267,0.0657584,21.0026,-937.57,-0.184696,0.0,0.0
448,111.75,31.6438,34.9707,181.521,102.123,104.36,0.0033962,0.065758,21.0023,-937.58,-0.199592,0.0,0.0
456,113.75,31.1033,34.6498,179.11,102.132,104.179,0.00342086,0.06577,21.0021,-937.58,-0.182782,0.0,0.0
464,115.75,31.2036,34.5778,175.816,102.147,103.836,0.00345915,0.0656094,21.0021,-937.59,-0.151102,0.0,0.0
472,117.75,31.2988,35.09,176.997,102.15,103.704,0.00354123,0.0657475,21.002,-937.58,-0.139093,0.0,0.0
480,119.75,31.5345,34.9944,182.415,102.143,103.584,0.00352417,0.0659638,21.002,-937.59,-0.129049,0.0,0.0
488,121.75,30.9961,34.341,181.029,102.132,104.216,0.00340294,0.0659048,21.0021,-937.58,-0.186005,0.0,0.0
496,123.75,30.8216,34.6864,177.383,102.119,103.817,0.00325498,0.065789,21.0022,-937.58,-0.151861,0.0,0.0
504,125.75,30.8815,34.7135,178.447,102.1,104.41,0.00328268,0.0657101,21.0023,-937.57,-0.206054,0.0,0.0
512,127.75,31.1382,34.4143,179.095,102.083,104.148,0.00345963,0.0655643,21.0023,-937.6,-0.184448,0.0,0.0
520,129.75,30.5897,34.916,178.508,102.07,103.492,0.00354884,0.0655368,21.0023,-937.59,-0.127489,0.0,0.0
528,131.75,31.0652,34.2472,175.898,102.025,103.789,0.00347721,0.0657568,21.0023,-937.59,-0.157915,0.0,0.0
536,133.75,30.8883,34.3189,180.981,102.007,104.352,0.00334723,0.066056,21.0023,-937.61,-0.209343,0.0,0.0
544,135.75,30.6514,34.5574,177.39,101.974,104.249,0.00333356,0.0661969,21.0023,-937.6,-0.203297,0.0,0.0
552,137.75,30.9636,34.2088,177.305,101.941,103.354,0.00344255,0.0662796,21.0023,-937.58,-0.126835,0.0,0.0
560,139.75,31.6371,34.5496,186.424,101.914,103.69,0.00348014,0.0662852,21.0023,-937.57,-0.159166,0.0,0.0
568,141.75,31.5847,34.8908,178.561,101.891,103.925,0.00340867,0.0661352,21.0023,-937.59,-0.182116,0.0,0.0
576,143.75,31.3139,34.6324,176.775,101.837,103.9,0.00331146,0.0659956,21.0023,-937.57,-0.184752,0.0,0.0
584,145.75,30.8534,34.5113,177.63,101.827,103.795,0.00323715,0.0659176,21.0029,-937.57,-0.176254,0.0,0.0
592,147.75,31.1424,35.0631,176.938,101.791,104.253,0.00328697,0.065887,21.0031,-937.6,-0.220084,0.0,0.0
600,149.75,31.1656,34.3651,172.188,101.772,103.485,0.00340699,0.0656835,21.0021,-937.57,-0.153769,0.0,0.0
608,151.75,30.2979,34.0472,178.022,101.83,103.903,0.003543,0.0656263,21.0028,-937.62,-0.185595,0.0,0.0
616,153.75,30.9742,34.7038,177.732,101.955,103.65,0.00362468,0.0657025,21.0033,-937.61,-0.151946,0.0,0.0
624,155.75,31.1663,34.551,181.957,102.071,104.043,0.00359251,0.0656508,21.0035,-937.61,-0.176284,0.0,0.0
632,157.75,31.3209,34.7934,175.779,102.169,103.618,0.00345949,0.0656881,21.0036,-937.61,-0.129659,0.0,0.0
640,159.75,31.6637,35.0606,178.211,102.251,104.237,0.00335255,0.0658832,21.0036,-937.65,-0.177237,0.0,0.0
648,161.75,31.3085,35.1075,182.545,102.331,104.037,0.00319358,0.0660761,21.0036,-937.63,-0.152311,0.0,0.0
656,163.75,31.0001,35.0111,179.871,102.402,104.685,0.00307286,0.0660941,21.0026,-937.62,-0.203105,0.0,0.0
664,165.75,30.752,35.0163,178.374,102.449,104.379,0.00306452,0.0661834,21.0019,-937.63,-0.171865,0.0,0.0
672,167.75,31.0904,35.1758,183.099,102.483,104.13,,0.0661927,,-937.64,-0.146833,0.0,0.0
680,169.75,30.8256,34.8148,184.585,102.515,103.957,,,,-937.62,-0.128602,0.0,0.0
688,171.75,31.1331,34.8714,179.104,102.509,104.637,,,,-937.62,-0.189247,0.0,0.0
696,173.75,31.3745,34.4146,182.192,102.528,104.517,,,,-937.62,-0.176981,0.0,0.0
704,175.75,31.024,34.8445,177.693,102.522,104.19,,,,-937.61,-0.148607,0.0,0.0
711,177.5,30.9928,34.6973,177.447,102.511,104.387,,,,-937.58,-0.167056,0.0,0.0

File: Scott_HT_SCBA_Cone_HF100-FrameScalar_201103_R1.csv
LABORATORY,FSRI
TEST IDENT,FacePiece_HF100_1
OPERATOR,Dow
MATERIAL,Phoenix Arizona SCBA Face Piece
ORIENTATION,Horizontal
HEAT FLUX,100
SURF AREA,0.01
C FACTOR,0.0377677
SPEC HOLDER DIFF,345
SPECIMEN MASS,41.82
SCAN TIME,0.25
O2 DELAY TIME,11
CO DELAY TIME,11
CO2 DELAY TIME,8
FLOW FACTOR,1
SCAN COUNT,602
TIME TO IGN,13.25
END OF TEST SCAN,122
END OF TEST TIME,30.5
TEST STATUS,1
,
POST TEST CMT,Sample removed 10 seconds after ignition