Folder: fsri_materials_database/01_Data/Scott_HT_SCBA/Cone (part 2)

File: Scott_HT_SCBA_Cone_HF100-FrameScan_201103_R1.csv
Names,Time,Stack TC,Smoke TC,Exh Press,Smoke Comp,Smoke Meas,CO Meter,CO2 Meter,O2 Meter,Sample Mass,Ext Coeff,Start Test,Flame Verif
Chan Gain,,500,500,1,1,1,1,1,1,1,1,1.0,1.0
Offset,,0,0,0.134413,0,0,0,0,0,0,0,0.0,0.0
Gain,,1,1,25.011,13.8462,17.0661,1,1,1,1.0009,1.04998,1.0,1.0
Units,sec,C,C,Pa,%,%,%,%,%,g,/m,,
Baseline,,43.0487,48.4416,172.362,102.339,104.436,0.00383836,0.0811048,20.98,-936.269,-0.186784,,
7,1.5,39.5011,43.0317,171.146,102.433,104.661,0.00530671,0.106675,20.9476,13.9125,-0.198192,0.0,0.0
14,3.25,39.9259,43.3526,169.479,102.418,104.114,0.00528057,0.100595,20.953,13.8824,-0.151301,0.0,0.0
21,5,40.2724,44.7366,172.303,102.417,104.234,0.00499151,0.0947356,20.9604,13.8624,-0.162014,0.0,0.0
28,6.75,40.4882,45.1536,173.059,102.395,104.085,0.00467111,0.0901999,20.9665,13.8724,-0.150735,0.0,0.0
35,8.5,40.6917,45.5834,172.723,102.395,103.842,0.0043305,0.0871263,20.9706,13.8224,-0.129234,0.0,0.0
42,10.25,40.4278,45.7289,173.713,102.376,102.916,0.004139,0.0850983,20.9728,13.8324,-0.048442,0.0,0.0
49,12,41.4741,46.2297,171.472,102.369,101.844,0.00429346,0.0879387,20.9711,13.8324,0.0473387,0.0,0.0
56,13.75,41.6959,47.0245,159.832,102.364,101.091,0.00503009,0.11399,20.9472,13.7323,0.115205,0.0,1.0
63,15.5,42.2276,49.0881,164.893,102.351,89.6978,0.00684679,0.159111,20.8957,13.5622,1.21538,0.0,1.0
70,17.25,43.6089,51.1383,156.357,102.353,68.3802,0.0103281,0.229435,20.7881,13.5622,3.71492,0.0,1.0
77,19,45.6579,53.266,156.316,102.33,54.628,0.0151784,0.33171,20.6566,13.3019,5.78094,0.0,0.0
84,20.75,48.6196,58.9304,150.756,102.334,46.9564,0.021514,0.461556,20.4808,13.0317,7.17507,0.0,0.0
91,22.5,52.2324,65.0993,146.591,102.337,44.8731,0.0268285,0.613295,20.3137,12.6914,7.59335,0.0,0.0
98,24.25,57.1097,72.7519,142.575,102.321,41.4232,0.0281919,0.695155,20.223,12.4311,8.32874,0.0,0.0
105,26,60.0874,76.796,171.774,102.312,97.4575,0.0250648,0.595563,20.2498,-899.686,0.447693,0.0,0.0
112,27.75,57.0567,71.8464,175.612,102.309,100.577,0.0198608,0.447868,20.3962,-939.912,0.157301,0.0,0.0
119,29.5,54.7459,67.7206,173.488,102.359,101.719,0.0151871,0.321217,20.5698,-939.842,0.0577756,0.0,0.0
126,31.25,52.1005,63.3931,172.443,102.422,103.758,0.0114022,0.231617,20.7216,-939.942,-0.119353,0.0,0.0
133,33,50.3544,60.7607,172.169,102.489,103.842,0.00876922,0.173328,20.8255,-939.942,-0.120753,0.0,0.0
140,34.75,49.588,58.8571,170.081,102.547,104.279,0.00706285,0.138096,20.8863,-939.992,-0.154228,0.0,0.0
147,36.5,48.1038,57.1679,173.795,102.62,104.54,0.00581121,0.117215,20.9222,-939.972,-0.17072,0.0,0.0
154,38.25,48.0911,55.9441,172.527,102.675,104.575,0.00491643,0.104855,20.9433,-939.982,-0.168881,0.0,0.0
161,40,47.7551,55.0714,172.215,102.73,104.852,0.00436539,0.0968579,20.9573,-939.932,-0.188273,0.0,0.0
168,41.75,47.0917,54.3037,171.569,102.788,105.209,0.00410327,0.0917139,20.9656,-939.932,-0.214377,0.0,0.0
175,43.5,46.6921,53.7259,165.92,102.853,104.642,0.0040215,0.0881067,20.9715,-939.912,-0.158761,0.0,0.0
182,45.25,46.1397,52.9903,172.897,102.907,104.774,0.00401031,0.0858646,20.9748,-939.922,-0.165631,0.0,0.0
189,47,45.8731,52.663,173.459,102.946,104.65,0.00400849,0.0844365,20.9764,-939.952,-0.151211,0.0,0.0
196,48.75,45.1613,51.0115,164.974,102.995,104.679,0.00398472,0.0834485,20.9772,-939.942,-0.149393,0.0,0.0
203,50.5,45.1933,51.0409,172.739,103.039,104.55,0.00391725,0.0828748,20.9774,-939.962,-0.134093,0.0,0.0
210,52.25,44.9131,50.4781,169.642,103.073,104.992,0.00384679,0.082351,20.9775,-939.962,-0.169898,0.0,0.0
217,54,44.3443,50.1843,168.811,103.112,105.14,0.00377079,0.0819551,20.9783,-939.962,-0.179316,0.0,0.0
224,55.75,44.3655,49.9933,168.862,103.133,105.109,0.00369459,0.0816647,20.9791,-939.962,-0.174774,0.0,0.0
231,57.5,43.8767,50.0354,171.734,103.155,106.458,0.00361784,0.0813997,20.9795,-939.972,-0.290263,0.0,0.0
238,59.25,44.2987,49.7805,168.613,103.172,105.346,0.00350186,0.0810519,20.9797,-939.992,-0.192128,0.0,0.0
245,61,44.174,49.153,173.289,103.196,105.304,0.00338616,0.0807338,20.9798,-939.992,-0.186206,0.0,0.0
252,62.75,43.4493,49.0289,175.538,103.206,105.668,0.00334085,0.0804341,20.9798,-939.972,-0.217125,0.0,0.0
259,64.5,43.6621,49.1625,170.424,103.207,105.162,0.00339147,0.0801869,20.9799,-939.992,-0.172826,0.0,0.0
266,66.25,43.3139,49.5952,168.748,103.207,105.266,0.00354948,0.0799464,20.9805,-939.992,-0.181899,0.0,0.0
273,68,43.6664,49.1678,171.25,103.21,105.166,0.00372697,0.0797542,20.9803,-940.002,-0.17289,0.0,0.0
280,69.75,43.7656,49.0985,170.129,103.207,106.043,0.00384989,0.0797445,20.9802,-940.002,-0.249678,0.0,0.0
287,71.5,43.5434,49.4165,169.419,103.206,105.985,0.00394388,0.0797389,20.9805,-940.012,-0.24473,0.0,0.0
294,73.25,43.6478,49.2029,171.103,103.174,105.28,0.00398189,0.0797944,20.9796,-940.022,-0.186034,0.0,0.0
301,75,44.0097,49.2898,171.184,103.176,105.359,0.00396738,0.0798598,20.9789,-940.002,-0.19289,0.0,0.0
308,76.75,43.5995,49.0988,174.58,103.16,104.878,0.00388464,0.0799563,20.9775,-940.022,-0.152074,0.0,0.0
315,78.5,43.9072,49.5057,164.598,103.139,105.102,0.00377815,0.0800299,20.9767,-940.022,-0.173607,0.0,0.0
322,80.25,43.9848,49.4663,170.539,103.104,105.235,0.00374822,0.0801417,20.9765,-940.012,-0.188378,0.0,0.0
329,82,44.215,49.3421,172.872,103.071,105.059,0.00374904,0.0802894,20.9774,-940.022,-0.175941,0.0,0.0
336,83.75,43.917,48.8514,172.186,103.033,105.238,0.00372037,0.0804606,20.9778,-940.002,-0.195117,0.0,0.0
343,85.5,43.6099,48.9731,166.578,103.003,105.222,0.00365423,0.0805506,20.9781,-939.972,-0.196303,0.0,0.0
350,87.25,43.7431,49.2415,173.809,102.947,104.491,0.00358663,0.0806513,20.9777,-939.992,-0.137061,0.0,0.0
357,89,42.852,48.5391,177.372,102.908,105.002,0.00357235,0.0805103,20.9768,-939.952,-0.185549,0.0,0.0
364,90.75,43.1543,48.4758,173.874,102.842,104.641,0.0036343,0.0805392,20.9763,-939.992,-0.159775,0.0,0.0
371,92.5,42.5902,48.2055,179.27,102.784,105.839,0.0037152,0.0805001,20.9763,-940.002,-0.26976,0.0,0.0
378,94.25,42.9345,48.2214,173.779,102.73,104.795,0.00369153,0.0804078,20.9769,-939.992,-0.183292,0.0,0.0
385,96,43.1693,48.5294,168.331,102.667,105.095,0.00359708,0.0802798,20.9775,-939.992,-0.215297,0.0,0.0
392,97.75,43.4307,48.2058,170.756,102.599,104.85,0.00347634,0.0802341,20.9776,-940.012,-0.19997,0.0,0.0
399,99.5,43.0231,47.9204,177.296,102.561,104.844,0.00344762,0.0800293,20.9774,-940.052,-0.202791,0.0,0.0
406,101.25,42.6962,48.0029,170.627,102.578,104.382,0.00341865,0.0798821,20.9773,-940.042,-0.160608,0.0,0.0
413,103,43.264,48.1233,173.932,102.597,104.761,0.00338102,0.0796139,20.9777,-940.062,-0.192296,0.0,0.0
420,104.75,42.9416,48.4124,168.737,102.616,105.058,0.00338923,0.0795459,20.9777,-940.082,-0.216614,0.0,0.0
427,106.5,43.2367,48.2343,175.745,102.637,104.412,0.00346415,0.079512,20.9787,-940.052,-0.157955,0.0,0.0
434,108.25,43.1124,47.8141,171.724,102.662,105.244,0.0035686,0.0794012,20.9791,-940.082,-0.228798,0.0,0.0
441,110,42.977,47.9784,171.18,102.694,105.131,0.00373237,0.0794665,20.9793,-940.072,-0.216028,0.0,0.0
448,111.75,43.114,48.5324,175.065,102.707,105.109,0.00390258,0.0797068,20.9794,-940.062,-0.212937,0.0,0.0
455,113.5,42.8948,48.3169,172.493,102.741,104.613,0.0039763,0.0799512,20.9799,-940.062,-0.166272,0.0,0.0
462,115.25,43.6787,48.5192,170.444,102.749,104.42,0.00390725,0.080053,20.98,-940.072,-0.148571,0.0,0.0
469,117,42.9613,48.3463,176.101,102.766,104.705,0.00379566,0.0801688,20.979,-940.062,-0.172188,0.0,0.0
476,118.75,43.0624,48.1948,175.554,102.806,104.449,0.00372385,0.0801843,20.9786,-940.062,-0.146061,0.0,0.0
483,120.5,42.7057,48.0616,170.633,102.813,104.64,0.00366708,0.0802808,20.9785,-940.012,-0.162211,0.0,0.0
490,122.25,42.9057,48.2643,172.018,102.845,105.136,0.00370026,0.0802467,20.9785,-940.072,-0.202882,0.0,0.0
497,124,43.1328,48.3656,173.593,102.868,104.867,0.00380399,0.080019,20.9792,-940.082,-0.177219,0.0,0.0
504,125.75,42.9803,48.526,171.014,102.905,104.795,0.00390261,0.0797524,20.9796,-940.082,-0.167659,0.0,0.0
511,127.5,42.8936,48.5947,175.116,102.918,105.086,0.00386146,0.0796113,20.9798,-940.082,-0.192039,0.0,0.0
518,129.25,42.8228,48.8426,170.873,102.941,104.653,0.00372567,0.079374,20.9799,-940.052,-0.151895,0.0,0.0
525,131,43.1189,48.882,177.982,102.976,105.605,0.00360859,0.0792445,20.98,-940.072,-0.232175,0.0,0.0
532,132.75,43.9762,48.8865,171.431,102.982,104.929,0.00359289,0.0791389,20.98,-940.102,-0.172452,0.0,0.0
539,134.5,43.4798,48.6564,171.039,103.013,105.1,0.00373299,0.0790939,20.98,-940.082,-0.184805,0.0,0.0
546,136.25,43.0507,48.7875,170.354,103.027,104.85,0.0039199,0.0790434,20.98,-940.102,-0.161541,0.0,0.0
553,138,43.2415,48.8251,174.468,103.065,105.035,0.00397229,0.0789535,20.9792,-940.082,-0.174453,0.0,0.0
560,139.75,43.0569,48.8069,174.083,103.095,105.048,,0.0789509,,-940.112,-0.172914,0.0,0.0
567,141.5,43.3259,48.6113,169.961,103.112,105.305,,0.0790634,,-940.092,-0.193805,0.0,0.0
574,143.25,42.9776,48.6806,168.006,103.124,105.346,,,,-940.102,-0.196392,0.0,0.0
581,145,43.0457,48.8666,165.553,103.154,105.73,,,,-940.112,-0.227166,0.0,0.0
588,146.75,43.3299,48.7085,174.285,103.179,105.583,,,,-940.112,-0.212137,0.0,0.0
595,148.5,43.2368,48.6576,172.762,103.191,105.023,,,,-940.102,-0.162156,0.0,0.0
602,150.25,43.152,48.5317,173.642,103.226,105.453,,,,-940.112,-0.19651,0.0,0.0