Folder: fsri_materials_database/01_Data/Scott_HT_SCBA/MCC

Note: 01_Data/README.md
# Materials and Products Database
## 01_Data

Raw data generated from each apparatus are included here in plain-text format. The data is organized first by material, next by the short name of test apparatus used, and where applicable additional filtering by test settings.

### material.json

Each material directory contains a json file of the same name as the material. This file links the data stored in the repository as well as data and graphs produced by the accompanying scripts (__02_Scripts__) to the respective landing page for the material on the front-end website.

File: Scott_HT_SCBA_MCC_30K_min_220204_R2.txt
Sample ID:	C:\MCC\MCC Cal\Test\Scott_HT_SCBA_MCC_30K_min_220204_R2.txt
Sample Weight (mg):	4.57
Heating Rate (C/s):	0.5
Combustor Temp (C):	900
N2 Flow Rate (cc/min):	80
O2 Flow Rate (cc/min):	20
Calibration File:	C:\MCC\MCC Cal\Coeff1 JN10440_30_210304.txt.txt
T Correction Coefficients:	0	1.024463	0
Time Shift (s):	14
*
Time (s)	Temperature (C)	N2 flow rate (cc/min)	O2 flow rate (cc/min)	Flow Rate (cc/min)	Oxygen (%)	HRR (W/g)	Heating rate (C/s)
0.000	111.610	79.996	19.994	103.743	20.082	-0.209	0.026
8.000	111.526	79.982	19.994	103.737	20.081	-0.176	-0.035
16.000	111.597	79.996	19.998	103.809	20.076	0.191	-0.038
24.000	111.893	79.992	19.991	103.872	20.055	1.718	0.043
32.000	112.588	80.011	19.994	103.922	20.056	1.596	0.127
40.000	113.713	79.997	19.995	103.933	20.048	2.174	0.195
48.000	115.294	80.003	19.990	103.955	20.045	2.406	0.195
56.000	117.123	80.001	19.995	103.953	20.044	2.497	0.186
64.000	119.343	80.024	19.995	103.964	20.038	2.903	0.277
72.000	121.798	80.012	19.994	103.971	20.037	2.987	0.293
80.000	124.469	79.995	19.993	103.992	20.037	2.950	0.355
88.000	127.455	80.003	19.994	103.992	20.032	3.314	0.373
96.000	130.544	80.011	19.994	104.009	20.032	3.322	0.386
104.000	133.825	79.996	19.997	104.001	20.034	3.208	0.412
112.000	137.286	80.010	19.993	103.998	20.029	3.556	0.424
120.000	140.938	80.013	19.994	103.994	20.034	3.177	0.500
128.000	144.723	80.003	19.996	104.002	20.041	2.671	0.488
136.000	148.570	80.010	19.993	103.994	20.041	2.677	0.494
144.000	152.500	79.979	20.005	103.996	20.037	2.948	0.478
152.000	156.405	79.994	19.996	103.981	20.036	3.069	0.443
160.000	160.339	79.998	19.997	103.962	20.040	2.755	0.525
168.000	164.198	80.002	19.996	103.984	20.041	2.700	0.493
176.000	168.104	80.006	19.996	103.977	20.042	2.620	0.472
184.000	172.010	80.004	19.994	103.977	20.040	2.789	0.483
192.000	175.869	80.003	19.994	103.966	20.041	2.717	0.484
200.000	179.722	79.995	19.998	103.966	20.042	2.653	0.483
208.000	183.626	80.005	19.996	103.954	20.040	2.758	0.492
216.000	187.551	80.001	19.995	103.956	20.041	2.713	0.495
224.000	191.457	79.994	19.995	103.960	20.043	2.582	0.484
232.000	195.385	80.004	19.995	103.960	20.039	2.813	0.487
240.000	199.341	80.003	19.995	103.960	20.042	2.590	0.518
248.000	203.251	80.001	19.994	103.959	20.041	2.721	0.487
256.000	207.275	80.003	19.995	103.948	20.040	2.748	0.514
264.000	211.206	80.011	19.993	103.954	20.036	3.023	0.505
272.000	215.181	80.000	19.995	103.942	20.040	2.773	0.441
280.000	219.171	80.006	19.995	103.936	20.039	2.815	0.492
288.000	223.175	80.008	19.995	103.931	20.043	2.580	0.501
296.000	227.165	80.000	19.997	103.934	20.042	2.589	0.510
304.001	231.195	80.003	19.995	103.920	20.051	2.009	0.494
312.000	235.124	80.001	19.995	103.921	20.047	2.271	0.518
320.000	239.029	80.003	19.996	103.927	20.046	2.355	0.473
328.000	242.957	79.999	19.996	103.922	20.044	2.511	0.487
336.000	246.873	80.004	19.995	103.917	20.042	2.642	0.485
344.000	250.790	80.005	19.995	103.919	20.044	2.474	0.478
352.000	254.642	80.003	19.995	103.916	20.044	2.491	0.468
360.000	258.602	80.003	19.995	103.912	20.038	2.896	0.497
368.000	262.541	80.005	19.995	103.919	20.044	2.472	0.466
376.000	266.560	80.002	19.996	103.911	20.044	2.495	0.481
384.000	270.656	80.003	19.995	103.923	20.045	2.401	0.556
392.000	274.684	80.003	19.995	103.910	20.047	2.267	0.512
400.000	278.724	80.003	19.994	103.914	20.047	2.292	0.522
408.000	282.759	80.003	19.995	103.907	20.044	2.454	0.506
416.000	286.771	80.004	19.995	103.914	20.049	2.120	0.474
424.000	290.809	80.003	19.994	103.906	20.043	2.550	0.519
432.000	294.803	80.003	19.994	103.906	20.048	2.218	0.516
440.000	298.824	80.005	19.994	103.919	20.047	2.269	0.515
448.000	302.762	80.004	19.994	103.899	20.051	1.972	0.493
456.000	306.709	80.003	19.998	103.892	20.049	2.120	0.486
464.000	310.699	80.003	19.996	103.895	20.050	2.052	0.511
472.000	314.710	80.003	19.995	103.912	20.050	2.067	0.485
480.000	318.680	80.002	19.996	103.896	20.048	2.210	0.513
488.000	322.715	80.000	19.994	103.896	20.047	2.286	0.539
496.000	326.699	80.002	19.994	103.887	20.046	2.356	0.520
504.000	330.739	80.004	19.994	103.888	20.045	2.413	0.483
512.000	334.782	80.004	19.994	103.920	20.038	2.876	0.517
520.000	338.905	80.002	19.994	103.890	20.040	2.755	0.518
528.000	342.935	80.005	19.993	103.905	20.040	2.745	0.525
536.000	347.052	80.005	19.996	103.899	20.039	2.865	0.508
544.000	351.185	80.004	19.995	103.902	20.044	2.499	0.519
552.000	355.283	80.003	19.995	103.888	20.042	2.645	0.500
560.000	359.372	80.002	19.995	103.908	20.044	2.485	0.488
568.000	363.514	80.004	19.996	103.906	20.042	2.600	0.530
576.000	367.580	80.002	19.995	103.884	20.039	2.843	0.492
584.000	371.564	80.004	19.996	103.878	20.041	2.658	0.500
592.000	375.576	80.004	19.995	103.877	20.040	2.756	0.512
600.000	379.509	80.004	19.995	103.867	20.038	2.888	0.473
608.000	383.368	80.007	19.995	103.869	20.040	2.730	0.492
616.000	387.276	80.006	19.995	103.878	20.039	2.803	0.460
624.001	391.222	80.004	19.994	103.867	20.035	3.097	0.496
632.000	395.192	80.003	19.994	103.855	20.030	3.445	0.482
640.000	399.156	80.003	19.994	103.878	20.034	3.194	0.530
648.000	403.182	80.003	19.996	103.872	20.035	3.134	0.502
656.000	407.221	80.004	19.995	103.870	20.032	3.357	0.511
664.000	411.311	80.004	19.995	103.865	20.025	3.837	0.491
672.000	415.377	80.003	19.997	103.872	20.027	3.679	0.520
680.001	419.425	80.005	19.997	103.872	20.022	4.023	0.497
688.000	423.487	80.004	19.994	103.861	20.015	4.542	0.483
696.000	427.558	80.006	19.994	103.865	20.003	5.365	0.538
704.000	431.610	80.004	19.993	103.883	19.993	6.113	0.498
712.000	435.798	80.004	19.994	103.872	19.959	8.479	0.511
720.000	439.920	80.004	19.994	103.865	19.909	12.057	0.492
728.000	443.949	80.004	19.995	103.879	19.862	15.408	0.527
736.000	448.004	80.004	19.996	103.886	19.820	18.373	0.502
744.000	452.183	80.004	19.995	103.879	19.797	19.969	0.514
752.000	456.392	80.004	19.995	103.880	19.747	23.507	0.532
760.000	460.556	80.004	19.995	103.923	19.709	26.245	0.488
768.000	464.674	80.004	19.996	103.936	19.679	28.351	0.518
776.000	468.770	80.006	19.995	103.898	19.546	37.801	0.521
784.000	472.895	80.004	19.996	103.908	19.455	44.263	0.542
792.000	477.105	80.003	19.994	103.928	19.325	53.567	0.507
800.000	481.158	80.004	19.995	103.936	19.314	54.275	0.495
808.000	485.293	80.004	19.994	103.808	19.144	66.341	0.524
816.000	489.430	80.002	19.996	104.049	18.691	98.664	0.480
824.000	493.434	80.002	19.994	103.892	18.516	111.135	0.474
832.000	497.499	80.004	19.995	103.935	18.251	130.058	0.521
840.000	501.449	80.004	19.994	103.936	17.876	156.463	0.506
848.000	505.523	80.003	19.995	103.949	17.498	183.537	0.503
856.000	509.666	80.004	19.996	104.189	17.175	206.591	0.528
864.000	513.866	80.003	19.996	104.166	16.822	231.753	0.578
872.000	518.127	80.004	19.995	104.238	16.424	260.227	0.567
880.000	522.136	80.003	19.995	104.272	16.058	286.206	0.505
888.000	526.107	80.003	19.995	104.268	15.891	298.097	0.454
896.000	530.233	80.003	19.994	104.289	16.207	275.449	0.509
904.000	534.323	80.003	19.994	104.224	17.044	215.776	0.531
912.000	538.397	80.005	19.995	104.151	18.113	139.632	0.532
920.000	542.467	80.004	19.995	104.086	18.959	79.486	0.509
928.000	546.466	80.003	19.997	103.972	19.431	45.976	0.483
936.000	550.548	80.006	19.996	103.887	19.667	29.195	0.508
944.000	554.388	80.005	19.995	103.870	19.786	20.758	0.507
952.000	558.317	80.003	19.997	103.867	19.850	16.218	0.495
960.000	562.238	80.003	19.995	103.851	19.882	13.935	0.523
968.000	566.275	80.004	19.996	103.851	19.902	12.533	0.524
976.001	570.302	80.005	19.994	103.854	19.918	11.382	0.539
984.000	574.464	80.003	19.995	103.850	19.927	10.763	0.512
992.000	578.657	80.004	19.994	103.847	19.929	10.637	0.548
1000.000	582.842	80.004	19.994	103.859	19.938	9.973	0.503
1008.000	587.104	80.004	19.995	103.855	19.944	9.571	0.525
1016.000	591.445	80.006	19.994	103.863	19.949	9.252	0.542
1024.000	595.766	80.006	19.993	103.850	19.955	8.821	0.562
1032.000	600.018	80.003	19.995	103.840	19.961	8.387	0.531
1040.000	604.257	80.002	19.995	103.845	19.965	8.106	0.543
1048.000	608.419	80.003	19.995	103.845	19.972	7.617	0.524
1056.001	612.569	80.004	19.995	103.843	19.976	7.283	0.514
1064.000	616.688	80.003	19.994	103.846	19.978	7.164	0.530
1072.001	620.800	80.004	19.994	103.846	19.985	6.629	0.514
1080.001	624.910	80.005	19.994	103.840	19.984	6.715	0.512
1088.000	629.013	80.005	19.995	103.842	19.988	6.444	0.483
1096.001	633.054	80.004	19.994	103.841	19.994	6.027	0.499
1104.000	637.244	80.004	19.996	103.838	19.992	6.167	0.493
1112.000	641.340	80.004	19.996	103.839	19.994	5.993	0.515
1120.000	645.381	80.004	19.995	103.835	19.994	5.990	0.489
1128.000	649.453	80.005	19.995	103.842	20.009	4.975	0.527
1136.000	653.576	80.003	19.996	103.840	20.001	5.513	0.529
1144.001	657.608	80.002	19.996	103.841	20.005	5.241	0.505
1152.000	661.646	80.002	19.995	103.847	20.006	5.147	0.493
1160.001	665.726	80.005	19.996	103.838	20.007	5.123	0.535
1168.001	669.709	80.005	19.994	103.824	20.010	4.871	0.516
1176.000	673.625	80.004	19.994	103.838	20.011	4.838	0.496
1184.000	677.608	80.007	19.995	103.834	20.010	4.910	0.488
1192.000	681.533	80.005	19.994	103.831	20.012	4.748	0.475
1200.001	685.449	80.004	19.993	103.838	20.014	4.637	0.488
1208.000	689.374	80.004	19.995	103.838	20.012	4.759	0.494
1216.000	693.348	80.004	19.994	103.829	20.013	4.647	0.512
1224.000	697.673	80.003	19.997	103.840	20.011	4.818	0.561
1232.000	702.037	80.005	19.996	103.835	20.007	5.070	0.517
1240.000	706.481	80.004	19.995	103.833	20.005	5.270	0.542
1248.001	710.979	80.005	19.994	103.839	20.007	5.098	0.561
1256.000	715.645	80.005	19.995	103.840	20.009	4.938	0.593
1264.000	720.291	80.008	19.994	103.839	20.008	5.051	0.584
1272.000	724.874	80.005	19.995	103.837	20.008	5.059	0.561
1280.001	729.458	80.003	19.995	103.843	20.010	4.872	0.560
1288.001	734.026	80.003	19.994	103.849	20.013	4.698	0.573
1296.000	738.487	80.005	19.995	103.832	20.006	5.168	0.556
1304.000	742.845	80.003	19.996	103.836	20.008	5.004	0.541
1305.000	743.406	80.004	19.996	103.833	20.007	5.073	0.568