Folder: fsri_materials_database/01_Data/Wood_Stud/STA/N2/10K_min (part 2)

File: Wood_Stud_STA_N2_10KData_220127_R3.csv
##Temp./Â°C,Time/min,Mass loss(subtr.2)/mg,DSC(subtr.2)/(mW/mg),Sensit./(uV/mW)
49.358,10.01,0.00131,0.03341479,1.07447
52.558,11.31548,0.002207125,0.14935,1.07424
55.758,11.76671,0.003013724,0.20013,1.07398
58.958,12.1556,0.002894421,0.23412,1.0737
62.158,12.5185,0.002862055,0.2588,1.0734
65.358,12.8704,0.001423845,0.27758,1.07307
68.558,13.2158,0.0017119,0.29054,1.07272
71.758,13.5564,0.001405885,0.30863,1.07235
74.958,13.89215,-0.001231775,0.32061,1.07195
78.158,14.22524,-0.001210004,0.33422,1.07153
81.358,14.55666,-0.00353396,0.3395,1.07108
84.558,14.88381,-0.00615338,0.34736,1.07061
87.758,15.2071,-0.007855585,0.35074,1.07012
90.958,15.5287,-0.009109991,0.351,1.06961
94.158,15.84847,-0.0109687,0.348,1.06907
97.358,16.1659,-0.01208208,0.3427,1.0685
100.558,16.48249,-0.01339639,0.33699,1.06792
103.758,16.79648,-0.01339667,0.33071,1.06731
106.958,17.1112,-0.0147043,0.3284,1.06667
110.158,17.42439,-0.01571104,0.32042,1.06602
113.358,17.73796,-0.01601871,0.31693,1.06534
116.558,18.05094,-0.01469824,0.31611,1.06463
119.758,18.36324,-0.01351693,0.31701,1.06391
122.958,18.6749,-0.01339,0.3188,1.06316
126.158,18.98638,-0.01339002,0.32279,1.06239
129.358,19.29758,-0.01203848,0.32359,1.06159
132.558,19.60785,-0.01337456,0.32611,1.06078
135.758,19.91795,-0.0124,0.32781,1.05994
138.958,20.22748,-0.01207998,0.32989,1.05907
142.158,20.53656,-0.01206992,0.33214,1.05819
145.358,20.84599,-0.01167014,0.33553,1.05728
148.558,21.1551,-0.01201253,0.33879,1.05635
151.758,21.46329,-0.01107996,0.34631,1.0554
154.958,21.77136,-0.01043098,0.35029,1.05442
158.158,22.07941,-0.01207001,0.35725,1.05343
161.358,22.38652,-0.01107169,0.36029,1.05241
164.558,22.69292,-0.01085632,0.36683,1.05137
167.758,22.99951,-0.01239992,0.36928,1.0503
170.958,23.30655,-0.01138832,0.37456,1.04922
174.158,23.61269,-0.01163913,0.37922,1.04811
177.358,23.91761,-0.01306055,0.38462,1.04699
180.558,24.2237,-0.01305813,0.39004,1.04584
183.758,24.52993,-0.0124,0.39345,1.04467
186.958,24.83598,-0.01372,0.39878,1.04347
190.158,25.1421,-0.01437,0.40243,1.04226
193.358,25.44859,-0.01470088,0.40975,1.04103
196.558,25.75485,-0.01665524,0.41505,1.03977
199.758,26.0604,-0.01799,0.42109,1.03849
202.958,26.36613,-0.01822558,0.42552,1.0372
206.158,26.67158,-0.02043177,0.43117,1.03588
209.358,26.9766,-0.02063001,0.43896,1.03454
212.558,27.28169,-0.02324092,0.4437,1.03318
215.758,27.58701,-0.02326178,0.44845,1.0318
218.958,27.8918,-0.02588991,0.45423,1.0304
222.158,28.19635,-0.02819949,0.45672,1.02898
225.358,28.5011,-0.03223171,0.4621,1.02754
228.558,28.80677,-0.03509434,0.46503,1.02608
231.758,29.11215,-0.04035895,0.4697,1.0246
234.958,29.41794,-0.0431875,0.47331,1.0231
238.158,29.7235,-0.04691429,0.47925,1.02158
241.358,30.029,-0.05420145,0.48365,1.02004
244.558,30.33482,-0.06055005,0.49004,1.01848
247.758,30.63992,-0.06834076,0.49299,1.0169
250.958,30.9453,-0.07892946,0.49241,1.0153
254.158,31.25015,-0.09050057,0.49644,1.01368
257.358,31.55653,-0.10419,0.49823,1.01205
260.558,31.8624,-0.11621,0.5015,1.01039
263.758,32.16829,-0.13209,0.50477,1.00872
266.958,32.4743,-0.14912,0.51291,1.00703
270.158,32.77965,-0.16779,0.51636,1.00532
273.358,33.08532,-0.18986,0.52107,1.00359
276.558,33.39096,-0.21246,0.52382,1.00184
279.758,33.6968,-0.23815,0.52866,1.00007
282.958,34.00308,-0.26613,0.53451,0.99829
286.158,34.30923,-0.29718,0.5379,0.99649
289.358,34.616,-0.32919,0.54339,0.99467
292.558,34.92334,-0.36528,0.54903,0.99283
295.758,35.231,-0.4043,0.55764,0.99097
298.958,35.5374,-0.44813,0.57026,0.9891
302.158,35.84466,-0.49329,0.58429,0.98721
305.358,36.1521,-0.54415,0.59922,0.98531
308.558,36.45971,-0.59941,0.61382,0.98338
311.758,36.7682,-0.66078,0.63432,0.98144
314.958,37.07634,-0.72502,0.65193,0.97948
318.158,37.3841,-0.79531,0.67127,0.97751
321.358,37.69212,-0.86984,0.69067,0.97552
324.558,37.99968,-0.94977,0.7067,0.97351
327.758,38.30808,-1.03505,0.72199,0.97149
330.958,38.61698,-1.1213,0.73493,0.96945
334.158,38.9262,-1.21122,0.7453,0.9674
337.358,39.23496,-1.30415,0.75747,0.96532
340.558,39.54385,-1.40055,0.77358,0.96324
343.758,39.8532,-1.49795,0.79421,0.96114
346.958,40.1622,-1.5995,0.82494,0.95902
350.158,40.47103,-1.70856,0.86015,0.95688
353.358,40.7797,-1.81972,0.90423,0.95474
356.558,41.08869,-1.93995,0.94495,0.95257
359.758,41.3989,-2.06582,0.97521,0.9504
362.958,41.70836,-2.19589,0.99032,0.9482
366.158,42.01843,-2.32817,0.97219,0.946
369.358,42.32825,-2.45188,0.91689,0.94377
372.558,42.63825,-2.56795,0.82164,0.94154
375.758,42.94761,-2.66636,0.69275,0.93929
378.958,43.25716,-2.74195,0.54486,0.93702
382.158,43.56712,-2.79823,0.40016,0.93474
385.358,43.8778,-2.8369,0.28975,0.93245
388.558,44.18825,-2.86022,0.21714,0.93015
391.758,44.49869,-2.87706,0.17824,0.92783
394.958,44.80896,-2.8908,0.16537,0.9255
398.158,45.11953,-2.89941,0.15338,0.92315
401.358,45.43078,-2.91079,0.14515,0.92079
404.558,45.74256,-2.9217,0.13659,0.91842
407.758,46.0542,-2.93149,0.12997,0.91604
410.958,46.36574,-2.94198,0.12168,0.91364
414.158,46.67798,-2.95146,0.11451,0.91123
417.358,46.98992,-2.9613,0.10657,0.90881
420.558,47.30226,-2.97108,0.10222,0.90638
423.758,47.61476,-2.98067,0.09546065,0.90393
426.958,47.92753,-2.99087,0.09266249,0.90148
430.158,48.241,-3.00061,0.08862603,0.89901
433.358,48.55533,-3.00871,0.08243194,0.89653
436.558,48.86956,-3.01826,0.08574181,0.89404
439.758,49.18422,-3.02843,0.08818443,0.89153
442.958,49.49889,-3.03489,0.09397018,0.88902
446.158,49.81365,-3.04449,0.09935814,0.88649
449.358,50.12832,-3.0538,0.10594,0.88396
452.558,50.44364,-3.06067,0.11448,0.88141
455.758,50.75857,-3.06903,0.12625,0.87885
458.958,51.0726,-3.07434,0.13469,0.87629
462.158,51.38736,-3.0817,0.14313,0.87371
465.358,51.70205,-3.08826,0.15054,0.87112
468.558,52.01727,-3.09206,0.15724,0.86852
471.758,52.33214,-3.09909,0.16214,0.86592
474.958,52.64813,-3.10566,0.16571,0.8633
478.158,52.96346,-3.10862,0.1661,0.86067
481.358,53.2788,-3.1148,0.16761,0.85804
484.558,53.59364,-3.11914,0.16884,0.85539
487.758,53.9097,-3.12439,0.17746,0.85274
490.958,54.22606,-3.12836,0.17581,0.85007
494.158,54.54311,-3.13231,0.17941,0.8474
497.358,54.86076,-3.13594,0.17649,0.84472
500.558,55.1781,-3.14008,0.18434,0.84203
503.758,55.4947,-3.14382,0.19116,0.83934
506.958,55.81097,-3.14909,0.19658,0.83663
510.158,56.12822,-3.15305,0.1993,0.83392
513.358,56.44506,-3.15436,0.20661,0.8312
516.558,56.7615,-3.15895,0.21783,0.82847
519.758,57.0785,-3.16249,0.22654,0.82573
522.958,57.3958,-3.16654,0.22984,0.82299
526.158,57.7126,-3.17005,0.23314,0.82024
529.358,58.03023,-3.1718,0.23728,0.81748
532.558,58.34791,-3.17575,0.23018,0.81471
535.758,58.66626,-3.17842,0.21558,0.81194
538.958,58.9848,-3.18233,0.21366,0.80916
542.158,59.30299,-3.18595,0.203,0.80638
545.358,59.62174,-3.18759,0.20202,0.80359
548.558,59.94073,-3.18892,0.19625,0.80079
551.758,60.25963,-3.19317,0.19785,0.79799
554.958,60.5777,-3.19484,0.20317,0.79518
558.158,60.89691,-3.19771,0.20645,0.79236
561.358,61.21555,-3.20153,0.20879,0.78954
564.558,61.53454,-3.20416,0.21139,0.78671
567.758,61.853,-3.20646,0.21533,0.78388
570.958,62.1718,-3.20907,0.21966,0.78104
574.158,62.4909,-3.21173,0.22288,0.7782
577.358,62.81057,-3.21375,0.22391,0.77535
580.558,63.1296,-3.21765,0.21956,0.7725
583.758,63.44919,-3.21962,0.22227,0.76964
586.958,63.7682,-3.22028,0.22556,0.76678
590.158,64.08762,-3.22423,0.22426,0.76391
593.358,64.408,-3.22686,0.2269,0.76104
596.558,64.73002,-3.22949,0.2279,0.75817
599.758,65.05184,-3.23081,0.22715,0.75529
602.958,65.3729,-3.23342,0.22928,0.75241
606.158,65.69366,-3.23493,0.22685,0.74952
609.358,66.01395,-3.23805,0.22992,0.74663
612.558,66.33411,-3.24069,0.22514,0.74374
615.758,66.65468,-3.24134,0.23023,0.74084
618.958,66.97556,-3.24432,0.23365,0.73794
622.158,67.29767,-3.24595,0.2318,0.73504
625.358,67.61958,-3.24726,0.23405,0.73213
628.558,67.94204,-3.24891,0.23277,0.72922
631.758,68.26405,-3.25023,0.2308,0.72631
634.958,68.58632,-3.25157,0.22815,0.7234
638.158,68.90818,-3.25352,0.22883,0.72048
641.358,69.2299,-3.25615,0.22959,0.71757
644.558,69.5505,-3.25878,0.22859,0.71465
647.758,69.87139,-3.25911,0.22729,0.71172
650.958,70.19239,-3.25906,0.23201,0.7088
654.158,70.51411,-3.26023,0.231,0.70587
657.358,70.83588,-3.26317,0.23565,0.70295
660.558,71.15862,-3.26317,0.23278,0.70002
663.758,71.4816,-3.26317,0.22858,0.69709
666.958,71.8049,-3.26597,0.22931,0.69415
670.158,72.12768,-3.26591,0.22381,0.69122
673.358,72.4504,-3.26689,0.22667,0.68829
676.558,72.77285,-3.2669,0.22411,0.68535
679.758,73.09569,-3.26807,0.22729,0.68242
682.958,73.41793,-3.26945,0.2272,0.67948
686.158,73.73994,-3.27085,0.22968,0.67655
689.358,74.06181,-3.27151,0.22538,0.67361
692.558,74.38413,-3.27256,0.22592,0.67067
695.758,74.70739,-3.27526,0.22286,0.66774
698.958,75.03,-3.27512,0.22137,0.6648
702.158,75.35266,-3.27512,0.21972,0.66186
705.358,75.67613,-3.27645,0.2174,0.65893
708.558,76.0005,-3.27807,0.21655,0.65599
711.758,76.32542,-3.27849,0.21565,0.65306
714.958,76.65001,-3.28039,0.21486,0.65012
718.158,76.97371,-3.28008,0.21047,0.64719
721.358,77.2963,-3.28138,0.21068,0.64425
724.558,77.6195,-3.28104,0.21342,0.64132
727.758,77.94325,-3.28286,0.21595,0.63839
730.958,78.26641,-3.28403,0.21912,0.63546
734.158,78.5911,-3.28533,0.21534,0.63253
737.358,78.91484,-3.28401,0.21222,0.6296
740.558,79.23957,-3.28565,0.2086,0.62668
743.758,79.5629,-3.28664,0.21201,0.62375
746.958,79.8867,-3.28796,0.20741,0.62083
750.158,80.21151,-3.28928,0.20804,0.61791
753.358,80.5371,-3.28993,0.20762,0.61499
756.558,80.8623,-3.29059,0.20347,0.61208
759.758,81.18723,-3.29059,0.20808,0.60916
762.958,81.5124,-3.29322,0.21159,0.60625
766.158,81.83743,-3.29256,0.20642,0.60334
769.358,82.16293,-3.29486,0.20964,0.60043
772.558,82.4873,-3.29475,0.20695,0.59753
775.758,82.81186,-3.29586,0.20672,0.59463
778.958,83.13683,-3.2957,0.20311,0.59173
782.158,83.46075,-3.2975,0.20552,0.58883
785.358,83.78559,-3.29717,0.20365,0.58594
788.558,84.11055,-3.2975,0.20477,0.58305
791.758,84.43544,-3.29784,0.2039,0.58016
794.958,84.76142,-3.30014,0.20623,0.57728
797.258,84.99539,-3.29882,0.19779,0.57521