Folder: fsri_materials_database/01_Data/Wood_Stud/STA/N2/30K_min

Note: 01_Data/README.md
# Materials and Products Database
## 01_Data

Raw data generated from each apparatus are included here in plain-text format. The data is organized first by material, next by the short name of test apparatus used, and where applicable additional filtering by test settings.

### material.json

Each material directory contains a json file of the same name as the material. This file links the data stored in the repository as well as data and graphs produced by the accompanying scripts (__02_Scripts__) to the respective landing page for the material on the front-end website.

File: Wood_Stud_STA_N2_30KData_220127_R1.csv
##Temp./Â°C,Time/min,Mass loss(subtr.2)/mg,DSC(subtr.2)/(mW/mg),Sensit./(uV/mW)
48.457,10.00917,-0.02556,0.01065389,1.06964
51.757,10.88425,-0.02693459,0.15707,1.06934
55.057,11.12077,-0.02586345,0.25592,1.06901
58.357,11.30291,-0.02587223,0.32517,1.06865
61.657,11.46027,-0.02612366,0.38638,1.06826
64.957,11.6038,-0.0268128,0.4363,1.06783
68.257,11.73794,-0.02692676,0.47989,1.06738
71.557,11.86625,-0.02800946,0.51914,1.0669
74.857,11.99114,-0.0289091,0.5505,1.06639
78.157,12.1129,-0.0303624,0.58106,1.06585
81.457,12.2318,-0.03027879,0.60647,1.06528
84.757,12.3492,-0.03158968,0.62842,1.06468
88.057,12.4648,-0.03236988,0.65305,1.06405
91.357,12.57899,-0.03300511,0.67109,1.0634
94.657,12.69225,-0.03376938,0.68949,1.06271
97.957,12.80475,-0.03507729,0.70324,1.06199
101.257,12.91672,-0.03640132,0.7155,1.06125
104.557,13.0281,-0.03774938,0.72378,1.06048
107.857,13.1393,-0.03904959,0.72727,1.05968
111.157,13.25039,-0.0390389,0.7253,1.05885
114.457,13.36115,-0.03905275,0.72432,1.05799
117.757,13.4716,-0.0404572,0.7191,1.05711
121.057,13.58146,-0.04023156,0.71575,1.0562
124.357,13.6908,-0.04168,0.71037,1.05526
127.657,13.7997,-0.04167811,0.70745,1.05429
130.957,13.9081,-0.04167988,0.70998,1.0533
134.257,14.0159,-0.04035966,0.71049,1.05228
137.557,14.1229,-0.04300226,0.71589,1.05123
140.857,14.22964,-0.04167999,0.72167,1.05016
144.157,14.3359,-0.04227814,0.72713,1.04906
147.457,14.44156,-0.04168047,0.73513,1.04793
150.757,14.54691,-0.04185129,0.74208,1.04678
154.057,14.652,-0.04167985,0.75137,1.0456
157.357,14.75642,-0.04299945,0.76059,1.0444
160.657,14.86111,-0.04300018,0.77047,1.04317
163.957,14.96491,-0.04168111,0.78325,1.04191
167.257,15.06884,-0.04299936,0.79018,1.04063
170.557,15.17235,-0.04331231,0.80089,1.03933
173.857,15.2758,-0.04332052,0.81169,1.038
177.157,15.3787,-0.04333,0.82199,1.03665
180.457,15.4814,-0.04333,0.83172,1.03527
183.757,15.58363,-0.04469234,0.84362,1.03387
187.057,15.68503,-0.04592472,0.85565,1.03244
190.357,15.78703,-0.04710149,0.86467,1.03099
193.657,15.8884,-0.04596005,0.87698,1.02952
196.957,15.9895,-0.04727997,0.88746,1.02802
200.257,16.09086,-0.04858863,0.89561,1.0265
203.557,16.1917,-0.04859,0.90794,1.02496
206.857,16.29253,-0.04858972,0.91875,1.02339
210.157,16.39323,-0.05122347,0.93081,1.02181
213.457,16.49393,-0.05122012,0.93726,1.0202
216.757,16.5945,-0.05261651,0.94604,1.01856
220.057,16.69453,-0.05379959,0.95433,1.01691
223.357,16.79523,-0.0557537,0.96513,1.01523
226.657,16.89528,-0.05648187,0.97214,1.01354
229.957,16.99537,-0.06047644,0.98039,1.01182
233.257,17.0956,-0.06174303,0.98597,1.01008
236.557,17.19558,-0.06446035,0.99267,1.00832
239.857,17.29552,-0.06585308,1.00358,1.00654
243.157,17.39542,-0.069969,1.01478,1.00474
246.457,17.49527,-0.07329851,1.02665,1.00292
249.757,17.595,-0.07690631,1.03406,1.00108
253.057,17.69494,-0.08210044,1.04588,0.99922
256.357,17.7946,-0.08673354,1.05925,0.99734
259.657,17.89431,-0.09463815,1.07517,0.99544
262.957,17.99411,-0.10397,1.08582,0.99353
266.257,18.09389,-0.11185,1.09846,0.99159
269.557,18.19356,-0.12168,1.11177,0.98964
272.857,18.29309,-0.13566,1.12421,0.98766
276.157,18.39293,-0.1475,1.13834,0.98567
279.457,18.4927,-0.16236,1.14846,0.98366
282.757,18.59252,-0.1788,1.16152,0.98164
286.057,18.6923,-0.19554,1.17186,0.97959
289.357,18.79223,-0.21516,1.17975,0.97753
292.657,18.89211,-0.23813,1.18861,0.97546
295.957,18.99194,-0.25958,1.19899,0.97336
299.257,19.0919,-0.28489,1.20913,0.97125
302.557,19.19194,-0.31322,1.22126,0.96912
305.857,19.29192,-0.34177,1.23388,0.96698
309.157,19.39209,-0.37326,1.25033,0.96482
312.457,19.49217,-0.40822,1.27112,0.96265
315.757,19.59225,-0.44527,1.29786,0.96046
319.057,19.69259,-0.48575,1.32976,0.95825
322.357,19.7929,-0.53051,1.36589,0.95603
325.657,19.89349,-0.57888,1.40871,0.9538
328.957,19.99365,-0.63162,1.45346,0.95155
332.257,20.09433,-0.68994,1.50589,0.94928
335.557,20.19516,-0.75256,1.55767,0.947
338.857,20.29603,-0.82064,1.60826,0.94471
342.157,20.39694,-0.89343,1.65307,0.94241
345.457,20.49803,-0.97233,1.69451,0.94009
348.757,20.59917,-1.05233,1.72952,0.93776
352.057,20.70039,-1.1367,1.75607,0.93541
355.357,20.80174,-1.22085,1.78325,0.93306
358.657,20.90332,-1.31184,1.81128,0.93069
361.957,21.0049,-1.40308,1.85112,0.92831
365.257,21.10674,-1.49851,1.90696,0.92591
368.557,21.20845,-1.59609,1.98715,0.92351
371.857,21.31065,-1.69883,2.08595,0.92109
375.157,21.41263,-1.8085,2.19943,0.91866
378.457,21.5151,-1.92184,2.31813,0.91622
381.757,21.61746,-2.04807,2.41886,0.91377
385.057,21.7198,-2.16984,2.47226,0.91131
388.357,21.8224,-2.29871,2.45614,0.90884
391.657,21.92492,-2.42201,2.34356,0.90636
394.957,22.02734,-2.53941,2.12539,0.90386
398.257,22.1297,-2.6413,1.80425,0.90136
401.557,22.23177,-2.7274,1.41486,0.89885
404.857,22.33367,-2.79277,1.00648,0.89633
408.157,22.43555,-2.84068,0.63407,0.8938
411.457,22.53766,-2.87036,0.34429,0.89126
414.757,22.63929,-2.8919,0.14998,0.88871
418.057,22.74152,-2.90736,0.03786975,0.88616
421.357,22.84384,-2.91893,-0.02433153,0.88359
424.657,22.9464,-2.93068,-0.06071643,0.88102
427.957,23.04926,-2.94069,-0.08755331,0.87844
431.257,23.1522,-2.95102,-0.1125,0.87585
434.557,23.25538,-2.96159,-0.13491,0.87325
437.857,23.3586,-2.96992,-0.15795,0.87065
441.157,23.46184,-2.9793,-0.18154,0.86803
444.457,23.56554,-2.98756,-0.20064,0.86542
447.757,23.6691,-2.99684,-0.21759,0.86279
451.057,23.77307,-3.00699,-0.23113,0.86016
454.357,23.87696,-3.01436,-0.24048,0.85752
457.657,23.9811,-3.02345,-0.24207,0.85488
460.957,24.08514,-3.03173,-0.23562,0.85223
464.257,24.18955,-3.03896,-0.22596,0.84957
467.557,24.29393,-3.04579,-0.20868,0.84691
470.857,24.39842,-3.05448,-0.19152,0.84424
474.157,24.5032,-3.0611,-0.16832,0.84157
477.457,24.60814,-3.06717,-0.14516,0.83889
480.757,24.71294,-3.07369,-0.11772,0.83621
484.057,24.81795,-3.08163,-0.09299312,0.83352
487.357,24.92311,-3.08627,-0.07127889,0.83083
490.657,25.02824,-3.09045,-0.05113699,0.82813
493.957,25.13361,-3.09775,-0.0366294,0.82543
497.257,25.239,-3.10235,-0.02252854,0.82272
500.557,25.34458,-3.10673,-0.01100521,0.82001
503.857,25.45027,-3.11164,-0.003090537,0.8173
507.157,25.55586,-3.1141,0.007028284,0.81459
510.457,25.66161,-3.11912,0.01182261,0.81187
513.757,25.7677,-3.12241,0.01479994,0.80914
517.057,25.87358,-3.12621,0.02038817,0.80642
520.357,25.97961,-3.13043,0.02297869,0.80369
523.657,26.0858,-3.1345,0.02321077,0.80096
526.957,26.19217,-3.13916,0.02420523,0.79822
530.257,26.2986,-3.14268,0.02250379,0.79549
533.557,26.4051,-3.14417,0.02324034,0.79275
536.857,26.51156,-3.14712,0.02339916,0.79001
540.157,26.6182,-3.15108,0.01934037,0.78726
543.457,26.72482,-3.1548,0.02261769,0.78452
546.757,26.8315,-3.15601,0.0219635,0.78177
550.057,26.9382,-3.15976,0.02453353,0.77903
553.357,27.045,-3.16216,0.0245496,0.77628
556.657,27.1522,-3.16642,0.02736053,0.77353
559.957,27.25941,-3.16773,0.03360468,0.77078
563.257,27.3665,-3.17164,0.03660782,0.76802
566.557,27.474,-3.17438,0.03688872,0.76527
569.857,27.5815,-3.17573,0.03721852,0.76252
573.157,27.6891,-3.18068,0.03001109,0.75976
576.457,27.79686,-3.18237,0.03307502,0.75701
579.757,27.90458,-3.18635,0.03147867,0.75425
583.057,28.0124,-3.1877,0.02781386,0.7515
586.357,28.1203,-3.19033,0.02226872,0.74874
589.657,28.22839,-3.19158,0.01306328,0.74599
592.957,28.3362,-3.19601,0.01322716,0.74323
596.257,28.4441,-3.19811,0.01024117,0.74048
599.557,28.5523,-3.20001,0.007728513,0.73773
602.857,28.6606,-3.20306,0.004774693,0.73497
606.157,28.7687,-3.20612,0.002220616,0.73222
609.457,28.8768,-3.20684,0.002191242,0.72947
612.757,28.98498,-3.20876,-0.000568927,0.72672
616.057,29.093,-3.21008,-0.005135572,0.72397
619.357,29.2013,-3.2114,-0.007884891,0.72122
622.657,29.3097,-3.21415,-0.01051865,0.71848
625.957,29.4181,-3.21677,-0.01279907,0.71573
629.257,29.5265,-3.21808,-0.01827618,0.71299
632.557,29.6349,-3.22083,-0.022632,0.71025
635.857,29.7435,-3.22076,-0.03225318,0.70751
639.157,29.85205,-3.22342,-0.04119179,0.70477
642.457,29.9608,-3.2255,-0.04325676,0.70203
645.757,30.06962,-3.22676,-0.05010194,0.6993
649.057,30.1784,-3.22806,-0.05153995,0.69656
652.357,30.28705,-3.23066,-0.05270622,0.69383
655.657,30.39578,-3.23138,-0.05380012,0.69111
658.957,30.50474,-3.23275,-0.06208192,0.68838
662.257,30.61355,-3.23531,-0.06530044,0.68566
665.557,30.72247,-3.23724,-0.06421243,0.68294
668.857,30.83158,-3.23945,-0.06987303,0.68022
672.157,30.94042,-3.23991,-0.07212906,0.67751
675.457,31.0496,-3.24122,-0.07119532,0.6748
678.757,31.1589,-3.24219,-0.07108835,0.67209
682.057,31.2682,-3.24385,-0.07248009,0.66938
685.357,31.37753,-3.24517,-0.07921704,0.66668
688.657,31.4869,-3.24584,-0.08100641,0.66398
691.957,31.59638,-3.24714,-0.09148775,0.66129
695.257,31.7058,-3.24781,-0.09542269,0.65859
698.557,31.81522,-3.24781,-0.09547181,0.6559
701.857,31.92496,-3.24907,-0.09511534,0.65322
705.157,32.03453,-3.24908,-0.09477294,0.65054
708.457,32.1441,-3.25044,-0.09986973,0.64786
711.757,32.25387,-3.25175,-0.10506,0.64518
715.057,32.36353,-3.25307,-0.10992,0.64251
718.357,32.47323,-3.25522,-0.1049,0.63985
721.657,32.5831,-3.25519,-0.11216,0.63718
724.957,32.693,-3.25505,-0.11796,0.63452
728.257,32.803,-3.25495,-0.11799,0.63187
731.557,32.91284,-3.25636,-0.12574,0.62922
734.857,33.0231,-3.25778,-0.13357,0.62657
738.157,33.1331,-3.25768,-0.12818,0.62393
741.457,33.2433,-3.25821,-0.13367,0.62129
744.757,33.35351,-3.25955,-0.13457,0.61866
748.057,33.46396,-3.25963,-0.13516,0.61603
751.357,33.5744,-3.25955,-0.13789,0.6134
754.657,33.685,-3.26307,-0.14807,0.61078
757.957,33.79565,-3.26351,-0.14893,0.60816
761.257,33.90619,-3.2648,-0.15133,0.60555
764.557,34.0169,-3.26341,-0.15346,0.60294
767.857,34.12791,-3.26612,-0.15408,0.60034
771.157,34.2386,-3.2648,-0.1608,0.59774
774.457,34.34957,-3.26613,-0.16286,0.59515
777.757,34.4605,-3.26544,-0.16611,0.59256
781.057,34.57163,-3.26618,-0.168,0.58998
784.357,34.68269,-3.26777,-0.17217,0.5874
787.657,34.79373,-3.26777,-0.16655,0.58483
790.957,34.90504,-3.26964,-0.17144,0.58226
793.657,34.99604,-3.2704,-0.17186,0.58016

File: Wood_Stud_STA_N2_30KData_220128_R2.csv
##Temp./Â°C,Time/min,Mass loss(subtr.2)/mg,DSC(subtr.2)/(mW/mg),Sensit./(uV/mW)
48.382,10.01,-0.04344,0.0314623,1.06965
51.582,10.87759,-0.04619591,0.18933,1.06936
54.782,11.1111,-0.04692225,0.30034,1.06904
57.982,11.29074,-0.04629174,0.38541,1.06869
61.182,11.44623,-0.04720218,0.45785,1.06831
64.382,11.58731,-0.04678752,0.52084,1.06791
67.582,11.71925,-0.04787757,0.57771,1.06748
70.782,11.8457,-0.04873422,0.62674,1.06702
73.982,11.96768,-0.04975832,0.67061,1.06653
77.182,12.08646,-0.05040128,0.71448,1.06601
80.382,12.20308,-0.0528387,0.75355,1.06547
83.582,12.31738,-0.05316069,0.79015,1.0649
86.782,12.42983,-0.05364222,0.8255,1.0643
89.982,12.54168,-0.0549238,0.85683,1.06367
93.182,12.65185,-0.05640514,0.88742,1.06302
96.382,12.76131,-0.05785891,0.91353,1.06234
99.582,12.87008,-0.06044034,0.9312,1.06163
102.782,12.97846,-0.06169442,0.94322,1.0609
105.982,13.08646,-0.06439491,0.95051,1.06014
109.182,13.1942,-0.0657175,0.94677,1.05935
112.382,13.3015,-0.0673511,0.94137,1.05853
115.582,13.4088,-0.06964998,0.9307,1.05769
118.782,13.5156,-0.06964316,0.91828,1.05683
121.982,13.6219,-0.07112341,0.90231,1.05594
125.182,13.72766,-0.07227968,0.89126,1.05502
128.382,13.83296,-0.07227578,0.88155,1.05408
131.582,13.93779,-0.07360012,0.87017,1.05311
134.782,14.0419,-0.0749099,0.86497,1.05211
137.982,14.1456,-0.07362177,0.86218,1.05109
141.182,14.24885,-0.07416371,0.86344,1.05005
144.382,14.35167,-0.07624235,0.86991,1.04898
147.582,14.45396,-0.07491973,0.87438,1.04789
150.782,14.55587,-0.07492206,0.88297,1.04677
153.982,14.6575,-0.07590989,0.8945,1.04563
157.182,14.759,-0.07722054,0.90365,1.04446
160.382,14.85997,-0.07589981,0.91621,1.04327
163.582,14.96085,-0.07624508,0.92592,1.04206
166.782,15.06149,-0.07754991,0.93851,1.04082
169.982,15.16195,-0.07755002,0.94458,1.03956
173.182,15.2621,-0.07787943,0.9576,1.03827
176.382,15.362,-0.07788,0.96875,1.03697
179.582,15.46146,-0.07787886,0.97871,1.03563
182.782,15.56095,-0.07986014,0.98908,1.03428
185.982,15.66,-0.07986,0.99873,1.03291
189.182,15.7587,-0.07986,1.00821,1.03151
192.382,15.8573,-0.07856197,1.02035,1.03009
195.582,15.95556,-0.0813894,1.03074,1.02865
198.782,16.05365,-0.08269989,1.04322,1.02718
201.982,16.1518,-0.0817045,1.05335,1.0257
205.182,16.24948,-0.08037017,1.06481,1.02419
208.382,16.34734,-0.08390358,1.07553,1.02266
211.582,16.44491,-0.08523003,1.08719,1.02111
214.782,16.54244,-0.08588046,1.09934,1.01954
217.982,16.63991,-0.0872,1.11259,1.01795
221.182,16.7372,-0.08790641,1.12198,1.01634
224.382,16.8344,-0.08881463,1.13195,1.01471
227.582,16.93132,-0.09157161,1.14302,1.01306
230.782,17.02832,-0.0928008,1.15049,1.01139
233.982,17.12514,-0.09411179,1.16278,1.0097
237.182,17.22192,-0.09683441,1.17245,1.00799
240.382,17.31856,-0.09948153,1.18718,1.00626
243.582,17.41516,-0.10222,1.19733,1.00451
246.782,17.51174,-0.10599,1.20683,1.00274
249.982,17.6082,-0.11039,1.2189,1.00096
253.182,17.70487,-0.11568,1.23095,0.99915
256.382,17.8013,-0.12071,1.24325,0.99733
259.582,17.89776,-0.12718,1.25414,0.99549
262.782,17.99415,-0.13456,1.26909,0.99363
265.982,18.0905,-0.14319,1.28229,0.99175
269.182,18.18689,-0.15304,1.29309,0.98986
272.382,18.28321,-0.16318,1.30593,0.98795
275.582,18.37959,-0.17621,1.31307,0.98602
278.782,18.47615,-0.19015,1.3205,0.98408
281.982,18.57273,-0.20457,1.33053,0.98212
285.182,18.66939,-0.22224,1.33846,0.98014
288.382,18.76618,-0.23961,1.34366,0.97814
291.582,18.86287,-0.26023,1.34911,0.97613
294.782,18.95966,-0.28117,1.35402,0.97411
297.982,19.0565,-0.30565,1.36077,0.97207
301.182,19.15353,-0.33015,1.36762,0.97001
304.382,19.2504,-0.35749,1.37637,0.96794
307.582,19.34737,-0.38723,1.38429,0.96585
310.782,19.44462,-0.41783,1.40126,0.96375
313.982,19.54177,-0.45342,1.41619,0.96164
317.182,19.63887,-0.48973,1.43764,0.95951
320.382,19.73641,-0.53124,1.46497,0.95736
323.582,19.83377,-0.57398,1.49909,0.9552
326.782,19.93137,-0.62193,1.53451,0.95303
329.982,20.02891,-0.67529,1.57549,0.95084
333.182,20.1266,-0.73063,1.62073,0.94865
336.382,20.22436,-0.79495,1.66572,0.94643
339.582,20.32216,-0.86172,1.7085,0.94421
342.782,20.42014,-0.93419,1.74658,0.94197
345.982,20.51829,-1.00789,1.7821,0.93972
349.182,20.61648,-1.08924,1.81345,0.93746
352.382,20.7147,-1.17025,1.84131,0.93518
355.582,20.81299,-1.25546,1.86753,0.9329
358.782,20.91144,-1.34345,1.89746,0.9306
361.982,21.00994,-1.43397,1.9416,0.92829
365.182,21.10843,-1.52858,2.00083,0.92597
368.382,21.20707,-1.62372,2.07323,0.92364
371.582,21.30594,-1.72651,2.16575,0.92129
374.782,21.40493,-1.83287,2.27181,0.91894
377.982,21.50395,-1.94828,2.37815,0.91657
381.182,21.6032,-2.06494,2.46447,0.9142
384.382,21.7025,-2.19191,2.507,0.91182
387.582,21.80179,-2.31394,2.48208,0.90942
390.782,21.90105,-2.43881,2.37222,0.90702
393.982,22.00031,-2.54976,2.1637,0.9046
397.182,22.09933,-2.65165,1.86752,0.90218
400.382,22.1984,-2.73339,1.51465,0.89975
403.582,22.29701,-2.79908,1.14462,0.89731
406.782,22.39569,-2.8481,0.80096,0.89486
409.982,22.49442,-2.88101,0.5235,0.8924
413.182,22.59326,-2.90342,0.32912,0.88993
416.382,22.69226,-2.91997,0.20779,0.88745
419.582,22.7915,-2.93328,0.14024,0.88497
422.782,22.8911,-2.94558,0.09579268,0.88248
425.982,22.99064,-2.95424,0.06522736,0.87998
429.182,23.09059,-2.96555,0.03720372,0.87748
432.382,23.19042,-2.97607,0.01127345,0.87496
435.582,23.29049,-2.98527,-0.01020675,0.87244
438.782,23.3907,-2.99612,-0.03547042,0.86991
441.982,23.49111,-3.00516,-0.05686792,0.86738
445.182,23.59143,-3.01621,-0.07368396,0.86484
448.382,23.6919,-3.02491,-0.09113699,0.86229
451.582,23.79249,-3.03282,-0.10303,0.85974
454.782,23.89311,-3.04266,-0.10833,0.85718
457.982,23.9939,-3.04966,-0.1103,0.85462
461.182,24.09481,-3.05691,-0.10731,0.85204
464.382,24.1957,-3.06629,-0.09950283,0.84947
467.582,24.29675,-3.07357,-0.08324027,0.84689
470.782,24.39811,-3.08307,-0.06183101,0.8443
473.982,24.4995,-3.08852,-0.03830805,0.84171
477.182,24.60096,-3.09525,-0.01252845,0.83911
480.382,24.70253,-3.10125,0.01291123,0.83651
483.582,24.80416,-3.10869,0.03950729,0.8339
486.782,24.9058,-3.11395,0.06495128,0.83129
489.982,25.0075,-3.1193,0.08523537,0.82868
493.182,25.1095,-3.12507,0.10833,0.82606
496.382,25.2116,-3.12886,0.12049,0.82344
499.582,25.31391,-3.13438,0.13399,0.82081
502.782,25.41617,-3.13808,0.1467,0.81819
505.982,25.51859,-3.14259,0.1545,0.81555
509.182,25.62116,-3.14721,0.1631,0.81292
512.382,25.72373,-3.15182,0.16879,0.81028
515.582,25.82624,-3.1558,0.17453,0.80764
518.782,25.92912,-3.16051,0.17958,0.80499
521.982,26.03189,-3.16336,0.18425,0.80234
525.182,26.13478,-3.16617,0.18587,0.79969
528.382,26.23797,-3.17014,0.18722,0.79704
531.582,26.3413,-3.17432,0.18676,0.79439
534.782,26.44452,-3.17575,0.18909,0.79173
537.982,26.54818,-3.18153,0.19194,0.78907
541.182,26.6517,-3.18299,0.18938,0.78641
544.382,26.75545,-3.18843,0.18975,0.78375
547.582,26.85923,-3.1911,0.1869,0.78109
550.782,26.96293,-3.19255,0.18993,0.77842
553.982,27.06656,-3.19505,0.19134,0.77576
557.182,27.17045,-3.19846,0.19399,0.77309
560.382,27.2743,-3.2023,0.19918,0.77042
563.582,27.37813,-3.20394,0.20172,0.76775
566.782,27.48194,-3.208,0.20945,0.76508
569.982,27.58584,-3.20926,0.2176,0.76241
573.182,27.6898,-3.21204,0.22147,0.75974
576.382,27.7941,-3.21436,0.22289,0.75707
579.582,27.89824,-3.2162,0.22319,0.7544
582.782,28.00258,-3.21876,0.22232,0.75173
585.982,28.1069,-3.22232,0.22236,0.74906
589.182,28.21135,-3.22399,0.22569,0.74639
592.382,28.3159,-3.22779,0.22286,0.74371
595.582,28.42046,-3.23048,0.22351,0.74104
598.782,28.52532,-3.23098,0.22372,0.73837
601.982,28.63,-3.2318,0.21883,0.7357
605.182,28.7348,-3.23479,0.21921,0.73303
608.382,28.83922,-3.23816,0.21546,0.73037
611.582,28.94442,-3.24084,0.21032,0.7277
614.782,29.04937,-3.24211,0.20387,0.72503
617.982,29.15447,-3.24484,0.19763,0.72237
621.182,29.25968,-3.24616,0.19367,0.7197
624.382,29.3648,-3.24881,0.18473,0.71704
627.582,29.46991,-3.25011,0.18232,0.71438
630.782,29.57522,-3.25377,0.17208,0.71172
633.982,29.68072,-3.25504,0.16815,0.70906
637.182,29.78616,-3.25646,0.16206,0.70641
640.382,29.89173,-3.25774,0.15794,0.70375
643.582,29.9974,-3.25899,0.15528,0.7011
646.782,30.1029,-3.26163,0.15034,0.69845
649.982,30.20842,-3.26297,0.14696,0.6958
653.182,30.314,-3.26461,0.14531,0.69315
656.382,30.41925,-3.2669,0.14219,0.69051
659.582,30.52522,-3.27107,0.13606,0.68787
662.782,30.631,-3.26975,0.13547,0.68523
665.982,30.73667,-3.27009,0.13198,0.68259
669.182,30.8423,-3.27204,0.12992,0.67996
672.382,30.9482,-3.27369,0.12437,0.67732
675.582,31.05395,-3.27575,0.12507,0.67469
678.782,31.15975,-3.27863,0.12009,0.67207
681.982,31.2655,-3.27899,0.12053,0.66944
685.182,31.3715,-3.28027,0.11452,0.66682
688.382,31.4776,-3.28161,0.11063,0.66421
691.582,31.58366,-3.28291,0.10839,0.66159
694.782,31.6898,-3.28421,0.10511,0.65898
697.982,31.7958,-3.28554,0.09771976,0.65637
701.182,31.90186,-3.28686,0.09351734,0.65377
704.382,32.00803,-3.28784,0.09125455,0.65117
707.582,32.11432,-3.28916,0.0822082,0.64857
710.782,32.22059,-3.29047,0.07102366,0.64597
713.982,32.3271,-3.29179,0.06960774,0.64338
717.182,32.43365,-3.29109,0.0645443,0.64079
720.382,32.54007,-3.29376,0.05693164,0.63821
723.582,32.64689,-3.29449,0.05042306,0.63563
726.782,32.75365,-3.29443,0.0465724,0.63305
729.982,32.86052,-3.29575,0.03615575,0.63048
733.182,32.96738,-3.29701,0.03000731,0.62791
736.382,33.07412,-3.29837,0.0228145,0.62535
739.582,33.1811,-3.29969,0.01993552,0.62279
742.782,33.28805,-3.29887,0.01431073,0.62023
745.982,33.39483,-3.301,0.01232583,0.61768
749.182,33.50197,-3.30182,0.004124949,0.61513
752.382,33.6086,-3.30094,0.001653126,0.61259
755.582,33.7159,-3.30362,-0.003083005,0.61005
758.782,33.823,-3.30496,-0.00573555,0.60751
761.982,33.92991,-3.30364,-0.009796619,0.60498
765.182,34.0375,-3.30625,-0.007474499,0.60245
768.382,34.14481,-3.30778,-0.01587434,0.59993
771.582,34.2522,-3.30441,-0.02244451,0.59741
774.782,34.35954,-3.30572,-0.02306729,0.5949
777.982,34.4668,-3.30677,-0.02794726,0.59239
781.182,34.57432,-3.30769,-0.03067877,0.58988
784.382,34.68172,-3.309,-0.03397571,0.58738
787.582,34.78921,-3.30866,-0.03789653,0.58489
790.782,34.89686,-3.30967,-0.03925868,0.5824
793.782,34.99787,-3.31037,-0.04902395,0.58007