Folder: fsri_materials_database/01_Data/Wood_Stud/STA/N2/30K_min (part 2)

File: Wood_Stud_STA_N2_30KData_220128_R3.csv
##Temp./Â°C,Time/min,Mass loss(subtr.2)/mg,DSC(subtr.2)/(mW/mg),Sensit./(uV/mW)
48.386,10.01,-0.01974,0.01380513,1.06965
51.686,10.88773,-0.02103379,0.1743,1.06935
54.986,11.12416,-0.02046541,0.28333,1.06902
58.286,11.30689,-0.0201532,0.36605,1.06865
61.586,11.4651,-0.02105688,0.43419,1.06826
64.886,11.60897,-0.02035286,0.48909,1.06784
68.186,11.7446,-0.0209059,0.54221,1.06739
71.486,11.87347,-0.01986216,0.58303,1.06691
74.786,11.9987,-0.02178746,0.62338,1.0664
78.086,12.1206,-0.02194028,0.6603,1.06586
81.386,12.24,-0.02161077,0.69378,1.06529
84.686,12.3575,-0.02323753,0.72267,1.06469
87.986,12.47302,-0.02479314,0.75407,1.06407
91.286,12.5871,-0.02592934,0.77902,1.06341
94.586,12.70054,-0.0263315,0.80293,1.06272
97.886,12.81291,-0.02858824,0.82814,1.06201
101.186,12.92491,-0.02788935,0.84462,1.06127
104.486,13.03629,-0.02897323,0.85853,1.0605
107.786,13.1472,-0.03147942,0.86702,1.0597
111.086,13.25805,-0.03151049,0.87049,1.05887
114.386,13.3688,-0.03334957,0.86758,1.05801
117.686,13.47904,-0.03466243,0.86112,1.05713
120.986,13.5886,-0.03564952,0.85507,1.05622
124.286,13.6976,-0.03564988,0.85031,1.05528
127.586,13.8065,-0.03600274,0.84238,1.05431
130.886,13.9146,-0.03694473,0.83653,1.05332
134.186,14.0223,-0.03697001,0.83689,1.0523
137.486,14.1287,-0.03763327,0.8389,1.05125
140.786,14.23599,-0.03697224,0.84123,1.05018
144.086,14.34215,-0.03828078,0.84913,1.04908
147.386,14.4477,-0.03961411,0.8554,1.04796
150.686,14.55282,-0.03865211,0.86304,1.0468
153.986,14.65809,-0.03926904,0.87247,1.04563
157.286,14.7628,-0.03880312,0.88358,1.04442
160.586,14.8672,-0.03830062,0.8954,1.04319
163.886,14.971,-0.03828898,0.90565,1.04194
167.186,15.0749,-0.03959999,0.91776,1.04066
170.486,15.1784,-0.0396,0.93013,1.03936
173.786,15.28168,-0.0396,0.94198,1.03803
177.086,15.38471,-0.03959041,0.95643,1.03667
180.386,15.48722,-0.04025995,0.96683,1.0353
183.686,15.58947,-0.04026,0.98137,1.0339
186.986,15.6914,-0.04025999,0.99295,1.03247
190.286,15.79301,-0.0415693,1.00538,1.03102
193.586,15.8943,-0.04287891,1.01689,1.02955
196.886,15.99554,-0.04222754,1.03128,1.02805
200.186,16.09656,-0.04386868,1.04384,1.02653
203.486,16.19734,-0.04386949,1.05777,1.02499
206.786,16.29791,-0.0448545,1.07153,1.02343
210.086,16.39846,-0.04617999,1.08399,1.02184
213.386,16.4987,-0.04584814,1.09673,1.02023
216.686,16.59902,-0.04716,1.10782,1.0186
219.986,16.69933,-0.0471383,1.11914,1.01695
223.286,16.79941,-0.04945367,1.12728,1.01527
226.586,16.89968,-0.05143982,1.13747,1.01358
229.886,16.9997,-0.05243323,1.14393,1.01186
233.186,17.0997,-0.05506224,1.149,1.01012
236.486,17.19987,-0.05780149,1.15819,1.00836
239.786,17.29982,-0.05976481,1.16606,1.00658
243.086,17.3998,-0.06371479,1.17646,1.00478
246.386,17.4996,-0.0671285,1.18755,1.00296
249.686,17.5994,-0.07112501,1.19852,1.00112
252.986,17.69951,-0.07657018,1.20934,0.99926
256.286,17.79927,-0.08124046,1.22265,0.99738
259.586,17.89911,-0.0880411,1.23856,0.99549
262.886,17.99886,-0.09670784,1.24958,0.99357
266.186,18.0986,-0.10472,1.26129,0.99163
269.486,18.19836,-0.11475,1.2769,0.98968
272.786,18.2982,-0.12552,1.28439,0.98771
276.086,18.39784,-0.14117,1.2971,0.98572
279.386,18.49739,-0.15493,1.30524,0.98371
282.686,18.59743,-0.17027,1.31692,0.98168
285.986,18.69725,-0.18613,1.32447,0.97964
289.286,18.79716,-0.2046,1.3322,0.97758
292.586,18.89705,-0.22683,1.33906,0.9755
295.886,18.99697,-0.24919,1.34533,0.97341
299.186,19.0971,-0.27605,1.35163,0.9713
302.486,19.19697,-0.30259,1.36049,0.96917
305.786,19.29707,-0.33179,1.36994,0.96703
309.086,19.39695,-0.36233,1.38524,0.96487
312.386,19.49706,-0.39704,1.40157,0.96269
315.686,19.59749,-0.43393,1.42176,0.9605
318.986,19.6977,-0.47445,1.45003,0.9583
322.286,19.79791,-0.51743,1.48383,0.95608
325.586,19.8983,-0.56602,1.52002,0.95384
328.886,19.99867,-0.61858,1.56465,0.95159
332.186,20.09923,-0.67728,1.61184,0.94933
335.486,20.19985,-0.73929,1.6585,0.94705
338.786,20.30038,-0.80922,1.70527,0.94476
342.086,20.40111,-0.87919,1.74848,0.94246
345.386,20.5019,-0.95744,1.78844,0.94014
348.686,20.60294,-1.03853,1.8219,0.93781
351.986,20.7038,-1.12532,1.85127,0.93547
355.286,20.80486,-1.21171,1.87946,0.93311
358.586,20.90606,-1.30394,1.90841,0.93074
361.886,21.00732,-1.39524,1.95209,0.92836
365.186,21.1086,-1.49197,2.01414,0.92596
368.486,21.21009,-1.59298,2.09252,0.92356
371.786,21.31175,-1.69933,2.18921,0.92114
375.086,21.41357,-1.81144,2.2992,0.91871
378.386,21.5156,-1.92871,2.40597,0.91628
381.686,21.6177,-2.05359,2.49464,0.91382
384.986,21.7199,-2.18187,2.53013,0.91136
388.286,21.82222,-2.31328,2.49159,0.90889
391.586,21.92456,-2.43627,2.35591,0.90641
394.886,22.0269,-2.55357,2.11587,0.90392
398.186,22.12889,-2.65248,1.79214,0.90142
401.486,22.23112,-2.73558,1.41331,0.89891
404.786,22.33311,-2.7967,1.03307,0.89638
408.086,22.43511,-2.83965,0.70234,0.89385
411.386,22.53722,-2.87145,0.44785,0.89132
414.686,22.63924,-2.89272,0.28162,0.88877
417.986,22.7419,-2.90675,0.18585,0.88621
421.286,22.84437,-2.91916,0.13098,0.88365
424.586,22.94708,-2.93082,0.09942282,0.88107
427.886,23.05024,-2.94216,0.06827123,0.87849
431.186,23.15336,-2.95201,0.04267381,0.8759
434.486,23.2566,-2.96299,0.01829497,0.87331
437.786,23.36006,-2.97326,-0.00197043,0.8707
441.086,23.46358,-2.98328,-0.02427444,0.86809
444.386,23.5672,-2.99257,-0.04356278,0.86547
447.686,23.6709,-3.00296,-0.06178157,0.86285
450.986,23.77476,-3.01082,-0.07812333,0.86022
454.286,23.87893,-3.02075,-0.08502305,0.85758
457.586,23.98336,-3.02941,-0.09113695,0.85493
460.886,24.08765,-3.03835,-0.08759149,0.85228
464.186,24.192,-3.04772,-0.07791595,0.84963
467.486,24.29655,-3.05497,-0.06546935,0.84696
470.786,24.4011,-3.06355,-0.04568479,0.8443
474.086,24.5058,-3.0708,-0.02091419,0.84162
477.386,24.61063,-3.07738,0.002054916,0.83895
480.686,24.71545,-3.08502,0.02827359,0.83626
483.986,24.82049,-3.09075,0.05617525,0.83358
487.286,24.92558,-3.09684,0.07674614,0.83088
490.586,25.0307,-3.10306,0.09698871,0.82819
493.886,25.1361,-3.10627,0.11727,0.82549
497.186,25.24145,-3.11183,0.13327,0.82278
500.486,25.34689,-3.1164,0.14476,0.82007
503.786,25.45222,-3.12269,0.15915,0.81736
507.086,25.558,-3.12647,0.16764,0.81464
510.386,25.66354,-3.13107,0.17774,0.81192
513.686,25.7694,-3.13576,0.18496,0.8092
516.986,25.87529,-3.1384,0.18676,0.80648
520.286,25.98094,-3.1423,0.18999,0.80375
523.586,26.0869,-3.1465,0.19274,0.80102
526.886,26.1932,-3.15017,0.19031,0.79828
530.186,26.29931,-3.15418,0.19415,0.79555
533.486,26.4057,-3.1577,0.19204,0.79281
536.786,26.51193,-3.16092,0.19136,0.79007
540.086,26.61863,-3.16362,0.19176,0.78732
543.386,26.72513,-3.16797,0.1902,0.78458
546.686,26.8318,-3.16988,0.18603,0.78183
549.986,26.9386,-3.17412,0.18595,0.77908
553.286,27.04542,-3.1778,0.18886,0.77634
556.586,27.1524,-3.18042,0.18627,0.77359
559.886,27.25933,-3.18309,0.1902,0.77083
563.186,27.3664,-3.18606,0.19171,0.76808
566.486,27.47362,-3.18883,0.19269,0.76533
569.786,27.5809,-3.19117,0.19494,0.76258
573.086,27.6883,-3.19492,0.19181,0.75982
576.386,27.7956,-3.19774,0.19363,0.75707
579.686,27.9033,-3.20055,0.1912,0.75431
582.986,28.01101,-3.20211,0.18677,0.75156
586.286,28.11859,-3.20597,0.18642,0.7488
589.586,28.2263,-3.20723,0.18164,0.74605
592.886,28.33404,-3.20989,0.17766,0.74329
596.186,28.4419,-3.21261,0.17541,0.74054
599.486,28.5498,-3.21523,0.17005,0.73779
602.786,28.6578,-3.21656,0.16385,0.73503
606.086,28.76588,-3.21882,0.15855,0.73228
609.386,28.874,-3.22183,0.15287,0.72953
612.686,28.9824,-3.22307,0.14927,0.72678
615.986,29.09083,-3.22576,0.14324,0.72403
619.286,29.1994,-3.2284,0.13565,0.72128
622.586,29.30779,-3.22894,0.13158,0.71854
625.886,29.41638,-3.23425,0.1298,0.71579
629.186,29.525,-3.23513,0.12074,0.71305
632.486,29.63386,-3.23783,0.12018,0.71031
635.786,29.74255,-3.23906,0.11438,0.70756
639.086,29.8513,-3.2412,0.10578,0.70483
642.386,29.9602,-3.24507,0.10575,0.70209
645.686,30.06914,-3.24506,0.10005,0.69936
648.986,30.1778,-3.2468,0.10138,0.69662
652.286,30.28665,-3.24967,0.09433872,0.69389
655.586,30.3957,-3.25192,0.09235561,0.69117
658.886,30.5045,-3.25311,0.08628632,0.68844
662.186,30.6135,-3.25362,0.08074626,0.68572
665.486,30.72245,-3.25504,0.08222719,0.683
668.786,30.83135,-3.25755,0.07558345,0.68028
672.086,30.9403,-3.25889,0.06986385,0.67757
675.386,31.04948,-3.26021,0.0694271,0.67486
678.686,31.15853,-3.26152,0.06267602,0.67215
681.986,31.26775,-3.26154,0.06062155,0.66944
685.286,31.37698,-3.26282,0.05405174,0.66674
688.586,31.4862,-3.26403,0.04973755,0.66404
691.886,31.5955,-3.26558,0.0479834,0.66134
695.186,31.70481,-3.26688,0.04238545,0.65865
698.486,31.814,-3.26856,0.03511725,0.65596
701.786,31.92383,-3.2695,0.03348944,0.65328
705.086,32.03337,-3.27084,0.02941361,0.65059
708.386,32.14311,-3.27084,0.02010856,0.64792
711.686,32.25271,-3.27215,0.01500258,0.64524
714.986,32.36255,-3.27346,0.00986056,0.64257
718.286,32.4722,-3.27199,0.00540991,0.6399
721.586,32.58193,-3.27542,0.00309023,0.63724
724.886,32.69173,-3.27666,-0.00271327,0.63458
728.186,32.80165,-3.27666,-0.01015167,0.63193
731.486,32.91183,-3.27798,-0.01223486,0.62927
734.786,33.0218,-3.27942,-0.01604569,0.62663
738.086,33.1319,-3.28075,-0.01906053,0.62398
741.386,33.24217,-3.28192,-0.02121736,0.62135
744.686,33.35238,-3.28176,-0.02452373,0.61871
747.986,33.4627,-3.28265,-0.02967444,0.61608
751.286,33.573,-3.28427,-0.03365598,0.61346
754.586,33.68332,-3.2829,-0.03662221,0.61084
757.886,33.79383,-3.28422,-0.0401791,0.60822
761.186,33.9043,-3.28553,-0.04259337,0.60561
764.486,34.01507,-3.28414,-0.04704357,0.603
767.786,34.12565,-3.28684,-0.0495818,0.6004
771.086,34.23644,-3.28723,-0.04996065,0.5978
774.386,34.34717,-3.28948,-0.05742675,0.59521
777.686,34.458,-3.28949,-0.05882078,0.59262
780.986,34.5689,-3.28949,-0.06243393,0.59004
784.286,34.67989,-3.29081,-0.06805121,0.58746
787.586,34.79094,-3.29113,-0.06785699,0.58488
790.886,34.90187,-3.29245,-0.07577775,0.58232
793.786,34.9996,-3.29212,-0.07513494,0.58006