Folder: fsri_materials_database/01_Data/Wood_Stud/STA/N2/3K_min

Note: 01_Data/README.md
# Materials and Products Database
## 01_Data

Raw data generated from each apparatus are included here in plain-text format. The data is organized first by material, next by the short name of test apparatus used, and where applicable additional filtering by test settings.

### material.json

Each material directory contains a json file of the same name as the material. This file links the data stored in the repository as well as data and graphs produced by the accompanying scripts (__02_Scripts__) to the respective landing page for the material on the front-end website.

File: Wood_Stud_STA_N2_3KData_220127_R1.csv
##Temp./Â°C,Time/min,Mass loss(subtr.2)/mg,DSC(subtr.2)/(mW/mg),Sensit./(uV/mW)
49.96,10.0158,-0.0623,0.01620041,1.06379
53.16,12.30745,-0.07351196,0.06699157,1.06302
56.36,13.51854,-0.07865009,0.07559089,1.06225
59.56,14.67087,-0.08426318,0.07924617,1.06147
62.76,15.77856,-0.08801481,0.08323765,1.06068
65.96,16.867,-0.0941084,0.08498573,1.0599
69.16,17.9446,-0.10138,0.08634193,1.0591
72.36,19.01643,-0.10299,0.08767488,1.0583
75.56,20.09352,-0.10902,0.08481329,1.0575
78.76,21.17014,-0.11166,0.08167026,1.05669
81.96,22.2412,-0.11689,0.07863674,1.05587
85.16,23.31109,-0.11955,0.07609803,1.05505
88.36,24.37671,-0.12252,0.07382367,1.05423
91.56,25.44214,-0.12591,0.06819578,1.0534
94.76,26.5079,-0.12712,0.06742581,1.05256
97.96,27.5666,-0.13031,0.06755729,1.05172
101.16,28.6328,-0.13075,0.06427997,1.05087
104.36,29.69244,-0.12979,0.06629762,1.05001
107.56,30.75003,-0.1324,0.06726724,1.04915
110.76,31.80759,-0.13471,0.06785597,1.04828
113.96,32.8675,-0.13568,0.07015928,1.0474
117.16,33.91977,-0.13831,0.07302349,1.04652
120.36,34.9717,-0.14063,0.0757535,1.04563
123.56,36.0285,-0.14096,0.07431727,1.04473
126.76,37.08187,-0.14226,0.07615319,1.04383
129.96,38.1421,-0.14432,0.07299057,1.04291
133.16,39.19641,-0.14555,0.07760244,1.04199
136.36,40.24516,-0.14622,0.07759029,1.04107
139.56,41.2953,-0.14621,0.08165224,1.04013
142.76,42.3409,-0.14723,0.0846549,1.03919
145.96,43.3925,-0.1505,0.08376248,1.03823
149.16,44.44429,-0.15115,0.08616149,1.03727
152.36,45.4938,-0.14914,0.08883012,1.03631
155.56,46.53542,-0.1515,0.09171648,1.03533
158.76,47.58112,-0.1521,0.09269572,1.03434
161.96,48.62577,-0.15191,0.09251619,1.03334
165.16,49.6696,-0.15408,0.09405729,1.03234
168.36,50.71242,-0.15424,0.0971114,1.03133
171.56,51.75717,-0.15553,0.09711719,1.0303
174.76,52.8036,-0.1586,0.09680742,1.02927
177.96,53.8434,-0.15849,0.09951179,1.02823
181.16,54.8848,-0.16079,0.09936102,1.02717
184.36,55.93166,-0.1631,0.10062,1.02611
187.56,56.9793,-0.16541,0.10016,1.02504
190.76,58.0183,-0.16442,0.10423,1.02395
193.96,59.06061,-0.16673,0.10629,1.02286
197.16,60.09678,-0.16903,0.11017,1.02175
200.36,61.13514,-0.17133,0.11101,1.02064
203.56,62.1765,-0.17458,0.11281,1.01951
206.76,63.2212,-0.17824,0.11123,1.01837
209.96,64.2633,-0.18088,0.11792,1.01722
213.16,65.3002,-0.18355,0.11822,1.01606
216.36,66.3361,-0.18674,0.12012,1.01489
219.56,67.37518,-0.1927,0.12101,1.0137
222.76,68.41471,-0.19825,0.12221,1.01251
225.96,69.4586,-0.20565,0.12564,1.0113
229.16,70.4979,-0.21312,0.13038,1.01008
232.36,71.53657,-0.22243,0.13439,1.00885
235.56,72.57066,-0.23287,0.13763,1.0076
238.76,73.6163,-0.24571,0.13681,1.00635
241.96,74.66091,-0.25697,0.13988,1.00507
245.16,75.69682,-0.2707,0.14447,1.00379
248.36,76.73451,-0.28549,0.13484,1.0025
251.56,77.76655,-0.30398,0.13799,1.00119
254.76,78.80365,-0.32514,0.1369,0.99986
257.96,79.84284,-0.34762,0.13541,0.99853
261.16,80.87654,-0.37267,0.14008,0.99718
264.36,81.9114,-0.40234,0.14256,0.99581
267.56,82.94889,-0.43326,0.14339,0.99444
270.76,83.99106,-0.46694,0.14734,0.99305
273.96,85.03,-0.50483,0.15172,0.99164
277.16,86.06286,-0.54813,0.15638,0.99022
280.36,87.09904,-0.59372,0.16157,0.98879
283.56,88.14067,-0.6431,0.16406,0.98734
286.76,89.1858,-0.69625,0.17306,0.98588
289.96,90.22267,-0.75715,0.17991,0.9844
293.16,91.26494,-0.82051,0.18288,0.98291
296.36,92.3069,-0.88933,0.19301,0.9814
299.56,93.34325,-0.96228,0.20489,0.97988
302.76,94.38031,-1.04257,0.20495,0.97834
305.96,95.42919,-1.12784,0.20665,0.97679
309.16,96.46871,-1.21638,0.21597,0.97522
312.36,97.51013,-1.30601,0.22034,0.97364
315.56,98.55508,-1.40039,0.22342,0.97204
318.76,99.6008,-1.49884,0.22619,0.97042
321.96,100.646,-1.59897,0.23745,0.96879
325.16,101.6914,-1.70101,0.24335,0.96715
328.36,102.74,-1.81071,0.25178,0.96548
331.56,103.783,-1.92471,0.26622,0.96381
334.76,104.83,-2.04432,0.28288,0.96211
337.96,105.8762,-2.17326,0.2921,0.9604
341.16,106.926,-2.30707,0.29661,0.95867
344.36,107.968,-2.44131,0.29723,0.95693
347.56,109.017,-2.56983,0.27819,0.95517
350.76,110.064,-2.68672,0.24436,0.95339
353.96,111.11,-2.78727,0.19198,0.9516
357.16,112.157,-2.86177,0.13881,0.94979
360.36,113.205,-2.91446,0.09055572,0.94796
363.56,114.25,-2.94668,0.05352271,0.94612
366.76,115.302,-2.96668,0.02977642,0.94426
369.96,116.349,-2.98048,0.02344207,0.94238
373.16,117.397,-2.99103,0.02219206,0.94049
376.36,118.445,-3.00186,0.01591778,0.93858
379.56,119.496,-3.0122,0.01230925,0.93665
382.76,120.545,-3.02115,0.0104906,0.9347
385.96,121.6019,-3.03048,0.00827276,0.93274
389.16,122.6571,-3.04138,0.004814923,0.93076
392.36,123.703,-3.05213,0.0008156977,0.92876
395.56,124.763,-3.06244,-0.003151013,0.92675
398.76,125.818,-3.07206,-0.005940415,0.92471
401.96,126.866,-3.08087,-0.008591927,0.92266
405.16,127.926,-3.09158,-0.01817271,0.9206
408.36,128.988,-3.10159,-0.01815071,0.91851
411.56,130.038,-3.11182,-0.01790431,0.91641
414.76,131.086,-3.12039,-0.01898437,0.91429
417.96,132.149,-3.12988,-0.01952984,0.91215
421.16,133.209,-3.1391,-0.01524487,0.90999
424.36,134.262,-3.147,-0.01356484,0.90782
427.56,135.32,-3.15413,-0.015434,0.90563
430.76,136.38,-3.16182,-0.01209168,0.90342
433.96,137.442,-3.1688,-0.006560865,0.9012
437.16,138.501,-3.17662,-0.004319059,0.89895
440.36,139.553,-3.18333,-0.0003333746,0.89669
443.56,140.609,-3.18843,-0.000459351,0.89441
446.76,141.668,-3.19577,0.001090125,0.89211
449.96,142.7295,-3.19999,0.00179091,0.8898
453.16,143.7937,-3.20492,0.01085383,0.88746
456.36,144.85,-3.20854,0.02130919,0.88511
459.56,145.9064,-3.21381,0.01958031,0.88275
462.76,146.967,-3.22005,0.02201474,0.88036
465.96,148.037,-3.22335,0.01983382,0.87796
469.16,149.1108,-3.22927,0.01124485,0.87554
472.36,150.172,-3.23367,0.01025521,0.8731
475.56,151.2355,-3.23586,0.007500805,0.87064
478.76,152.294,-3.24112,0.00216013,0.86817
481.96,153.354,-3.24507,0.003538385,0.86568
485.16,154.426,-3.24869,8.26306e-05,0.86317
488.36,155.493,-3.25352,-0.00684317,0.86064
491.56,156.554,-3.25705,-0.008548952,0.8581
494.76,157.613,-3.25889,-0.01099984,0.85554
497.96,158.681,-3.26285,-0.01598451,0.85296
501.16,159.75,-3.26485,-0.02030859,0.85037
504.36,160.819,-3.27008,-0.02696348,0.84775
507.56,161.883,-3.27468,-0.02810957,0.84512
510.76,162.944,-3.27666,-0.03215742,0.84248
513.96,164.009,-3.27994,-0.03409004,0.83981
517.16,165.081,-3.28294,-0.04263208,0.83713
520.36,166.153,-3.28554,-0.03913336,0.83444
523.56,167.223,-3.28816,-0.03807528,0.83172
526.76,168.284,-3.29179,-0.04211306,0.82899
529.96,169.355,-3.29403,-0.04308032,0.82624
533.16,170.425,-3.29728,-0.04166183,0.82348
536.36,171.494,-3.30035,-0.04831532,0.8207
539.56,172.561,-3.30335,-0.05054872,0.8179
542.76,173.6327,-3.30561,-0.04917362,0.81509
545.96,174.699,-3.30792,-0.04743373,0.81226
549.16,175.766,-3.31121,-0.046647,0.80942
552.36,176.841,-3.31278,-0.04999484,0.80656
555.56,177.913,-3.31582,-0.05126863,0.80368
558.76,178.985,-3.31924,-0.04935691,0.80079
561.96,180.053,-3.32442,-0.04623118,0.79788
565.16,181.121,-3.32571,-0.0502869,0.79496
568.36,182.201,-3.32797,-0.05032568,0.79202
571.56,183.272,-3.3293,-0.04941541,0.78906
574.76,184.337,-3.33325,-0.04620327,0.78609
577.96,185.406,-3.33424,-0.04177428,0.78311
581.16,186.4905,-3.33786,-0.04541187,0.78011
584.36,187.557,-3.33851,-0.0439371,0.7771
587.56,188.635,-3.34246,-0.04154898,0.77407
590.76,189.7117,-3.34346,-0.04366036,0.77102
593.96,190.789,-3.34541,-0.03914786,0.76796
597.16,191.857,-3.34807,-0.03487445,0.76489
600.36,192.93,-3.34905,-0.03715709,0.76181
603.56,194.012,-3.35069,-0.0408069,0.75871
606.76,195.088,-3.35299,-0.03577087,0.75559
609.96,196.159,-3.35371,-0.03997516,0.75246
613.16,197.233,-3.35497,-0.03613281,0.74932
616.36,198.312,-3.35662,-0.03960988,0.74617
619.56,199.387,-3.35859,-0.03503598,0.743
622.76,200.462,-3.36023,-0.03721482,0.73982
625.96,201.546,-3.36122,-0.03436622,0.73662
629.16,202.626,-3.36354,-0.03117274,0.73342
632.36,203.699,-3.36385,-0.02939412,0.7302
635.56,204.7768,-3.36641,-0.03346333,0.72696
638.76,205.85,-3.36648,-0.03207357,0.72372
641.96,206.935,-3.36922,-0.03022882,0.72046
645.16,208.015,-3.36912,-0.03382675,0.71719
648.36,209.091,-3.36982,-0.03639899,0.71391
651.56,210.1666,-3.37077,-0.03953561,0.71062
654.76,211.246,-3.37251,-0.04005478,0.70732
657.96,212.326,-3.37141,-0.03815004,0.70401
661.16,213.405,-3.37263,-0.03545313,0.70068
664.36,214.485,-3.37296,-0.03651564,0.69734
667.56,215.566,-3.37461,-0.03292255,0.694
670.76,216.642,-3.37724,-0.02913087,0.69064
673.96,217.717,-3.37724,-0.02934319,0.68727
677.16,218.793,-3.3768,-0.0326421,0.68389
680.36,219.8747,-3.37822,-0.02846075,0.6805
683.56,220.956,-3.37879,-0.02760631,0.67711
686.76,222.039,-3.37966,-0.02927565,0.6737
689.96,223.119,-3.38025,-0.02818215,0.67028
693.16,224.1927,-3.38184,-0.03064954,0.66686
696.36,225.272,-3.38349,-0.03179932,0.66342
699.56,226.358,-3.38485,-0.03393941,0.65998
702.76,227.433,-3.38514,-0.03690238,0.65653
705.96,228.511,-3.38579,-0.04131833,0.65307
709.16,229.593,-3.38641,-0.04381346,0.6496
712.36,230.677,-3.38711,-0.04147503,0.64612
715.56,231.766,-3.38842,-0.04515576,0.64264
718.76,232.843,-3.38803,-0.05407024,0.63915
721.96,233.916,-3.39138,-0.05115881,0.63565
725.16,235,-3.39171,-0.05851434,0.63214
728.36,236.087,-3.39155,-0.06763665,0.62863
731.56,237.171,-3.39336,-0.06810332,0.62511
734.76,238.253,-3.39401,-0.07440183,0.62159
737.96,239.335,-3.39511,-0.08323224,0.61805
741.16,240.425,-3.39712,-0.08355336,0.61452
744.36,241.506,-3.39706,-0.09339667,0.61097
747.56,242.582,-3.39841,-0.09787736,0.60742
750.76,243.665,-3.39906,-0.10869,0.60387
753.96,244.75,-3.39905,-0.11066,0.60031
757.16,245.8345,-3.40071,-0.11298,0.59674
760.36,246.926,-3.40136,-0.12221,0.59317
763.56,248.0095,-3.40005,-0.13339,0.5896
766.76,249.1,-3.40269,-0.14139,0.58602
769.96,250.183,-3.4017,-0.14092,0.58244
773.16,251.2688,-3.40268,-0.14553,0.57885
776.36,252.347,-3.40202,-0.14619,0.57526
779.56,253.436,-3.40301,-0.14013,0.57167
782.76,254.517,-3.40429,-0.14332,0.56807
785.96,255.599,-3.404,-0.15093,0.56448
789.16,256.685,-3.40475,-0.1594,0.56087
792.36,257.776,-3.40399,-0.15887,0.55727
795.56,258.856,-3.40265,-0.15505,0.55366
798.76,259.943,-3.40391,-0.1482,0.55006
798.86,259.978,-3.40431,-0.14578,0.54994