Folder: fsri_materials_database/01_Data/Air_Fryer/MCC (part 2)

File: Air_Fryer_MCC_30K_min_220203_R3.txt
Sample ID:	C:\MCC\MCC Cal\Test\Air_Fryer_MCC_30K_min_220203_R3.txt
Sample Weight (mg):	4.11
Heating Rate (C/s):	0.5
Combustor Temp (C):	900
N2 Flow Rate (cc/min):	80
O2 Flow Rate (cc/min):	20
Calibration File:	C:\MCC\MCC Cal\Coeff1 JN10440_30_210304.txt.txt
T Correction Coefficients:	0	1.024463	0
Time Shift (s):	14
*
Time (s)	Temperature (C)	N2 flow rate (cc/min)	O2 flow rate (cc/min)	Flow Rate (cc/min)	Oxygen (%)	HRR (W/g)	Heating rate (C/s)
0.000	114.349	80.007	19.993	103.834	20.179	-0.484	-0.006
7.500	114.366	80.007	19.993	103.832	20.179	-0.471	-0.002
15.001	114.349	80.006	19.994	103.857	20.175	-0.169	-0.024
22.500	114.490	80.007	19.994	103.934	20.159	1.134	0.023
30.000	114.937	80.008	19.994	104.016	20.145	2.252	0.069
37.500	115.851	80.008	19.994	104.054	20.139	2.694	0.134
45.001	117.235	80.005	19.995	104.061	20.134	3.059	0.189
52.501	119.009	80.006	19.995	104.061	20.130	3.376	0.271
60.000	121.084	80.005	19.993	104.069	20.128	3.592	0.285
67.500	123.517	80.006	19.994	104.068	20.127	3.657	0.329
75.000	126.004	80.005	19.994	104.069	20.130	3.440	0.334
82.500	128.837	80.006	19.993	104.068	20.129	3.486	0.389
90.000	131.797	80.008	19.994	104.082	20.127	3.620	0.382
97.501	134.942	80.007	19.993	104.073	20.128	3.546	0.439
105.001	138.218	80.007	19.994	104.074	20.126	3.728	0.440
112.500	141.631	80.007	19.995	104.070	20.130	3.400	0.473
120.000	145.182	80.008	19.993	104.064	20.129	3.472	0.479
127.501	148.801	80.006	19.996	104.066	20.129	3.513	0.486
135.000	152.475	80.005	19.995	104.067	20.131	3.326	0.514
142.500	156.167	80.004	19.994	104.061	20.132	3.252	0.441
150.000	159.874	80.004	19.995	104.060	20.137	2.839	0.474
157.500	163.589	80.006	19.994	104.047	20.138	2.739	0.472
165.000	167.410	80.007	19.994	104.041	20.141	2.554	0.476
172.500	171.200	80.008	19.994	104.037	20.139	2.730	0.510
180.000	174.901	80.007	19.993	104.026	20.141	2.521	0.500
187.500	178.619	80.007	19.993	104.026	20.140	2.627	0.503
195.000	182.363	80.008	19.994	104.028	20.142	2.464	0.485
202.500	186.084	80.006	19.994	104.026	20.146	2.124	0.485
210.000	189.842	80.004	19.995	104.015	20.151	1.736	0.485
217.500	193.240	80.006	19.995	103.997	20.150	1.858	0.446
225.000	196.605	80.006	19.996	104.016	20.149	1.940	0.458
232.500	200.053	80.006	19.996	103.992	20.145	2.238	0.474
240.000	203.489	80.003	19.996	103.989	20.145	2.235	0.445
247.500	207.049	80.007	19.994	103.992	20.146	2.146	0.455
255.000	210.611	80.007	19.994	103.990	20.147	2.053	0.481
262.500	214.149	80.006	19.993	104.005	20.146	2.138	0.472
270.000	217.729	80.006	19.994	103.996	20.147	2.097	0.460
277.500	221.390	80.006	19.993	103.993	20.149	1.929	0.485
285.000	225.067	80.006	19.994	103.990	20.147	2.029	0.510
292.500	228.799	80.005	19.995	103.991	20.148	1.990	0.480
300.000	232.596	80.006	19.994	103.987	20.150	1.801	0.526
307.500	236.260	80.006	19.995	103.986	20.149	1.942	0.477
315.000	240.051	80.005	19.994	103.984	20.148	1.953	0.505
322.500	243.892	80.006	19.996	103.989	20.154	1.484	0.509
330.000	247.666	80.006	19.994	103.988	20.154	1.471	0.496
337.500	251.501	80.005	19.995	103.980	20.155	1.462	0.500
345.000	255.284	80.006	19.993	103.978	20.152	1.681	0.521
352.500	259.012	80.007	19.993	103.982	20.159	1.084	0.491
360.000	262.728	80.009	19.994	103.978	20.155	1.416	0.519
367.500	266.453	80.006	19.995	103.975	20.154	1.473	0.494
375.000	270.172	80.006	19.994	103.974	20.159	1.130	0.486
382.500	273.946	80.007	19.995	103.978	20.156	1.377	0.503
390.000	277.734	80.007	19.996	103.966	20.157	1.279	0.497
397.500	281.515	80.005	19.995	103.963	20.153	1.588	0.493
405.000	285.333	80.006	19.995	103.960	20.154	1.498	0.500
412.500	289.182	80.007	19.995	103.952	20.152	1.633	0.532
420.000	293.010	80.008	19.995	103.947	20.152	1.676	0.499
427.500	296.809	80.007	19.996	103.948	20.155	1.448	0.501
435.000	300.501	80.008	19.995	103.947	20.154	1.490	0.469
442.500	304.359	80.008	19.995	103.946	20.158	1.166	0.516
450.000	308.132	80.006	19.995	103.948	20.160	1.042	0.479
457.500	311.968	80.006	19.995	103.950	20.156	1.375	0.501
465.000	315.721	80.006	19.996	103.950	20.154	1.520	0.471
472.500	319.500	80.007	19.994	103.951	20.160	1.073	0.509
480.000	323.306	80.006	19.994	103.947	20.156	1.349	0.509
487.500	327.088	80.007	19.996	103.952	20.155	1.403	0.517
495.000	330.841	80.008	19.995	103.947	20.153	1.564	0.497
502.500	334.703	80.007	19.995	103.944	20.151	1.713	0.530
510.000	338.444	80.006	19.995	103.946	20.151	1.783	0.499
517.500	342.295	80.007	19.996	103.936	20.151	1.757	0.528
525.000	346.053	80.008	19.996	103.932	20.149	1.887	0.517
532.500	349.858	80.006	19.994	103.938	20.150	1.787	0.507
540.000	353.708	80.006	19.994	103.942	20.149	1.935	0.511
547.500	357.499	80.007	19.994	103.923	20.146	2.125	0.506
555.000	361.208	80.007	19.995	103.938	20.146	2.147	0.493
562.500	364.970	80.006	19.995	103.912	20.142	2.464	0.490
570.000	368.698	80.006	19.995	103.922	20.141	2.512	0.493
577.500	372.460	80.008	19.994	103.916	20.133	3.161	0.536
585.000	376.206	80.008	19.995	103.924	20.125	3.828	0.540
592.500	379.957	80.008	19.994	103.917	20.120	4.190	0.523
600.000	383.697	80.009	19.994	103.927	20.110	4.997	0.470
607.500	387.569	80.006	19.995	103.917	20.095	6.146	0.543
615.000	391.443	80.005	19.995	103.908	20.087	6.762	0.498
622.500	395.366	80.006	19.995	103.916	20.079	7.444	0.520
630.001	399.262	80.006	19.995	103.909	20.073	7.926	0.504
637.500	403.104	80.007	19.994	103.909	20.060	8.898	0.528
645.000	406.931	80.005	19.994	103.910	20.047	9.927	0.508
652.500	410.742	80.005	19.996	103.912	20.034	10.997	0.520
660.000	414.510	80.008	19.995	103.908	20.005	13.248	0.493
667.500	418.328	80.007	19.994	103.913	19.971	15.955	0.470
675.000	422.087	80.009	19.995	103.904	19.914	20.426	0.479
682.500	425.911	80.009	19.994	103.895	19.805	29.006	0.510
690.000	429.769	80.009	19.995	103.859	19.679	38.974	0.516
697.500	433.514	80.005	19.995	103.916	19.450	56.961	0.501
705.000	437.273	80.007	19.996	103.867	19.137	81.635	0.490
712.500	440.961	80.006	19.996	103.811	18.721	114.290	0.484
720.000	444.602	80.005	19.995	103.748	18.152	159.050	0.485
727.500	448.339	80.005	19.994	103.699	17.441	214.854	0.530
735.000	452.178	80.006	19.994	103.495	16.628	277.907	0.571
742.500	455.662	80.009	19.994	103.464	15.625	355.928	0.500
750.000	459.589	80.008	19.994	103.313	14.499	442.627	0.474
757.500	463.300	80.009	19.994	103.067	13.173	544.418	0.486
765.000	467.181	80.009	19.994	102.855	12.238	618.890	0.505
772.500	471.106	80.008	19.996	102.879	11.742	658.493	0.495
780.000	475.063	80.006	19.997	102.420	12.071	632.264	0.566
787.500	479.022	80.007	19.995	102.814	13.113	553.407	0.540
795.000	482.942	80.005	19.995	103.027	14.936	412.002	0.519
802.500	486.924	80.006	19.995	103.466	16.923	256.091	0.523
810.000	490.894	80.006	19.995	103.751	18.394	140.318	0.556
817.500	494.766	80.006	19.995	103.841	19.306	68.436	0.515
825.001	498.602	80.007	19.995	103.898	19.829	27.175	0.509
832.500	502.303	80.007	19.995	103.926	20.065	8.508	0.487
840.000	506.003	80.008	19.995	103.871	20.133	3.167	0.492
847.500	509.717	80.010	19.994	103.706	20.146	2.107	0.507
855.000	513.410	80.008	19.993	103.798	20.154	1.506	0.486
862.500	517.183	80.006	19.993	103.873	20.160	1.050	0.499
870.000	521.025	80.006	19.996	103.890	20.156	1.313	0.519
877.500	524.871	80.007	19.995	103.906	20.159	1.135	0.542
885.000	528.711	80.006	19.995	103.906	20.159	1.148	0.501
892.500	532.567	80.005	19.996	103.893	20.160	1.013	0.532
900.000	536.426	80.007	19.996	103.875	20.165	0.621	0.488
907.501	540.253	80.008	19.995	103.876	20.162	0.896	0.501
915.000	544.052	80.006	19.994	103.889	20.165	0.662	0.491
922.500	547.859	80.007	19.995	103.897	20.162	0.907	0.509
930.000	551.682	80.010	19.996	103.894	20.162	0.899	0.508
937.500	555.581	80.006	19.995	103.904	20.166	0.567	0.528
945.000	559.483	80.007	19.995	103.895	20.164	0.682	0.497
952.500	563.340	80.008	19.994	103.899	20.166	0.540	0.520
960.000	567.252	80.008	19.996	103.898	20.165	0.673	0.502
967.500	571.102	80.006	19.995	103.892	20.162	0.866	0.508
975.000	575.057	80.006	19.995	103.895	20.165	0.623	0.516
982.500	578.886	80.006	19.994	103.894	20.166	0.530	0.502
990.000	582.768	80.006	19.994	103.883	20.168	0.438	0.515
997.500	586.570	80.006	19.995	103.890	20.168	0.399	0.501
1005.000	590.411	80.007	19.995	103.899	20.168	0.430	0.519
1012.500	594.179	80.008	19.993	103.877	20.166	0.549	0.497
1020.000	598.019	80.006	19.995	103.872	20.167	0.458	0.520
1027.500	601.775	80.005	19.994	103.875	20.165	0.673	0.484
1035.000	605.558	80.006	19.993	103.875	20.166	0.588	0.514
1042.501	609.331	80.007	19.994	103.882	20.164	0.749	0.510
1050.000	613.114	80.005	19.995	103.880	20.167	0.514	0.519
1057.500	616.879	80.005	19.995	103.882	20.169	0.358	0.504
1065.000	620.574	80.007	19.994	103.871	20.166	0.547	0.489
1072.500	624.216	80.007	19.994	103.882	20.165	0.629	0.470
1080.000	627.849	80.008	19.996	103.876	20.165	0.671	0.491
1087.500	631.671	80.007	19.996	103.904	20.161	0.940	0.511
1095.000	635.802	80.008	19.994	103.895	20.161	0.933	0.556
1102.501	639.959	80.007	19.995	103.899	20.161	0.988	0.553
1110.000	644.177	80.006	19.994	103.909	20.163	0.766	0.616
1117.500	648.421	80.006	19.995	103.902	20.163	0.786	0.567
1125.000	652.690	80.006	19.996	103.895	20.164	0.710	0.548
1132.500	656.977	80.007	19.994	103.899	20.164	0.755	0.584
1140.000	661.123	80.006	19.995	103.898	20.163	0.794	0.539
1147.500	665.284	80.008	19.994	103.896	20.164	0.749	0.553
1155.000	669.415	80.008	19.995	103.884	20.160	1.053	0.564
1162.500	673.421	80.007	19.994	103.903	20.167	0.464	0.522
1170.000	677.375	80.008	19.994	103.884	20.161	0.924	0.489
1177.500	681.261	80.008	19.995	103.891	20.163	0.812	0.482
1185.000	685.027	80.004	19.996	103.887	20.165	0.660	0.495
1192.500	688.787	80.006	19.995	103.896	20.163	0.779	0.499
1200.001	692.594	80.006	19.995	103.887	20.168	0.378	0.527
1207.500	696.363	80.007	19.995	103.878	20.163	0.775	0.500
1215.000	700.135	80.005	19.996	103.884	20.165	0.601	0.510
1222.500	703.893	80.007	19.994	103.886	20.164	0.753	0.510
1230.000	707.635	80.007	19.994	103.889	20.162	0.877	0.516
1237.500	711.389	80.007	19.994	103.900	20.161	0.946	0.518
1245.000	715.232	80.006	19.995	103.879	20.161	0.920	0.529
1252.501	718.971	80.007	19.994	103.879	20.159	1.124	0.494
1260.000	722.736	80.008	19.995	103.888	20.164	0.727	0.494
1267.501	726.407	80.006	19.995	103.885	20.159	1.135	0.530
1275.000	729.996	80.005	19.996	103.868	20.162	0.857	0.458
1282.500	733.492	80.006	19.996	103.872	20.161	0.951	0.442
1290.000	736.984	80.007	19.994	103.882	20.161	0.985	0.465
1297.500	740.520	80.005	19.995	103.874	20.158	1.176	0.491
1304.000	743.660	80.007	19.995	103.874	20.161	0.944	0.482