Folder: fsri_materials_database/01_Data/Air_Fryer/MCC

Note: 01_Data/README.md
# Materials and Products Database
## 01_Data

Raw data generated from each apparatus are included here in plain-text format. The data is organized first by material, next by the short name of test apparatus used, and where applicable additional filtering by test settings.

### material.json

Each material directory contains a json file of the same name as the material. This file links the data stored in the repository as well as data and graphs produced by the accompanying scripts (__02_Scripts__) to the respective landing page for the material on the front-end website.

File: Air_Fryer_MCC_30K_min_220203_R1.txt
Sample ID:	C:\MCC\MCC Cal\Test\Air_Fryer_MCC_30K_min_220203_R1.txt
Sample Weight (mg):	4.86
Heating Rate (C/s):	0.5
Combustor Temp (C):	900
N2 Flow Rate (cc/min):	80
O2 Flow Rate (cc/min):	20
Calibration File:	C:\MCC\MCC Cal\Coeff1 JN10440_30_210304.txt.txt
T Correction Coefficients:	0	1.024463	0
Time Shift (s):	14
*
Time (s)	Temperature (C)	N2 flow rate (cc/min)	O2 flow rate (cc/min)	Flow Rate (cc/min)	Oxygen (%)	HRR (W/g)	Heating rate (C/s)
0.000	112.076	80.006	19.995	103.796	20.171	-0.138	-0.012
8.000	112.025	80.007	19.994	103.817	20.168	0.048	-0.027
16.001	112.193	80.009	19.994	103.916	20.154	0.972	0.056
24.000	112.619	80.008	19.993	103.946	20.143	1.681	0.078
32.001	113.449	80.006	19.994	103.994	20.141	1.841	0.122
40.000	114.631	80.007	19.993	104.000	20.132	2.429	0.162
48.000	116.152	80.005	19.993	103.993	20.134	2.332	0.210
56.000	117.905	80.006	19.994	104.004	20.133	2.409	0.202
64.000	119.852	80.007	19.993	104.022	20.129	2.656	0.246
72.000	122.077	80.008	19.994	104.023	20.130	2.550	0.273
80.000	124.497	80.007	19.993	104.057	20.124	2.957	0.313
88.000	127.148	80.008	19.995	104.066	20.124	2.970	0.339
96.000	130.092	80.008	19.995	104.077	20.118	3.410	0.388
104.001	133.185	80.005	19.995	104.095	20.119	3.310	0.390
112.001	136.544	80.006	19.993	104.086	20.118	3.393	0.431
120.000	140.142	80.005	19.995	104.084	20.117	3.440	0.476
128.000	143.873	80.007	19.993	104.083	20.118	3.358	0.477
136.000	147.737	80.005	19.994	104.074	20.117	3.471	0.534
144.000	151.637	80.006	19.995	104.082	20.119	3.293	0.496
152.000	155.626	80.009	19.994	104.067	20.122	3.101	0.499
160.000	159.516	80.008	19.995	104.065	20.120	3.274	0.469
168.001	163.490	80.006	19.996	104.067	20.118	3.397	0.509
176.000	167.502	80.007	19.995	104.064	20.119	3.340	0.499
184.000	171.489	80.007	19.995	104.047	20.120	3.259	0.475
192.000	175.452	80.007	19.996	104.045	20.121	3.211	0.506
200.000	179.419	80.007	19.996	104.031	20.119	3.299	0.495
208.000	183.385	80.007	19.995	104.032	20.125	2.885	0.492
216.000	187.431	80.006	19.995	104.025	20.121	3.202	0.554
224.000	191.314	80.005	19.994	104.028	20.124	2.966	0.473
232.000	195.218	80.007	19.993	104.027	20.124	2.978	0.484
240.000	199.143	80.007	19.995	104.031	20.124	2.985	0.512
248.000	203.122	80.007	19.993	104.031	20.123	3.065	0.527
256.000	207.180	80.009	19.994	104.026	20.124	2.997	0.534
264.000	211.276	80.009	19.994	104.021	20.122	3.108	0.507
272.000	215.317	80.005	19.995	104.023	20.127	2.773	0.507
280.000	219.340	80.007	19.995	104.016	20.127	2.776	0.512
288.000	223.288	80.007	19.995	104.004	20.133	2.401	0.458
296.000	227.306	80.006	19.995	103.994	20.131	2.506	0.497
304.000	231.272	80.007	19.993	103.999	20.128	2.710	0.472
312.000	235.216	80.005	19.994	103.999	20.126	2.826	0.474
320.000	239.134	80.008	19.994	103.988	20.125	2.908	0.466
328.000	243.054	80.008	19.994	103.986	20.125	2.923	0.490
336.000	246.908	80.008	19.994	103.986	20.128	2.713	0.500
344.000	250.771	80.008	19.993	103.984	20.126	2.847	0.489
352.000	254.571	80.007	19.993	103.983	20.126	2.840	0.465
360.000	258.296	80.006	19.996	103.986	20.127	2.765	0.486
368.000	262.138	80.007	19.994	103.987	20.128	2.691	0.516
376.000	265.939	80.006	19.995	103.989	20.126	2.849	0.472
384.000	269.827	80.005	19.996	103.988	20.125	2.916	0.496
392.000	273.846	80.008	19.996	103.987	20.126	2.831	0.483
400.000	277.859	80.008	19.994	103.985	20.123	3.066	0.507
408.000	281.911	80.007	19.993	103.987	20.124	2.978	0.492
416.000	286.044	80.007	19.993	103.984	20.123	3.026	0.521
424.000	290.298	80.008	19.994	103.986	20.124	2.993	0.535
432.000	294.510	80.008	19.993	103.985	20.122	3.127	0.517
440.000	298.649	80.005	19.993	103.987	20.123	3.015	0.514
448.000	302.801	80.005	19.995	103.977	20.125	2.939	0.504
456.000	306.894	80.006	19.994	103.966	20.126	2.823	0.507
464.000	310.993	80.006	19.994	103.966	20.123	3.019	0.510
472.000	315.073	80.007	19.995	103.959	20.122	3.080	0.490
480.000	319.073	80.007	19.996	103.961	20.124	3.008	0.525
488.000	323.090	80.007	19.994	103.962	20.118	3.356	0.487
496.000	327.068	80.006	19.994	103.961	20.119	3.295	0.471
504.000	331.015	80.007	19.994	103.966	20.120	3.259	0.461
512.000	335.041	80.009	19.996	103.965	20.116	3.541	0.466
520.000	339.024	80.008	19.993	103.952	20.113	3.695	0.475
528.000	343.000	80.006	19.993	103.946	20.112	3.801	0.475
536.000	347.048	80.008	19.993	103.951	20.110	3.930	0.528
544.000	351.066	80.006	19.995	103.947	20.110	3.919	0.488
552.000	355.129	80.005	19.994	103.954	20.106	4.173	0.500
560.000	359.199	80.008	19.995	103.952	20.104	4.316	0.523
568.000	363.216	80.007	19.994	103.953	20.101	4.490	0.511
576.000	367.325	80.006	19.994	103.953	20.094	4.955	0.504
584.000	371.500	80.007	19.995	103.946	20.091	5.192	0.488
592.000	375.948	80.009	19.994	103.946	20.088	5.355	0.680
600.000	379.713	80.008	19.994	103.943	20.077	6.084	0.507
608.000	383.867	80.006	19.993	103.945	20.074	6.295	0.481
616.000	388.003	80.006	19.993	103.947	20.065	6.907	0.521
624.000	392.133	80.007	19.993	103.947	20.052	7.766	0.536
632.000	396.199	80.006	19.994	103.948	20.043	8.405	0.526
640.000	400.262	80.005	19.994	103.939	20.024	9.640	0.498
648.000	404.371	80.009	19.994	103.928	19.999	11.303	0.493
656.000	408.450	80.008	19.994	103.934	19.975	12.916	0.480
664.000	412.500	80.007	19.993	103.922	19.924	16.336	0.482
672.000	416.552	80.007	19.995	103.904	19.892	18.429	0.520
680.000	420.518	80.008	19.995	103.913	19.834	22.343	0.501
688.000	424.488	80.007	19.993	103.919	19.713	30.400	0.471
696.000	428.474	80.007	19.994	103.908	19.576	39.514	0.492
704.000	432.461	80.006	19.993	103.881	19.336	55.487	0.505
712.000	436.413	80.006	19.993	103.911	18.912	83.754	0.487
720.000	440.369	80.006	19.993	103.735	18.358	120.484	0.488
728.000	444.297	80.007	19.994	103.707	17.637	168.368	0.474
736.000	448.257	80.009	19.994	103.572	16.687	231.027	0.486
744.000	452.269	80.006	19.995	103.391	15.614	302.156	0.518
752.000	456.244	80.007	19.994	103.256	14.157	396.798	0.503
760.000	460.359	80.008	19.996	102.840	12.583	499.073	0.505
768.000	464.441	80.004	19.994	102.479	11.116	594.795	0.503
776.000	468.563	80.007	19.994	102.434	10.462	638.954	0.541
784.000	472.717	80.007	19.993	102.615	10.384	643.711	0.506
792.000	476.951	80.006	19.995	102.390	11.177	594.007	0.516
800.000	481.201	80.005	19.994	102.906	13.341	454.117	0.558
808.000	485.462	80.007	19.993	103.389	16.019	276.670	0.533
816.000	489.672	80.009	19.992	103.800	17.994	145.088	0.497
824.000	493.904	80.007	19.994	103.891	19.147	68.209	0.556
832.000	497.974	80.007	19.994	103.948	19.770	26.612	0.486
840.000	502.028	80.009	19.994	103.960	20.021	9.871	0.500
848.000	506.043	80.008	19.996	103.920	20.084	5.676	0.504
856.000	510.108	80.007	19.994	103.906	20.099	4.666	0.497
864.000	514.126	80.006	19.996	103.890	20.108	4.040	0.531
872.000	518.223	80.007	19.996	103.774	20.110	3.927	0.518
880.000	522.300	80.006	19.995	103.786	20.114	3.651	0.495
888.000	526.416	80.007	19.995	103.912	20.113	3.734	0.540
896.001	530.503	80.009	19.992	103.926	20.120	3.239	0.524
904.000	534.576	80.009	19.993	103.919	20.117	3.474	0.580
912.000	538.668	80.007	19.992	103.911	20.115	3.609	0.523
920.001	542.673	80.010	19.994	103.911	20.117	3.437	0.535
928.000	546.730	80.009	19.991	103.906	20.118	3.350	0.536
936.000	550.785	80.006	19.995	103.906	20.116	3.508	0.513
944.000	554.989	80.006	19.995	103.908	20.115	3.609	0.534
952.000	559.266	80.008	19.993	103.910	20.113	3.681	0.559
960.000	563.714	80.005	19.996	103.916	20.113	3.685	0.566
968.000	568.206	80.005	19.994	103.926	20.119	3.341	0.578
976.000	572.764	80.008	19.994	103.912	20.117	3.448	0.567
984.000	577.388	80.008	19.994	103.911	20.120	3.253	0.579
992.000	581.835	80.007	19.996	103.913	20.115	3.565	0.566
1000.000	586.282	80.008	19.993	103.906	20.118	3.372	0.556
1008.000	590.625	80.008	19.992	103.902	20.117	3.470	0.549
1016.000	594.970	80.007	19.994	103.908	20.119	3.293	0.541
1024.001	599.211	80.005	19.995	103.910	20.119	3.293	0.501
1032.000	603.421	80.007	19.994	103.913	20.122	3.121	0.493
1040.000	607.547	80.005	19.994	103.906	20.122	3.117	0.508
1048.000	611.680	80.005	19.996	103.900	20.121	3.152	0.531
1056.000	615.750	80.007	19.994	103.905	20.120	3.213	0.502
1064.000	619.810	80.008	19.995	103.902	20.118	3.360	0.524
1072.000	623.843	80.006	19.993	103.908	20.118	3.365	0.509
1080.000	627.890	80.006	19.994	103.910	20.122	3.124	0.471
1088.000	631.909	80.009	19.993	103.911	20.121	3.167	0.507
1096.000	635.919	80.007	19.994	103.910	20.122	3.103	0.530
1104.000	639.920	80.007	19.992	103.912	20.124	3.007	0.497
1112.000	643.918	80.006	19.995	103.914	20.120	3.258	0.514
1120.000	647.883	80.007	19.995	103.909	20.122	3.091	0.493
1128.000	651.908	80.008	19.994	103.908	20.121	3.209	0.516
1136.000	655.932	80.007	19.995	103.909	20.120	3.240	0.493
1144.000	659.958	80.007	19.995	103.909	20.121	3.167	0.498
1152.000	664.036	80.007	19.995	103.909	20.121	3.165	0.512
1160.001	668.056	80.006	19.994	103.913	20.124	2.956	0.478
1168.000	672.100	80.008	19.995	103.911	20.123	3.056	0.507
1176.000	676.197	80.009	19.993	103.906	20.125	2.904	0.485
1184.000	680.239	80.006	19.995	103.908	20.117	3.475	0.537
1192.000	684.258	80.007	19.993	103.908	20.117	3.429	0.496
1200.000	688.275	80.006	19.993	103.915	20.119	3.321	0.494
1208.000	692.272	80.006	19.994	103.911	20.116	3.508	0.471
1216.000	696.361	80.006	19.994	103.912	20.115	3.604	0.502
1224.000	700.384	80.006	19.994	103.910	20.116	3.505	0.508
1232.000	704.414	80.007	19.994	103.916	20.112	3.800	0.517
1240.000	708.544	80.006	19.994	103.908	20.116	3.539	0.536
1248.000	712.726	80.007	19.995	103.906	20.118	3.370	0.525
1256.000	716.934	80.008	19.994	103.906	20.116	3.521	0.519
1264.000	721.038	80.008	19.994	103.906	20.114	3.644	0.497
1272.000	725.092	80.006	19.994	103.911	20.117	3.426	0.462
1280.000	729.127	80.006	19.994	103.912	20.116	3.541	0.519
1288.000	733.105	80.005	19.993	103.906	20.115	3.565	0.477
1296.000	736.908	80.007	19.993	103.902	20.116	3.502	0.470
1304.000	740.684	80.007	19.995	103.902	20.120	3.246	0.471
1311.000	743.994	80.009	19.995	103.901	20.110	3.929	0.478

File: Air_Fryer_MCC_30K_min_220203_R2.txt
Sample ID:	C:\MCC\MCC Cal\Test\Air_Fryer_MCC_30K_min_220203_R2.txt
Sample Weight (mg):	4.48
Heating Rate (C/s):	0.5
Combustor Temp (C):	900
N2 Flow Rate (cc/min):	80
O2 Flow Rate (cc/min):	20
Calibration File:	C:\MCC\MCC Cal\Coeff1 JN10440_30_210304.txt.txt
T Correction Coefficients:	0	1.024463	0
Time Shift (s):	14
*
Time (s)	Temperature (C)	N2 flow rate (cc/min)	O2 flow rate (cc/min)	Flow Rate (cc/min)	Oxygen (%)	HRR (W/g)	Heating rate (C/s)
0.000	112.556	80.008	19.994	103.831	20.113	0.050	-0.020
8.000	112.573	80.008	19.996	103.834	20.110	0.267	-0.019
16.000	112.549	80.007	19.994	103.890	20.099	1.012	0.005
24.000	112.795	80.007	19.995	103.943	20.089	1.722	0.056
32.000	113.441	80.011	19.995	104.004	20.081	2.347	0.107
40.000	114.536	80.009	19.994	104.014	20.075	2.768	0.169
48.000	115.922	80.006	19.994	104.038	20.071	3.084	0.162
56.000	117.815	80.007	19.994	104.068	20.066	3.409	0.257
64.001	120.071	80.008	19.994	104.076	20.061	3.796	0.283
72.001	122.674	80.008	19.993	104.100	20.059	3.902	0.356
80.000	125.574	80.008	19.994	104.101	20.058	4.030	0.371
88.000	128.614	80.008	19.996	104.098	20.053	4.391	0.416
96.000	131.898	80.009	19.995	104.101	20.061	3.787	0.418
104.000	135.385	80.009	19.995	104.097	20.056	4.138	0.448
112.000	138.991	80.008	19.994	104.098	20.057	4.083	0.437
120.000	142.806	80.008	19.995	104.100	20.057	4.111	0.514
128.000	146.741	80.026	20.000	104.097	20.055	4.211	0.484
136.000	150.741	80.006	19.994	104.072	20.060	3.837	0.494
144.000	154.705	80.007	19.995	104.073	20.058	4.009	0.496
152.000	158.761	80.009	19.994	104.065	20.059	3.951	0.495
160.000	162.794	80.007	19.994	104.054	20.062	3.735	0.503
168.000	166.772	80.009	19.994	104.046	20.066	3.398	0.476
176.000	170.737	80.009	19.995	104.036	20.065	3.502	0.491
184.000	174.640	80.009	19.993	104.037	20.061	3.793	0.496
192.000	178.549	80.008	19.996	104.037	20.062	3.691	0.518
200.000	182.413	80.011	19.994	104.036	20.064	3.547	0.483
208.000	186.422	80.008	19.995	104.035	20.061	3.810	0.525
216.000	190.373	80.008	19.995	104.028	20.064	3.577	0.491
224.000	194.310	80.007	19.996	104.033	20.064	3.577	0.506
232.000	198.313	80.009	19.994	104.028	20.064	3.559	0.471
240.000	202.289	80.008	19.994	104.029	20.066	3.405	0.485
248.000	206.273	80.008	19.994	104.028	20.066	3.441	0.489
256.000	210.317	80.009	19.994	104.028	20.064	3.543	0.501
264.000	214.316	80.008	19.994	104.022	20.065	3.523	0.502
272.000	218.277	80.009	19.993	104.027	20.065	3.499	0.490
280.000	222.286	80.012	19.994	104.014	20.062	3.739	0.526
288.000	226.230	80.010	19.995	104.005	20.065	3.500	0.501
296.000	230.210	80.008	19.994	104.008	20.065	3.476	0.513
304.000	234.173	80.008	19.995	103.997	20.067	3.347	0.499
312.000	238.134	80.007	19.996	103.992	20.067	3.323	0.510
320.000	242.060	80.006	19.994	103.991	20.069	3.223	0.481
328.000	246.061	80.008	19.994	103.991	20.066	3.452	0.520
336.000	250.022	80.007	19.993	103.998	20.064	3.593	0.506
344.000	253.940	80.009	19.994	103.990	20.063	3.653	0.484
352.000	257.839	80.009	19.992	103.986	20.065	3.462	0.487
360.000	261.784	80.010	19.994	103.985	20.065	3.514	0.492
368.000	265.700	80.011	19.993	103.990	20.066	3.424	0.472
376.000	269.724	80.009	19.993	103.986	20.065	3.504	0.515
384.000	273.727	80.007	19.993	103.986	20.067	3.372	0.543
392.000	277.734	80.008	19.992	103.988	20.067	3.368	0.541
400.001	281.708	80.009	19.994	103.991	20.064	3.536	0.464
408.001	285.832	80.008	19.995	103.988	20.068	3.262	0.513
416.000	289.883	80.008	19.995	103.981	20.066	3.440	0.542
424.000	293.928	80.008	19.995	103.983	20.062	3.685	0.485
432.000	297.958	80.009	19.996	103.979	20.064	3.585	0.502
440.000	301.931	80.009	19.995	103.976	20.063	3.645	0.511
448.000	305.909	80.011	19.994	103.981	20.059	3.947	0.491
456.000	309.834	80.009	19.995	103.967	20.063	3.607	0.486
464.000	313.840	80.008	19.994	103.983	20.059	3.920	0.496
472.000	317.830	80.008	19.996	103.983	20.056	4.165	0.486
480.000	321.802	80.008	19.995	103.982	20.060	3.824	0.515
488.000	325.798	80.008	19.994	103.981	20.059	3.910	0.496
496.000	329.895	80.008	19.995	103.979	20.058	3.999	0.573
504.000	333.998	80.007	19.997	103.976	20.055	4.180	0.534
512.000	338.061	80.010	19.995	103.966	20.053	4.338	0.508
520.000	342.208	80.010	19.994	103.957	20.055	4.194	0.539
528.000	346.215	80.008	19.993	103.954	20.051	4.487	0.530
536.000	350.379	80.011	19.993	103.961	20.045	4.908	0.470
544.000	354.424	80.007	19.994	103.948	20.049	4.624	0.513
552.000	358.726	80.008	19.994	103.953	20.047	4.815	0.385
560.000	362.726	80.008	19.993	103.954	20.043	5.061	0.536
568.000	366.797	80.007	19.995	103.948	20.039	5.402	0.511
576.000	370.888	80.007	19.994	103.966	20.036	5.571	0.534
584.000	375.109	80.008	19.994	103.961	20.026	6.296	0.546
592.000	379.361	80.010	19.994	103.962	20.017	6.973	0.516
600.000	383.726	80.008	19.995	103.950	20.008	7.624	0.539
608.000	388.120	80.008	19.995	103.951	19.998	8.327	0.555
616.000	392.553	80.013	19.994	103.945	19.989	8.968	0.566
624.000	396.933	80.010	19.995	103.945	19.979	9.686	0.523
632.000	401.221	80.010	19.995	103.951	19.959	11.130	0.523
640.000	405.427	80.008	19.995	103.946	19.941	12.479	0.524
648.000	409.624	80.008	19.994	103.932	19.915	14.321	0.532
656.001	413.687	80.008	19.994	103.931	19.873	17.368	0.497
664.000	417.741	80.009	19.995	103.916	19.822	21.081	0.482
672.000	421.729	80.008	19.995	103.920	19.762	25.427	0.474
680.000	425.657	80.009	19.995	103.910	19.635	34.637	0.525
688.000	429.595	80.007	19.995	103.905	19.460	47.227	0.494
696.000	433.470	80.011	19.995	103.895	19.169	68.261	0.477
704.000	437.354	80.010	19.995	103.863	18.755	98.159	0.481
712.000	441.316	80.010	19.995	103.812	18.207	137.614	0.487
720.000	445.305	80.007	19.993	103.723	17.488	189.281	0.487
728.000	449.316	80.008	19.996	103.598	16.534	257.642	0.505
736.000	453.291	80.008	19.995	103.471	15.452	334.960	0.511
744.000	457.201	80.009	19.994	103.325	14.116	430.028	0.483
752.000	461.018	80.010	19.995	102.747	12.807	521.108	0.461
760.000	464.830	80.011	19.994	102.570	11.843	590.983	0.491
768.000	468.696	80.009	19.995	102.863	11.389	624.377	0.498
776.000	472.669	80.010	19.995	102.678	11.610	609.372	0.476
784.000	476.746	80.013	19.994	102.756	12.620	538.079	0.489
792.001	480.900	80.009	19.996	102.908	14.550	401.516	0.486
800.000	485.072	80.009	19.995	103.551	16.725	245.001	0.518
808.000	489.302	80.010	19.994	103.773	18.281	132.555	0.551
816.000	493.400	80.010	19.994	103.887	19.227	64.138	0.500
824.000	497.597	80.009	19.996	103.934	19.756	25.882	0.544
832.000	501.684	80.010	19.995	103.947	19.974	10.089	0.510
840.000	505.843	80.011	19.995	103.887	20.034	5.716	0.544
848.000	509.936	80.010	19.994	103.666	20.046	4.849	0.496
856.000	514.103	80.011	19.995	103.864	20.054	4.276	0.538
864.000	518.211	80.011	19.995	103.910	20.055	4.243	0.526
872.000	522.242	80.010	19.995	103.934	20.057	4.041	0.515
880.000	526.262	80.010	19.995	103.936	20.059	3.937	0.504
888.000	530.255	80.006	19.994	103.915	20.059	3.905	0.516
896.000	534.206	80.010	19.995	103.915	20.060	3.851	0.509
904.000	538.204	80.010	19.995	103.901	20.059	3.943	0.528
912.000	542.183	80.008	19.994	103.910	20.056	4.164	0.512
920.000	546.233	80.009	19.994	103.915	20.059	3.941	0.510
928.000	550.230	80.008	19.994	103.943	20.063	3.664	0.526
936.000	554.320	80.009	19.994	103.948	20.059	3.940	0.528
944.000	558.562	80.011	19.994	103.937	20.061	3.770	0.557
952.000	562.734	80.010	19.993	103.937	20.059	3.929	0.508
960.000	566.837	80.009	19.996	103.910	20.059	3.953	0.501
968.000	570.962	80.009	19.994	103.907	20.060	3.856	0.496
976.000	575.027	80.009	19.993	103.915	20.061	3.781	0.499
984.000	579.031	80.009	19.994	103.910	20.061	3.776	0.503
992.000	583.080	80.007	19.996	103.923	20.061	3.770	0.502
1000.000	587.052	80.009	19.995	103.917	20.058	3.963	0.499
1008.000	591.083	80.010	19.995	103.907	20.057	4.099	0.476
1016.000	595.192	80.011	19.995	103.917	20.056	4.108	0.520
1024.000	599.220	80.010	19.994	103.912	20.056	4.164	0.525
1032.000	603.245	80.012	19.994	103.906	20.056	4.143	0.500
1040.000	607.339	80.009	19.994	103.922	20.060	3.883	0.506
1048.000	611.472	80.009	19.994	103.927	20.057	4.084	0.523
1056.000	615.644	80.010	19.995	103.932	20.059	3.902	0.513
1064.000	619.773	80.009	19.995	103.934	20.055	4.239	0.529
1072.001	623.896	80.009	19.995	103.916	20.055	4.235	0.501
1080.001	628.020	80.009	19.995	103.928	20.055	4.245	0.493
1088.000	632.132	80.010	19.994	103.934	20.055	4.196	0.512
1096.000	636.238	80.009	19.994	103.923	20.057	4.076	0.529
1104.000	640.268	80.010	19.995	103.935	20.057	4.086	0.505
1112.000	644.317	80.011	19.993	103.929	20.053	4.365	0.486
1120.000	648.336	80.010	19.995	103.935	20.050	4.592	0.491
1128.000	652.377	80.009	19.995	103.942	20.055	4.231	0.495
1136.001	656.362	80.011	19.994	103.921	20.057	4.079	0.471
1144.000	660.468	80.009	19.995	103.936	20.056	4.121	0.508
1152.000	664.533	80.010	19.996	103.943	20.056	4.121	0.530
1160.000	668.538	80.007	19.995	103.921	20.054	4.257	0.551
1168.000	672.530	80.012	19.995	103.931	20.051	4.509	0.484
1176.000	676.654	80.008	19.995	103.940	20.050	4.553	0.515
1184.001	680.712	80.009	19.995	103.937	20.045	4.948	0.498
1192.001	684.807	80.010	19.995	103.937	20.046	4.836	0.510
1200.000	688.965	80.011	19.993	103.931	20.056	4.176	0.557
1208.001	693.133	80.008	19.995	103.925	20.052	4.455	0.545
1216.000	697.289	80.010	19.994	103.910	20.048	4.732	0.513
1224.000	701.411	80.009	19.995	103.913	20.050	4.585	0.521
1232.000	705.459	80.010	19.996	103.942	20.045	4.955	0.491
1240.001	709.560	80.008	19.994	103.922	20.048	4.703	0.491
1248.000	713.642	80.009	19.996	103.923	20.048	4.752	0.523
1256.000	717.766	80.009	19.994	103.922	20.046	4.845	0.512
1264.000	721.858	80.010	19.994	103.914	20.047	4.764	0.543
1272.001	725.818	80.010	19.996	103.907	20.048	4.724	0.501
1280.000	729.798	80.010	19.996	103.907	20.052	4.417	0.472
1288.000	733.823	80.008	19.995	103.915	20.047	4.804	0.507
1296.000	737.780	80.010	19.995	103.910	20.044	4.995	0.488
1304.000	741.851	80.009	19.995	103.918	20.047	4.798	0.503
1307.500	743.597	80.009	19.993	103.911	20.044	4.987	0.525