Folder: fsri_materials_database/01_Data/Polyester_Fabric/Cone

Note: 01_Data/README.md
# Materials and Products Database
## 01_Data

Raw data generated from each apparatus are included here in plain-text format. The data is organized first by material, next by the short name of test apparatus used, and where applicable additional filtering by test settings.

### material.json

Each material directory contains a json file of the same name as the material. This file links the data stored in the repository as well as data and graphs produced by the accompanying scripts (__02_Scripts__) to the respective landing page for the material on the front-end website.

File: Polyester_Fabric_Cone_HF25Scan_210324_R2.csv
Names,Time,Stack TC,Smoke TC,Exh Press,Smoke Comp,Smoke Meas,CO Meter,CO2 Meter,O2 Meter,Sample Mass,Ext Coeff,Start Test,Flame Verif
Chan Gain,,500,500,1,1,1,1,1,1,1,1,1,1
Offset,,0,0,0.194005,0,0,0,0,0,0,0,0,0
Gain,,1,1,25.011,13.5067,16.616,1,1,1,1.00091,1.04608,1,1
Units,sec,C,C,Pa,%,%,%,%,%,g,/m,,
Baseline,,20.871,22.0636,167.91,101.812,100.925,0.000529793,0.113373,20.6972,-1.35506,0.0803034,,
6,1.25,17.862,19.4366,168.578,101.649,100.751,0.000268431,0.118841,20.6812,469.658,0.0814085,0,0
12,2.75,18.6976,19.1208,169.009,101.642,100.78,0.000309559,0.11978,20.681,469.577,0.0781434,0,0
18,4.25,18.5586,19.5907,164.106,101.659,100.862,0.000354758,0.120483,20.6825,469.547,0.072239,0,0
24,5.75,18.7961,20.1414,164.975,101.643,100.589,0.00034459,0.120952,20.6843,469.688,0.0957144,0,0
30,7.25,18.8328,19.8373,162.832,101.655,100.752,0.000309,0.121261,20.6862,469.858,0.0818736,0,0
36,8.75,18.5311,19.9086,169.674,101.66,100.744,0.000276893,0.121484,20.6874,469.678,0.0829762,0,0
42,10.25,18.761,20.6052,163.928,101.648,100.741,0.000222209,0.121714,20.688,470.288,0.0822574,0,0
48,11.75,18.9047,20.4126,163.868,101.646,100.741,0.000151238,0.121717,20.6883,470.759,0.0819886,0,0
54,13.25,18.9891,20.1683,164.095,101.665,100.687,0.000141706,0.121565,20.6886,469.257,0.0887176,0,0
60,14.75,19.1045,20.1696,168.939,101.655,100.737,0.000228828,0.121498,20.6891,468.967,0.083297,0,0
66,16.25,18.8178,19.8557,168.866,101.657,100.581,0.000368251,0.121484,20.6887,468.927,0.0976368,0,0
72,17.75,18.8606,20.6758,167.205,101.67,100.463,0.000557518,0.121544,20.6871,468.927,0.109612,0,0
78,19.25,19.4544,20.6119,165.107,101.685,100.535,0.000659639,0.12175,20.6856,469.107,0.10434,0,0
84,20.75,19.3746,20.8866,166.872,101.654,100.463,0.000661677,0.122094,20.6834,469.247,0.108162,0,0
90,22.25,19.4737,20.6267,164.144,101.677,100.27,0.000617892,0.122653,20.6809,469.367,0.127907,0,0
96,23.75,19.1684,21.2416,169.106,101.67,100.248,0.000609853,0.123623,20.6776,469.387,0.129234,0,0
102,25.25,19.0438,21.1505,162.114,101.683,100.206,0.000650039,0.124979,20.6724,469.467,0.134194,0,0
108,26.75,19.6197,20.6996,164.254,101.676,100.101,0.000717646,0.126683,20.6684,469.287,0.143225,0,0
114,28.25,19.5823,21.8006,167.545,101.68,99.4859,0.0008382,0.128483,20.6658,469.457,0.200155,0,1
120,29.75,19.8236,21.2925,164.512,101.685,98.3307,0.000969197,0.13063,20.6621,469.427,0.307769,0,1
126,31.25,19.9538,21.8282,165.192,101.69,98.5721,0.001140152,0.133126,20.6575,469.367,0.285755,0,1
132,32.75,18.2532,20.9279,163.084,101.682,97.6705,0.001283232,0.135625,20.6535,469.377,0.369328,0,0
138,34.25,18.9137,20.1477,165.112,101.689,97.7755,0.001330504,0.138345,20.6477,469.397,0.360103,0,0
144,35.75,18.6053,21.0363,165.918,101.688,97.6274,0.001337154,0.141283,20.6427,469.377,0.373898,0,0
150,37.25,18.9493,21.5586,165.881,101.68,97.6376,0.00141741,0.144277,20.638,469.287,0.372239,0,0
156,38.75,19.1367,21.2299,162.254,101.672,97.3648,0.001544884,0.147526,20.6325,469.317,0.397168,0,0
162,40.25,19.7613,21.9838,166.321,101.662,96.989,0.001661052,0.151087,20.6253,469.297,0.431793,0,0
168,41.75,19.383,21.9428,163.193,101.668,96.0844,0.001753667,0.154926,20.6177,469.257,0.518303,0,0
174,43.25,19.8409,22.2634,167.098,101.671,95.8248,0.001866549,0.159347,20.6102,469.257,0.543392,0,0
180,44.75,20.1871,22.7817,160.078,101.657,95.2868,0.002034133,0.163696,20.6043,469.197,0.593828,0,0
186,46.25,20.0312,22.7155,162.454,101.644,95.1037,0.002255309,0.168071,20.5984,469.167,0.61032,0,0
192,47.75,20.0859,22.4215,160.182,101.641,95.2158,0.002443938,0.173285,20.5932,469.127,0.599178,0,0
198,49.25,20.3067,23.1978,167.859,101.618,94.9196,0.002603105,0.177915,20.5892,469.057,0.625678,0,0
204,50.75,20.8795,23.9919,164.49,101.63,94.1844,0.002796252,0.182403,20.5853,469.027,0.698151,0,0
210,52.25,20.6336,23.5104,162.929,101.611,93.3031,0.002985837,0.186869,20.5816,468.997,0.782744,0,0
216,53.75,20.9445,24.1734,161.831,101.622,92.8994,0.003121708,0.191348,20.5784,468.897,0.823457,0,0
222,55.25,21.7184,24.8619,159.844,101.588,91.9228,0.003252598,0.195834,20.5742,468.717,0.917419,0,0
228,56.75,22.0073,25.5719,161.236,101.579,91.4198,0.003438154,0.199927,20.5688,468.797,0.966914,0,0
234,58.25,23.3703,24.9189,161.432,101.579,89.251,0.00373913,0.20464,20.5616,468.717,1.18726,0,0
240,59.75,22.4168,26.054,159.564,101.577,88.8408,0.004023209,0.209261,20.5499,468.627,1.22931,0,0
246,61.25,21.8697,27.3926,159.885,101.562,88.6146,0.004378189,0.215628,20.5329,468.547,1.2514,0,0
252,62.75,23.1472,27.3813,160.251,101.545,88.856,0.004828093,0.223483,20.5122,468.436,1.22487,0,0
258,64.25,23.906,28.3274,157.245,101.546,87.4904,0.005271229,0.232597,20.4977,468.336,1.36706,0,0
264,65.75,24.4228,29.1856,164.529,101.54,85.9235,0.005761858,0.242271,20.4806,468.246,1.53237,0,0
270,67.25,24.8321,29.8579,161.235,101.533,86.5954,0.006017212,0.251939,20.4691,468.106,1.46022,0,0
276,68.75,25.2412,30.5949,159.572,101.529,87.0584,0.006011162,0.2633,20.4643,468.036,1.411,0,0
282,70.25,25.4941,30.9381,157.361,101.514,88.1805,0.005784417,0.272584,20.4683,467.936,1.29214,0,0
288,71.75,25.4968,30.724,163.597,101.524,90.2302,0.005400606,0.279382,20.4755,467.896,1.08211,0,0
294,73.25,25.5381,30.5831,159.285,101.509,92.476,0.004855747,0.282931,20.4886,467.836,0.855171,0,0
300,74.75,25.5122,30.5286,170.336,101.509,96.5134,0.004115848,0.283577,20.5141,467.796,0.463091,0,0
306,76.25,24.8042,29.6359,167.816,101.524,98.7851,0.00344862,0.279501,20.5462,467.786,0.250912,0,0
312,77.75,24.9502,28.9347,164.789,101.499,100.5,0.002896045,0.273112,20.5755,467.776,0.09078,0,0
318,79.25,24.0635,28.0286,166.855,101.496,100.557,0.002425316,0.262551,20.6009,467.776,0.0853358,0,0
324,80.75,23.5351,27.4251,166.754,101.491,100.68,0.002035353,0.251611,20.6238,467.796,0.073576,0,0
330,82.25,23.1303,26.6641,168.778,101.482,100.681,0.001724643,0.239131,20.6411,467.776,0.0727849,0,0
336,83.75,22.5088,26.7486,167.701,101.458,100.681,0.001506349,0.226151,20.6552,467.836,0.070548,0,0
342,85.25,21.3485,24.291,168.503,101.467,100.531,0.001362064,0.213794,20.6643,467.806,0.0850042,0,0
348,86.75,20.9346,23.9901,167.024,101.444,100.619,0.001274605,0.202885,20.6695,467.816,0.0749486,0,0
354,88.25,21.1261,23.7772,166.879,101.464,100.435,0.001140011,0.192454,20.6747,467.826,0.0935037,0,0
360,89.75,20.6362,23.8983,167.061,101.445,100.685,0.000923408,0.184614,20.6787,467.806,0.0690596,0,0
366,91.25,19.9972,23.149,165.938,101.458,100.537,0.000667906,0.175642,20.6817,467.816,0.0836732,0,0
372,92.75,20.0629,22.3196,166.881,101.446,100.568,0.000468551,0.1677441,20.6845,467.806,0.0797701,0,0
378,94.25,20.5142,22.2322,163.945,101.45,100.639,0.000382017,0.161375,20.6861,467.816,0.0736303,0,0
384,95.75,20.0545,21.4548,168.739,101.435,100.637,0.000318961,0.155917,20.6871,467.746,0.0724648,0,0
390,97.25,19.5393,21.5165,171.073,101.447,100.699,0.000265827,0.151275,20.6884,467.756,0.0679153,0,0
396,98.75,20.0139,21.2308,164.764,101.45,100.64,0.000285932,0.147244,20.6893,467.766,0.0735381,0,0
402,100.25,19.4442,20.9969,164.267,101.449,100.667,0.000390509,0.143449,20.6916,467.796,0.071005,0,0
408,101.75,19.2452,21.1593,165.472,101.435,100.52,0.00046112,0.140093,20.693,467.816,0.0831594,0,0
414,103.25,19.4939,20.86,170.369,101.464,100.69,0.00045249,0.137061,20.6938,467.816,0.07022994,0,0
[...]
528,131.75,17.807,19.5517,168.578,101.533,100.68,0.000403852,0.119635,20.6989,467.796,0.0774145,0,0
534,133.25,18.2192,19.3999,165.666,101.55,100.817,0.000417639,0.118949,20.632,467.796,0.0664254,0,0
540,134.75,17.724,19.2912,165.148,101.559,100.728,0.000436924,0.117968,20.4655,467.776,0.0753349,0,0
546,136.25,18.3072,19.2782,170.589,101.556,100.661,0.000426037,0.11645,20.288,467.816,0.0811732,0,0
552,137.75,17.9025,19.7578,171.603,101.579,100.654,0.000398408,0.1151,20.1896,467.816,0.0839897,0,0
556,138.75,18.3045,19.3044,168.04,101.577,100.669,0.000383891,0.114571,20.1508,467.816,0.08241678,0,0
,,,,,,,,,,,,,
,,,,,,,,,,,,,
,,,,,,,,,,,,,
,,,,,,,,,,,,,
,,,,,,,,,,,,,
,,,,,,,,,,,,,
,,,,,,,,,,,,,
,,,,,,,,,,,,,
,,,,,,,,,,,,,
,,,,,,,,,,,,,
,,,,,,,,,,,,,
,,,,,,,,,,,,,
,,,,,,,,,,,,,
,,,,,,,,,,,,,
,,,,,,,,,,,,,
,,,,,,,,,,,,,
,,,,,,,,,,,,,
,,,,,,,,,,,,,
,,,,,,,,,,,,,
,,,,,,,,,,,,,
,,,,,,,,,,,,,
,,,,,,,,,,,,,
,,,,,,,,,,,,,
,,,,,,,,,,,,,
,,,,,,,,,,,,,
,,,,,,,,,,,,,
,,,,,,,,,,,,,
,,,,,,,,,,,,,
,,,,,,,,,,,,,
,,,,,,,,,,,,,
,,,,,,,,,,,,,
,,,,,,,,,,,,,
,,,,,,,,,,,,,
,,,,,,,,,,,,,
,,,,,,,,,,,,,
,,,,,,,,,,,,,
,,,,,,,,,,,,,
,,,,,,,,,,,,,
,,,,,,,,,,,,,
,,,,,,,,,,,,,
,,,,,,,,,,,,,
,,,,,,,,,,,,,
,,,,,,,,,,,,,
,,,,,,,,,,,,,
,,,,,,,,,,,,,
,,,,,,,,,,,,,
,,,,,,,,,,,,,
,,,,,,,,,,,,,
,,,,,,,,,,,,,
,,,,,,,,,,,,,
,,,,,,,,,,,,,
,,,,,,,,,,,,,
,,,,,,,,,,,,,
,,,,,,,,,,,,,
,,,,,,,,,,,,,
,,,,,,,,,,,,,
,,,,,,,,,,,,,
,,,,,,,,,,,,,
,,,,,,,,,,,,,
,,,,,,,,,,,,,
,,,,,,,,,,,,,
,,,,,,,,,,,,,
,,,,,,,,,,,,,
,,,,,,,,,,,,,
,,,,,,,,,,,,,
,,,,,,,,,,,,,
,,,,,,,,,,,,,
,,,,,,,,,,,,,
,,,,,,,,,,,,,
,,,,,,,,,,,,,
,,,,,,,,,,,,,
,,,,,,,,,,,,,
,,,,,,,,,,,,,
,,,,,,,,,,,,,
,,,,,,,,,,,,,
,,,,,,,,,,,,,
,,,,,,,,,,,,,
,,,,,,,,,,,,,
,,,,,,,,,,,,,
,,,,,,,,,,,,,
,,,,,,,,,,,,,
,,,,,,,,,,,,,
,,,,,,,,,,,,,
,,,,,,,,,,,,,
,,,,,,,,,,,,,
,,,,,,,,,,,,,
,,,,,,,,,,,,,
,,,,,,,,,,,,,
,,,,,,,,,,,,,
,,,,,,,,,,,,,
,,,,,,,,,,,,,
,,,,,,,,,,,,,
,,,,,,,,,,,,,
,,,,,,,,,,,,,
,,,,,,,,,,,,,
,,,,,,,,,,,,,
,,,,,,,,,,,,,
,,,,,,,,,,,,,
,,,,,,,,,,,,,
,,,,,,,,,,,,,
,,,,,,,,,,,,,
,,,,,,,,,,,,,
,,,,,,,,,,,,,
,,,,,,,,,,,,,
,,,,,,,,,,,,,
,,,,,,,,,,,,,
,,,,,,,,,,,,,
,,,,,,,,,,,,,
,,,,,,,,,,,,,
,,,,,,,,,,,,,
,,,,,,,,,,,,,
,,,,,,,,,,,,,
,,,,,,,,,,,,,
,,,,,,,,,,,,,
,,,,,,,,,,,,,
,,,,,,,,,,,,,
,,,,,,,,,,,,,
,,,,,,,,,,,,,
,,,,,,,,,,,,,
,,,,,,,,,,,,,
,,,,,,,,,,,,,
,,,,,,,,,,,,,
,,,,,,,,,,,,,
,,,,,,,,,,,,,
,,,,,,,,,,,,,
,,,,,,,,,,,,,
,,,,,,,,,,,,,
,,,,,,,,,,,,,
,,,,,,,,,,,,,
,,,,,,,,,,,,,
,,,,,,,,,,,,,
,,,,,,,,,,,,,
,,,,,,,,,,,,,
,,,,,,,,,,,,,
,,,,,,,,,,,,,
,,,,,,,,,,,,,
,,,,,,,,,,,,,
,,,,,,,,,,,,,
,,,,,,,,,,,,,
,,,,,,,,,,,,,
,,,,,,,,,,,,,
,,,,,,,,,,,,,
,,,,,,,,,,,,,
,,,,,,,,,,,,,
,,,,,,,,,,,,,
,,,,,,,,,,,,,
,,,,,,,,,,,,,
,,,,,,,,,,,,,
,,,,,,,,,,,,,
,,,,,,,,,,,,,
,,,,,,,,,,,,,
,,,,,,,,,,,,,
,,,,,,,,,,,,,
,,,,,,,,,,,,,
,,,,,,,,,,,,,
,,,,,,,,,,,,,
,,,,,,,,,,,,,
,,,,,,,,,,,,,
,,,,,,,,,,,,,
,,,,,,,,,,,,,
,,,,,,,,,,,,,
,,,,,,,,,,,,,
,,,,,,,,,,,,,
,,,,,,,,,,,,,
,,,,,,,,,,,,,
,,,,,,,,,,,,,
,,,,,,,,,,,,,
,,,,,,,,,,,,,
,,,,,,,,,,,,,
,,,,,,,,,,,,,
,,,,,,,,,,,,,
,,,,,,,,,,,,,
,,,,,,,,,,,,,
,,,,,,,,,,,,,
,,,,,,,,,,,,,
,,,,,,,,,,,,,
,,,,,,,,,,,,,
,,,,,,,,,,,,,
,,,,,,,,,,,,,
,,,,,,,,,,,,,
,,,,,,,,,,,,,
,,,,,,,,,,,,,
,,,,,,,,,,,,,
,,,,,,,,,,,,,
,,,,,,,,,,,,,
,,,,,,,,,,,,,
,,,,,,,,,,,,,
,,,,,,,,,,,,,
,,,,,,,,,,,,,
,,,,,,,,,,,,,
,,,,,,,,,,,,,
,,,,,,,,,,,,,
,,,,,,,,,,,,,
,,,,,,,,,,,,,
,,,,,,,,,,,,,
,,,,,,,,,,,,,
,,,,,,,,,,,,,
,,,,,,,,,,,,,
,,,,,,,,,,,,,
,,,,,,,,,,,,,
,,,,,,,,,,,,,
,,,,,,,,,,,,,
,,,,,,,,,,,,,
,,,,,,,,,,,,,
,,,,,,,,,,,,,
,,,,,,,,,,,,,
,,,,,,,,,,,,,
,,,,,,,,,,,,,
,,,,,,,,,,,,,
,,,,,,,,,,,,,
,,,,,,,,,,,,,
,,,,,,,,,,,,,

File: Polyester_Fabric_Cone_HF25Scan_210325_R3.csv
Names,Time,Stack TC,Smoke TC,Exh Press,Smoke Comp,Smoke Meas,CO Meter,CO2 Meter,O2 Meter,Sample Mass,Ext Coeff,Start Test,Flame Verif
Chan Gain,,500,500,1,1,1,1,1,1,1,1,1.0,1.0
Offset,,0,0,0.138348,0,0,0,0,0,0,0,0.0,0.0
Gain,,1,1,25.011,13.5067,16.616,1,1,1,1.00091,1.04608,1.0,1.0
Units,sec,C,C,Pa,%,%,%,%,%,g,/m,,
Baseline,,15.9649,17.323,170.393,100.216,99.4575,-0.000107439,0.0848709,20.8282,0.001835,0.0696938,,
33,8,15.4818,16.5111,169.611,100.436,99.5974,-0.000325072,0.0933677,20.8144,483.77,0.0769524,0.0,0.0
66,16.25,15.1053,16.4988,173.005,100.649,99.9422,-0.000281469,0.0969184,20.8119,481.498,0.0646888,0.0,0.0
99,24.5,16.2011,16.8845,171.302,100.793,99.9204,-0.00030821,0.100141,20.806,481.448,0.0797582,0.0,0.0
132,32.75,15.8591,17.3447,173.684,100.827,100.084,-0.000136949,0.101569,20.8088,481.478,0.0678892,0.0,0.0
165,41,15.8225,17.051,172.271,100.754,100.045,-5.73047e-05,0.100543,20.8153,481.438,0.0648658,0.0,0.0
198,49.25,15.6362,17.4127,167.069,100.576,99.8074,-0.00025769,0.095586,20.8224,481.458,0.0703884,0.0,0.0
231,57.5,16.0919,17.5195,166.735,100.312,99.4879,-0.000242221,0.091193,20.8246,481.448,0.075669,0.0,0.0
264,65.75,16.1444,18.0722,172.104,100.001,99.0863,-0.000443269,0.0891911,20.825,481.448,0.0843116,0.0,0.0
297,74,15.9706,17.2811,170.723,99.674,98.8307,-5.23575e-05,0.0876269,20.8267,481.428,0.0779666,0.0,0.0
330,82.25,15.6395,17.5147,172.6,99.3571,98.5838,-0.000240951,0.0893658,20.8168,481.418,0.0716964,0.0,0.0
363,90.5,16.1221,17.5634,174.35,99.0809,98.2268,-0.000377239,0.0923826,20.8168,481.448,0.0794437,0.0,0.0
396,98.75,15.7113,17.5896,168.594,98.8814,98.0529,-0.000381973,0.0967007,20.8083,481.428,0.0772106,0.0,0.0
429,107,16.4635,17.9135,174.162,98.7788,98.0422,-0.000353628,0.1013,20.8035,481.408,0.0686775,0.0,0.0
462,115.25,17.1208,18.2037,166.323,98.8064,97.9758,-5.25071e-05,0.10461,20.7998,481.428,0.0774622,0.0,0.0
495,123.5,16.6169,17.7778,167.34,98.8818,98.0838,-0.000238403,0.104573,20.8009,481.398,0.0743551,0.0,0.0
528,131.75,15.9716,17.9894,170.467,99.0677,98.2025,-0.000421155,0.10259,20.8072,481.378,0.0804956,0.0,0.0
561,140,16.5857,17.4957,170.054,99.2849,98.5163,-0.000192671,0.0986465,20.8166,481.408,0.0713111,0.0,0.0
594,148.25,16.5825,17.8453,169.57,99.5174,98.6167,-0.000190514,0.0942875,20.82,481.398,0.0834249,0.0,0.0
627,156.5,16.3484,18.1103,170.694,99.7606,98.9002,-0.000253762,0.0909131,20.8253,481.378,0.0794849,0.0,0.0
660,164.75,16.9705,18.1037,171.915,99.9745,99.1071,-0.000100155,0.0885208,20.8278,481.368,0.0799653,0.0,0.0
693,173,16.241,17.8495,167.579,100.127,99.2582,-0.000318477,0.0870555,20.8297,481.378,0.0799729,0.0,0.0
726,181.25,16.1005,18.0695,173.116,100.22,99.3566,-0.000330373,0.0858154,20.8318,481.348,0.0794155,0.0,0.0
759,189.5,16.7641,18.3415,165.708,100.243,99.3484,-0.000129907,0.0846692,20.8325,481.358,0.082278,0.0,0.0
792,197.75,16.5925,17.904,170.315,100.22,99.3261,-0.000572409,0.0842523,20.8314,481.318,0.082226,0.0,0.0
825,206,16.7832,17.6717,167.94,100.155,99.3439,-0.000358552,0.084719,20.8311,481.368,0.0746221,0.0,0.0
858,214.25,16.9594,18.6703,170.221,100.084,99.2197,-0.000609041,0.0850601,20.829,481.338,0.0795684,0.0,0.0
891,222.5,16.1043,17.6902,166.83,100.018,99.1532,-0.000404207,0.0866991,20.825,481.358,0.0797029,0.0,0.0
924,230.75,17.2006,18.247,168.276,99.9547,99.0102,-0.000311883,0.0892711,20.8216,481.338,0.0871206,0.0,0.0
957,239,16.6127,18.2298,174.082,99.8876,98.9965,-0.000386761,0.0891054,20.8231,481.348,0.0822195,0.0,0.0
990,247.25,15.9804,18.6186,172.496,100.316,99.4717,-0.000381432,0.0884475,20.826,481.268,0.0775804,0.0,0.0
1023,255.5,16.5618,18.2048,167.884,100.589,99.8464,-0.000377959,0.087684,20.8268,481.328,0.0680032,0.0,0.0
1056,263.75,16.5221,18.2488,171.082,100.746,99.8231,1.97183e-05,0.0883519,20.8255,481.318,0.0844254,0.0,0.0
1089,272,16.7833,18.6389,163.855,100.801,99.89,-0.000462837,0.0881324,20.8293,481.298,0.0833035,0.0,0.0
1122,280.25,17.1014,18.3729,166.47,100.79,99.8844,-0.000332295,0.0887675,20.8278,481.298,0.0828027,0.0,0.0
1155,288.5,16.6042,18.1758,167.514,100.656,99.8621,-0.000513821,0.0879038,20.8313,481.308,0.0726862,0.0,0.0
1188,296.75,16.9871,17.7615,167.546,100.497,99.6476,-0.00052888,0.0866043,20.8307,481.308,0.0778624,0.0,0.0
1221,305,17.3325,18.4442,170.289,100.252,99.3307,-0.000499328,0.0864423,20.8301,481.288,0.0847484,0.0,0.0
1254,313.25,17.2409,18.3511,166.666,100.234,99.1902,-0.000670162,0.0867487,20.8282,481.288,0.0960349,0.0,0.0
1287,321.5,17.041,18.2259,168.643,100.327,99.3408,-0.000653561,0.086823,20.8281,481.268,0.090675,0.0,0.0
1320,329.75,16.8726,18.4484,172.137,100.442,99.6263,-0.000655896,0.0866125,20.8299,481.268,0.0748553,0.0,0.0
1353,338,17.0696,18.291,169.462,100.559,99.7272,-0.000618548,0.0875484,20.8287,481.268,0.0762158,0.0,0.0
1386,346.25,17.0905,18.9912,169.642,100.679,99.7637,-0.000196639,0.0890585,20.8266,481.248,0.0837967,0.0,0.0
1419,354.5,17.0239,18.3198,166.705,100.759,99.9072,-0.000565692,0.0901604,20.8241,481.298,0.0778917,0.0,0.0
1452,362.75,16.875,18.3459,168.81,100.853,100.001,-0.000139573,0.0957664,20.8131,481.228,0.0778809,0.0,0.0
1485,371,16.8769,18.6868,168.877,100.937,99.9286,-0.000271429,0.0976494,20.8168,481.258,0.092175,0.0,0.0
1518,379.25,17.4066,18.3921,171.842,100.967,100.095,-0.000254351,0.0954039,20.825,481.248,0.0795283,0.0,0.0
1551,387.5,17.2908,18.7841,174.923,100.988,100.003,-0.00029431,0.0910425,20.829,481.228,0.0899872,0.0,0.0
1584,395.75,16.8664,18.6763,164.818,100.952,100.055,-6.76294e-05,0.0882273,20.8337,481.228,0.0818997,0.0,0.0
1617,404,17.1104,18.8652,170.254,100.875,100.135,-0.000794534,0.0861977,20.8333,481.228,0.067583,0.0,0.0
1650,412.25,17.7989,18.7005,169.274,100.754,99.886,-0.000519807,0.0881959,20.826,481.218,0.079435,0.0,0.0
1683,420.5,17.3604,19.1695,166.913,100.61,99.7065,-0.000348054,0.089746,20.8286,481.228,0.0827539,0.0,0.0
1716,428.75,17.1813,18.7765,168.531,100.436,99.6162,-0.000121583,0.0892621,20.8295,481.218,0.0751863,0.0,0.0
1749,437,17.2906,18.6091,172.917,100.24,99.3434,-0.000268681,0.0878804,20.8283,481.228,0.082445,0.0,0.0
1782,445.25,17.1099,18.9636,167.389,100.026,99.0903,-0.000255032,0.0878928,20.8295,481.188,0.0862428,0.0,0.0
1815,453.5,17.1423,18.7467,168.586,99.8472,98.9687,-0.000592676,0.0875962,20.8316,481.198,0.0810941,0.0,0.0
1848,461.75,16.9402,18.9445,164.38,99.651,98.9479,-0.000827189,0.0871267,20.8323,481.198,0.0649723,0.0,0.0
1881,470,17.6399,19.3287,171.017,99.4502,98.5873,-0.000548722,0.0857347,20.8336,481.218,0.0799653,0.0,0.0
1914,478.25,17.1889,19.009,168.854,99.2866,98.4124,-0.000450387,0.0861855,20.8318,481.228,0.0811505,0.0,0.0
1947,486.5,17.2005,19.0616,170.575,99.1637,98.2902,-8.86445e-05,0.0870442,20.8276,481.198,0.0811938,0.0,0.0
1980,494.75,16.6833,18.2579,173.31,99.0323,98.2121,-9.90956e-05,0.0941403,20.8145,481.188,0.0763113,0.0,0.0
2013,503,17.8519,18.5011,170.341,98.9865,98.0944,6.31831e-05,0.101368,20.8096,481.198,0.0830694,0.0,0.0
2046,511.25,17.699,18.7162,166.643,98.9688,98.1883,-0.000438507,0.100792,20.8206,481.228,0.0726547,0.0,0.0
2079,519.5,17.2532,19.1066,169.157,98.9787,98.0625,-0.000264405,0.0988816,20.8189,481.198,0.0853315,0.0,0.0
2112,527.75,17.7007,19.1509,168.873,99.0623,98.1806,-0.000562216,0.095305,20.8243,481.178,0.0820373,0.0,0.0
2145,536,17.4667,18.8974,170.35,99.1662,98.2405,-2.72448e-05,0.094338,20.8185,481.188,0.086063,0.0,0.0
2178,544.25,17.9788,19.0322,168.156,99.3002,98.5092,-0.000428217,0.0949285,20.8183,481.188,0.0733818,0.0,0.0
2211,552.5,17.3944,18.9498,170.979,99.4519,98.7471,0.000237343,0.0977738,20.8175,481.178,0.0652623,0.0,0.0
2244,560.75,17.1475,19.0665,168.472,99.5883,98.7415,-0.000125895,0.0991598,20.8223,481.168,0.0783603,0.0,0.0
2277,569,17.7972,19.2504,169.933,99.773,98.8693,-0.000391052,0.094935,20.8284,481.168,0.0834921,0.0,0.0
2310,577.25,17.2629,19.2288,166.772,99.9354,99.0559,-0.000179559,0.0898031,20.8316,481.178,0.0811125,0.0,0.0
2343,585.5,17.3495,19.0448,168.561,100.084,99.2379,-0.000149546,0.0869212,20.8311,481.168,0.0779188,0.0,0.0
2376,593.75,17.395,18.8299,163.325,100.199,97.2613,0.000126092,0.0928838,20.8136,481.108,0.27303,0.0,0.0
2409,602,18.3053,20.498,164.881,100.289,94.23,0.000614775,0.11473,20.7724,480.968,0.571797,0.0,0.0
2442,610.25,19.7246,22.8142,159.352,100.359,91.2463,0.0021202,0.147605,20.7305,480.728,0.873454,0.0,0.0
2475,618.5,21.5701,25.2273,166.127,100.411,88.895,0.00331179,0.185204,20.6821,480.367,1.11784,0.0,0.0
2508,626.75,23.7547,27.2417,165.355,100.376,86.5112,0.00393762,0.225224,20.6372,479.957,1.36406,0.0,0.0
2541,635,24.8757,28.4495,164.307,100.333,94.9237,0.00273826,0.251179,20.6571,479.567,0.508528,0.0,0.0
2574,643.25,21.9222,24.352,162.19,100.241,99.5097,0.00131999,0.193651,20.7722,479.687,0.0672084,0.0,0.0
2607,651.5,20.3806,22.5762,168.048,100.172,99.39,0.000443063,0.137474,20.8116,479.557,0.0719471,0.0,0.0
2640,659.75,19.171,20.1984,169.435,100.142,99.3231,0.000220304,0.110572,20.8219,479.557,0.0753718,0.0,0.0
2673,668,18.3434,20.3183,167.351,100.096,99.4352,-0.000549376,0.0969784,20.8275,479.557,0.0607548,0.0,0.0
2706,676.25,18.2899,19.101,172.328,100.052,99.1477,-0.000391674,0.0909478,20.8279,479.557,0.0833577,0.0,0.0
2739,684.5,17.1836,19.1514,166.52,100.029,99.2557,-3.71853e-05,0.087783,20.8301,479.567,0.0712123,0.0,0.0
2772,692.75,17.9005,19.0216,168.918,100.016,99.349,-0.000509119,0.0861381,20.8316,479.567,0.0614176,0.0,0.0
2805,701,17.5133,18.3202,175.467,100.257,99.4433,-0.000441298,0.0848843,20.8299,479.567,0.0748065,0.0,0.0
2838,709.25,17.3971,18.3012,169.464,100.479,99.8728,-0.000260424,0.0844486,20.8297,479.577,0.0555732,0.0,0.0
2871,717.5,17.685,18.384,170.944,100.677,99.8733,-0.000400971,0.084255,20.8323,479.547,0.0735402,0.0,0.0
2904,725.75,16.7747,18.9421,170.511,100.817,100.018,6.62758e-05,0.0839996,20.8325,479.547,0.0729976,0.0,0.0
2937,734,17.4782,18.7987,171.219,100.89,100.172,-0.000272417,0.0838103,20.8336,479.557,0.0655327,0.0,0.0
2970,742.25,17.321,18.5688,171.769,100.918,100.156,-0.000541063,0.0837658,20.833,479.547,0.0694928,0.0,0.0
3003,750.5,17.0962,19.0338,170.115,100.913,100.112,-0.000509171,0.0835483,20.8329,479.547,0.0732082,0.0,0.0
3036,758.75,17.2128,18.2616,163.85,100.844,100.108,,,,479.547,0.0672801,0.0,0.0
3047,761.5,17.0064,18.7573,167.239,100.806,100.106,,,,479.547,0.0639686,0.0,0.0