Folder: fsri_materials_database/01_Data/Polyester_Fabric/Cone (part 2)

File: Polyester_Fabric_Cone_HF75Scan_210325_R2.csv
Names,Time,Stack TC,Smoke TC,Exh Press,Smoke Comp,Smoke Meas,CO Meter,CO2 Meter,O2 Meter,Sample Mass,Ext Coeff,Start Test,Flame Verif
Chan Gain,,500,500,1,1,1,1,1,1,1,1,1.0,1.0
Offset,,0,0,0.138348,0,0,0,0,0,0,0,0.0,0.0
Gain,,1,1,25.011,13.5067,16.616,1,1,1,1.00091,1.04608,1.0,1.0
Units,sec,C,C,Pa,%,%,%,%,%,g,/m,,
Baseline,,40.4649,44.1137,157.201,101.864,99.099,-0.000875251,0.0810329,20.875,-0.186295,0.252558,,
7,1.5,36.9599,39.3661,151.35,101.999,99.14,-0.00103377,0.092237,20.8582,470.799,0.260854,0.0,0.0
14,3.25,36.5695,38.7793,158.074,102.01,98.8312,-0.000963547,0.093188,20.8582,470.538,0.290484,0.0,0.0
21,5,36.9701,38.7767,155.816,102.01,99.1847,-0.000915169,0.0932959,20.8599,470.558,0.25769,0.0,0.0
28,6.75,37.1104,39.479,153.451,102.006,99.0493,-0.000849834,0.0929223,20.861,470.568,0.269927,0.0,0.0
35,8.5,37.0619,39.9267,161.556,102.019,98.746,-0.000604608,0.0932042,20.8565,470.558,0.299212,0.0,1.0
42,10.25,37.5413,40.5737,154.535,102.018,92.8416,-6.95148e-05,0.100462,20.8363,470.668,0.864867,0.0,1.0
49,12,38.01,42.0481,152.474,102.011,84.7953,0.00114524,0.121301,20.7986,470.478,1.69614,0.0,1.0
56,13.75,37.5624,41.9107,153.108,102.016,81.3522,0.00274141,0.151606,20.7337,470.288,2.07695,0.0,0.0
63,15.5,39.4569,44.4179,150.903,102.019,78.654,0.00448636,0.200205,20.6582,470.088,2.38667,0.0,0.0
70,17.25,39.8358,45.8585,152.107,102.012,76.8818,0.00624519,0.250303,20.5898,469.918,2.59524,0.0,0.0
77,19,41.2529,47.847,141.808,102.028,74.4874,0.0079924,0.298728,20.5319,469.758,2.88694,0.0,0.0
84,20.75,43.5453,49.9598,145.056,102.026,77.1663,0.00940634,0.346073,20.4908,469.567,2.56253,0.0,0.0
91,22.5,44.6677,51.8844,140.102,102.005,72.0083,0.0102111,0.381762,20.4691,469.357,3.19546,0.0,0.0
98,24.25,45.7156,53.2576,144.454,102.015,74.5097,0.0105614,0.405164,20.4606,469.137,2.88308,0.0,0.0
105,26,46.1824,54.4793,147.469,102.023,76.2155,0.00987039,0.415022,20.4646,469.027,2.67604,0.0,0.0
112,27.75,46.5045,55.0341,149.937,102.017,81.8563,0.00844516,0.41145,20.501,468.817,2.02031,0.0,0.0
119,29.5,46.8002,55.2723,150.34,102,89.8453,0.00670608,0.379702,20.5811,468.717,1.16427,0.0,0.0
126,31.25,45.954,54.5901,155.773,102.01,98.0143,0.00488171,0.333517,20.6517,468.747,0.366645,0.0,0.0
133,33,45.4265,53.8195,156.505,102.014,99.3246,0.00335405,0.286196,20.7063,468.717,0.245197,0.0,0.0
140,34.75,44.9108,52.8415,157.678,102.02,99.0381,0.00228182,0.243834,20.7533,468.757,0.272185,0.0,0.0
147,36.5,43.2871,50.2531,152.193,102.019,99.4255,0.0015918,0.20581,20.7872,468.717,0.236249,0.0,0.0
154,38.25,42.9484,50.0108,156.202,102.005,99.3251,0.00124429,0.17734,20.8078,468.737,0.244259,0.0,0.0
161,40,42.54,48.9769,155.953,102.009,99.2029,0.00111595,0.157166,20.8213,468.777,0.255964,0.0,0.0
168,41.75,42.0664,48.429,158.874,102.015,99.4625,0.00110452,0.142168,20.8296,468.717,0.232499,0.0,0.0
175,43.5,41.8844,47.8687,154.897,102.007,99.6233,0.00108625,0.13103,20.8345,468.757,0.217014,0.0,0.0
182,45.25,41.3488,47.337,153.059,102,99.3464,0.00104219,0.123089,20.838,468.747,0.241847,0.0,0.0
189,47,41.6851,47.3711,157.25,101.993,99.498,0.000985666,0.117246,20.841,468.697,0.227297,0.0,0.0
196,48.75,41.2383,46.8016,154.471,102.005,99.3343,0.000923024,0.112886,20.8444,468.707,0.243454,0.0,0.0
203,50.5,41.0078,45.6082,154.25,102.008,99.497,0.000870187,0.109447,20.8466,468.707,0.228726,0.0,0.0
210,52.25,40.508,46.0419,152.856,102,99.3753,0.000838654,0.106405,20.8493,468.667,0.239214,0.0,0.0
217,54,40.518,45.6723,157.856,101.982,99.4362,0.000808391,0.103979,20.8513,468.697,0.232003,0.0,0.0
224,55.75,40.087,45.4673,158.706,101.995,99.5092,0.000804983,0.101824,20.8534,468.687,0.22638,0.0,0.0
231,57.5,40.4496,45.1977,156.811,102.005,99.4514,0.000803849,0.100085,20.8547,468.697,0.232677,0.0,0.0
238,59.25,40.2161,44.3429,156.729,101.993,99.241,0.000822548,0.0984728,20.8563,468.657,0.250964,0.0,0.0
245,61,39.3208,44.5041,149.882,101.973,99.5036,0.000858396,0.097242,20.858,468.667,0.224929,0.0,0.0
252,62.75,39.9626,44.5715,159.817,101.981,99.3936,0.000811652,0.0962364,20.8591,468.647,0.235823,0.0,0.0
259,64.5,39.5511,44.5433,156.557,101.985,99.386,0.00068698,0.0954626,20.8596,468.627,0.236859,0.0,0.0
266,66.25,39.3272,43.7796,159.946,101.989,99.5036,0.000631434,0.0947947,20.8599,468.637,0.226375,0.0,0.0
273,68,39.4067,43.9613,157.935,101.963,99.387,0.000642691,0.0941709,20.86,468.647,0.2348,0.0,0.0
280,69.75,39.8972,43.8469,156.683,101.96,99.2876,0.000656078,0.0936268,20.8605,468.667,0.243684,0.0,0.0
287,71.5,39.3651,43.7875,150.793,101.968,99.3185,0.000632485,0.0930727,20.8612,468.687,0.241567,0.0,0.0
294,73.25,39.1254,43.6454,154.264,101.967,99.5356,0.0005987,0.0926915,20.8615,468.707,0.221501,0.0,0.0
301,75,39.2389,43.8031,155.335,101.952,99.4641,0.000596331,0.092302,20.8616,468.677,0.226685,0.0,0.0
308,76.75,38.5133,43.2363,154.615,101.951,99.2531,0.000637483,0.0916145,20.8623,468.647,0.246055,0.0,0.0
315,78.5,39.1037,43.2613,155.19,101.945,98.9367,0.000600311,0.0910208,20.8632,468.647,0.274835,0.0,0.0
322,80.25,38.6252,43.2586,152.032,101.947,99.6791,0.000541273,0.0905918,20.8637,468.627,0.206463,0.0,0.0
329,82,39.1487,43.4979,156.191,101.925,99.3398,0.000562827,0.0903415,20.8639,468.597,0.235779,0.0,0.0
336,83.75,38.4635,43.4854,157.18,101.918,99.0782,0.000558251,0.0900265,20.864,468.587,0.259275,0.0,0.0
343,85.5,39.0129,42.9761,153.033,101.918,99.7754,0.000390862,0.0896093,20.864,468.617,0.194927,0.0,0.0
350,87.25,39.4716,42.7982,157.322,101.923,99.4899,0.000242498,0.0892648,20.8647,468.577,0.221664,0.0,0.0
357,89,38.6145,42.7009,154.909,101.92,98.9043,0.000223264,0.0890346,20.8655,468.577,0.275657,0.0,0.0
364,90.75,38.894,42.7683,154.667,101.926,99.3779,0.000323943,0.0888278,20.8659,468.587,0.232304,0.0,0.0
371,92.5,38.5265,42.225,153.816,101.917,99.5797,0.000482124,0.0885612,20.8662,468.617,0.212908,0.0,0.0
378,94.25,38.5905,42.9626,159.004,101.911,98.8515,0.00060508,0.0883147,20.8664,468.587,0.279734,0.0,0.0
385,96,38.6748,42.932,157.937,101.942,99.2262,0.000659404,0.0881682,20.867,468.617,0.247762,0.0,0.0
392,97.75,38.5862,42.591,157.111,101.932,99.5351,0.000615413,0.0879569,20.8675,468.647,0.21832,0.0,0.0
399,99.5,39.086,42.744,157.763,101.947,99.784,0.000548287,0.0876644,20.8677,468.627,0.196805,0.0,0.0
406,101.25,38.6182,42.3342,158.601,101.932,99.2161,0.000470112,0.0874893,20.8678,468.647,0.247771,0.0,0.0
413,103,38.94,42.7176,157.782,101.941,99.1329,0.000446444,0.0872749,20.8678,468.577,0.256319,0.0,0.0
420,104.75,38.9733,42.1735,153.599,101.951,99.173,0.000465762,0.08703,20.8679,468.557,0.253465,0.0,0.0
427,106.5,38.8136,42.0813,150.837,101.961,99.6689,0.000423922,0.0868562,20.8676,468.536,0.208622,0.0,0.0
434,108.25,38.4804,42.1076,152.693,101.945,99.3079,0.000279385,0.0867685,20.8673,468.557,0.240474,0.0,0.0
441,110,38.3776,41.9263,155.638,101.949,99.1801,0.000132163,0.0866195,20.8672,468.567,0.25266,0.0,0.0
448,111.75,37.5857,42.1461,155.774,101.963,99.5275,3.79282e-05,0.0863871,20.8671,468.536,0.221804,0.0,0.0
455,113.5,38.5538,42.4069,158.903,101.96,99.2557,-3.98206e-05,0.0862841,20.8678,468.526,0.246637,0.0,0.0
462,115.25,38.5853,42.1318,151.172,101.95,99.5285,-0.000109444,0.0860535,20.8686,468.577,0.220597,0.0,0.0
469,117,37.974,41.8187,158.938,101.952,99.2004,-0.000136018,0.0858353,20.869,468.547,0.251043,0.0,0.0
476,118.75,37.951,42.0576,158.224,101.965,99.459,-9.15216e-05,0.0855046,20.8693,468.557,0.22834,0.0,0.0
483,120.5,38.6207,41.8368,157.642,101.977,99.4879,3.78114e-05,0.0852986,20.8695,468.577,0.226786,0.0,0.0
490,122.25,38.4079,42.6364,162.419,101.957,99.2734,0.000156716,0.0850642,20.8704,468.557,0.244774,0.0,0.0
497,124,37.9355,42.7429,154.162,101.956,99.4215,0.000162243,0.0847234,20.8712,468.547,0.231024,0.0,0.0
504,125.75,38.437,42.4303,154.258,101.986,99.5447,5.47255e-05,0.0842938,20.8716,468.587,0.222365,0.0,0.0
511,127.5,38.3497,42.3002,154.715,101.994,99.3064,-6.3225e-05,0.0840202,20.8718,468.547,0.245065,0.0,0.0
518,129.25,37.9261,42.3334,156.213,101.955,99.2384,-0.000132177,0.0838775,20.8719,468.536,0.247785,0.0,0.0
525,131,38.043,42.0035,157.254,101.964,99.2866,-0.000169565,0.0836663,20.8726,468.567,0.244186,0.0,0.0
532,132.75,38.6683,42.2325,160.712,101.972,99.3484,-0.000196769,0.083498,20.8731,468.587,0.239212,0.0,0.0
539,134.5,38.3336,42.2723,158.624,101.982,99.4864,-0.000253116,0.0833567,20.8725,468.587,0.227334,0.0,0.0
546,136.25,38.069,42.336,156.19,101.974,99.6431,-0.000309022,0.0831918,20.8733,468.547,0.212227,0.0,0.0
553,138,38.2212,42.7553,160.737,101.97,99.1299,-0.000287977,0.0830627,20.8734,468.567,0.259235,0.0,0.0
560,139.75,38.1575,42.6384,155.474,101.972,99.1527,-0.000276471,0.0829144,20.8731,468.587,0.257271,0.0,0.0
567,141.5,38.5742,42.3574,156.618,101.98,99.4118,-0.000398808,0.0827088,20.8748,468.577,0.234064,0.0,0.0
574,143.25,38.1223,42.2016,154.827,101.987,99.0706,-0.000475353,0.0824632,20.8755,468.577,0.266249,0.0,0.0
581,145,38.3143,42.1772,159.014,101.973,99.3916,,0.0822967,,468.577,0.235269,0.0,0.0
588,146.75,38.1702,41.8892,157.947,101.976,99.2714,,0.0821941,,468.577,0.246667,0.0,0.0
595,148.5,38.0281,42.1584,159.322,101.986,99.1831,,,,468.577,0.25568,0.0,0.0
602,150.25,38.1837,41.7286,155.135,101.99,99.569,,,,468.577,0.220419,0.0,0.0
609,152,37.9162,41.5438,156.777,102.003,99.1705,,,,468.557,0.25841,0.0,0.0
616,153.75,38.4245,42.7124,159.538,101.981,99.1157,,,,468.536,0.261476,0.0,0.0
621,155,38.1505,42.3369,152.994,101.995,99.2491,,,,468.516,0.250399,0.0,0.0