Folder: fsri_materials_database/01_Data/Polyester_Fabric/MCC

Note: 01_Data/README.md
# Materials and Products Database
## 01_Data

Raw data generated from each apparatus are included here in plain-text format. The data is organized first by material, next by the short name of test apparatus used, and where applicable additional filtering by test settings.

### material.json

Each material directory contains a json file of the same name as the material. This file links the data stored in the repository as well as data and graphs produced by the accompanying scripts (__02_Scripts__) to the respective landing page for the material on the front-end website.

File: Polyester_Fabric_MCC_30K_min_210308_R2.txt
Sample ID:	C:\MCC\MCC Cal\Test\Polyester_Fabric_30_2.txt
Sample Weight (mg):	3.46
Heating Rate (C/s):	0.5
Combustor Temp (C):	900
N2 Flow Rate (cc/min):	80
O2 Flow Rate (cc/min):	20
Calibration File:	C:\MCC\MCC Cal\Coeff1 JN10440_30_210304.txt.txt
T Correction Coefficients:	0	1.024463	0
Time Shift (s):	14
*
Time (s)	Temperature (C)	N2 flow rate (cc/min)	O2 flow rate (cc/min)	Flow Rate (cc/min)	Oxygen (%)	HRR (W/g)	Heating rate (C/s)
0.000	112.075	79.993	19.989	99.594	20.311	0.413	0.002
5.999	111.984	79.994	19.990	99.613	20.315	0.128	0.000
11.999	111.992	79.996	19.991	99.692	20.304	1.099	0.014
18.000	112.135	79.995	19.991	99.763	20.290	2.343	0.028
24.000	112.540	79.995	19.991	99.782	20.278	3.384	0.064
29.999	113.137	79.996	19.991	99.813	20.282	3.101	0.114
36.000	114.095	79.996	19.990	99.815	20.274	3.806	0.167
41.999	115.237	79.994	19.991	99.838	20.273	3.879	0.214
48.000	116.597	79.992	19.991	99.837	20.268	4.294	0.215
54.000	118.152	79.994	19.991	99.869	20.270	4.130	0.285
59.999	119.933	79.995	19.991	99.886	20.269	4.273	0.309
66.000	121.863	79.993	19.991	99.843	20.263	4.796	0.352
72.000	123.910	79.992	19.991	99.882	20.261	4.990	0.365
78.000	126.132	79.992	19.990	99.879	20.261	4.956	0.363
84.000	128.434	79.994	19.990	99.954	20.261	4.936	0.390
89.999	130.897	79.995	19.990	99.911	20.256	5.402	0.426
95.999	133.473	79.995	19.991	99.910	20.253	5.722	0.476
101.999	136.137	79.996	19.992	99.908	20.253	5.675	0.440
107.999	138.865	79.993	19.991	99.947	20.256	5.425	0.438
113.999	141.732	79.996	19.990	99.917	20.254	5.600	0.490
119.999	144.650	79.994	19.992	99.915	20.253	5.678	0.498
125.999	147.668	79.993	19.992	99.911	20.252	5.792	0.493
132.000	150.694	79.993	19.992	99.949	20.253	5.685	0.500
138.000	153.723	79.993	19.990	99.909	20.249	6.054	0.496
144.000	156.792	79.994	19.991	99.958	20.256	5.412	0.515
150.000	159.821	79.994	19.990	99.910	20.253	5.656	0.522
156.000	162.936	79.995	19.991	99.909	20.254	5.603	0.550
162.000	166.008	79.993	19.990	99.909	20.255	5.507	0.495
168.000	169.093	79.994	19.991	99.891	20.257	5.301	0.509
174.000	172.122	79.997	19.991	99.873	20.253	5.679	0.519
180.000	175.182	79.996	19.991	99.908	20.253	5.706	0.530
186.000	178.192	79.995	19.991	99.913	20.253	5.643	0.478
192.000	181.166	79.995	19.992	99.913	20.255	5.511	0.471
198.000	184.193	79.995	19.991	99.895	20.255	5.529	0.508
204.000	187.176	79.995	19.991	99.876	20.255	5.517	0.459
210.000	190.190	79.995	19.991	99.872	20.250	5.938	0.477
216.000	193.152	79.993	19.991	99.889	20.253	5.677	0.490
222.000	196.109	79.993	19.992	99.910	20.254	5.587	0.483
228.000	199.072	79.994	19.991	99.890	20.251	5.833	0.514
234.000	202.025	79.994	19.990	99.899	20.250	5.910	0.497
240.000	204.954	79.993	19.992	99.904	20.249	6.006	0.498
246.000	207.986	79.994	19.990	99.904	20.245	6.361	0.492
252.000	210.992	79.995	19.991	99.899	20.246	6.304	0.468
258.000	213.942	79.995	19.990	99.902	20.240	6.823	0.457
264.000	216.945	79.994	19.992	99.969	20.245	6.379	0.515
270.000	219.918	79.995	19.990	99.911	20.244	6.525	0.509
276.000	222.903	79.995	19.991	99.901	20.241	6.785	0.490
282.000	225.907	79.997	19.992	99.908	20.238	7.019	0.519
288.000	228.938	79.993	19.991	99.893	20.235	7.329	0.512
294.000	232.001	79.993	19.990	99.905	20.237	7.108	0.546
300.000	234.970	79.993	19.992	99.911	20.239	6.958	0.514
306.000	237.978	79.992	19.993	99.901	20.236	7.166	0.506
312.000	240.954	79.993	19.993	99.898	20.242	6.687	0.516
318.000	243.917	79.991	19.991	99.894	20.237	7.108	0.487
324.000	246.903	79.991	19.992	99.856	20.236	7.164	0.472
330.000	249.940	79.995	19.991	99.967	20.241	6.774	0.537
336.000	252.899	79.995	19.991	99.909	20.241	6.774	0.484
342.000	255.780	79.995	19.991	99.907	20.240	6.842	0.478
348.000	258.821	79.995	19.991	99.902	20.239	6.949	0.515
354.000	261.722	79.996	19.991	99.891	20.236	7.176	0.500
360.000	264.690	79.997	19.989	99.906	20.240	6.838	0.482
366.000	267.622	79.996	19.991	99.906	20.238	6.995	0.475
372.000	270.721	79.993	19.991	99.911	20.237	7.105	0.517
378.000	273.780	79.994	19.992	99.888	20.230	7.793	0.522
384.000	276.824	79.994	19.991	99.897	20.230	7.707	0.515
390.000	279.802	79.994	19.991	99.917	20.225	8.185	0.500
396.000	282.872	79.992	19.992	99.903	20.226	8.111	0.536
402.000	285.910	79.993	19.992	99.910	20.222	8.483	0.498
408.000	288.935	79.996	19.992	99.911	20.223	8.409	0.502
414.000	292.018	79.996	19.991	99.910	20.217	8.920	0.502
420.000	295.099	79.994	19.990	99.907	20.216	9.024	0.528
426.000	298.102	79.993	19.992	99.916	20.215	9.125	0.505
432.000	301.140	79.995	19.990	99.934	20.218	8.853	0.512
438.000	304.154	79.996	19.990	99.901	20.215	9.075	0.487
444.000	307.212	79.996	19.990	99.886	20.214	9.172	0.511
450.000	310.213	79.994	19.990	99.897	20.216	8.958	0.448
456.000	313.271	79.993	19.990	99.936	20.213	9.264	0.490
462.000	316.312	79.993	19.991	99.816	20.214	9.184	0.507
468.000	319.312	79.994	19.991	99.942	20.212	9.387	0.492
474.000	322.365	79.992	19.991	99.936	20.213	9.295	0.470
480.000	325.358	79.991	19.992	99.917	20.211	9.504	0.466
486.000	328.362	79.992	19.992	99.888	20.206	9.884	0.480
492.000	331.372	79.992	19.992	99.907	20.206	9.933	0.498
498.000	334.430	79.994	19.990	99.864	20.201	10.331	0.505
504.000	337.422	79.996	19.991	99.925	20.200	10.480	0.531
510.000	340.536	79.994	19.991	99.916	20.192	11.213	0.533
516.000	343.517	79.994	19.989	99.953	20.188	11.513	0.491
522.000	346.522	79.996	19.991	99.900	20.183	11.948	0.528
528.000	349.602	79.995	19.990	99.918	20.172	12.999	0.531
534.000	352.590	79.995	19.991	99.948	20.167	13.471	0.499
540.000	355.667	79.993	19.991	99.917	20.157	14.298	0.489
546.000	358.671	79.994	19.992	99.920	20.152	14.808	0.520
552.000	361.703	79.994	19.992	99.938	20.138	16.066	0.509
558.000	364.760	79.995	19.992	99.885	20.125	17.217	0.520
564.000	367.798	79.992	19.991	99.975	20.115	18.173	0.484
570.000	370.829	79.991	19.992	99.965	20.106	18.962	0.491
576.000	373.932	79.994	19.991	100.008	20.097	19.715	0.544
582.000	376.991	79.995	19.992	99.949	20.095	19.914	0.532
588.000	380.072	79.994	19.990	99.950	20.090	20.366	0.500
594.000	383.182	79.996	19.991	99.969	20.091	20.257	0.535
600.000	386.278	79.995	19.991	99.972	20.080	21.268	0.493
606.000	389.388	79.997	19.992	99.961	20.073	21.946	0.510
612.000	392.433	79.995	19.992	99.973	20.047	24.237	0.547
618.000	395.567	79.995	19.991	99.967	20.026	26.111	0.535
624.000	398.677	79.994	19.990	99.983	19.998	28.709	0.553
630.000	401.717	79.995	19.990	100.004	19.962	31.958	0.473
636.000	404.768	79.995	19.992	100.029	19.912	36.493	0.514
642.000	407.843	79.995	19.991	100.029	19.858	41.377	0.515
648.000	410.889	79.993	19.991	100.090	19.776	48.773	0.541
654.000	413.835	79.994	19.991	100.088	19.681	57.277	0.483
660.000	416.836	79.996	19.991	100.140	19.580	66.503	0.489
666.000	419.773	79.993	19.992	100.087	19.460	77.359	0.485
672.000	422.852	79.997	19.991	100.199	19.317	90.422	0.553
678.000	425.937	79.994	19.993	100.233	19.145	106.164	0.503
684.000	428.902	79.997	19.990	100.345	18.918	126.527	0.497
690.000	431.861	79.999	19.991	100.557	18.497	165.063	0.519
696.000	434.928	79.995	19.991	100.288	18.386	174.974	0.513
702.000	437.964	79.995	19.991	100.687	18.346	178.664	0.533
708.000	441.097	79.994	19.989	100.546	18.308	182.053	0.535
714.000	444.144	79.996	19.990	100.570	18.308	181.934	0.519
720.000	447.207	79.998	19.990	100.514	18.371	176.159	0.511
726.000	450.317	79.993	19.990	100.488	18.511	163.391	0.547
732.000	453.392	79.995	19.992	100.389	18.708	145.441	0.533
738.000	456.474	79.995	19.991	100.345	18.930	125.272	0.493
744.000	459.539	79.994	19.991	100.274	19.169	103.622	0.519
750.000	462.610	79.995	19.992	100.201	19.439	79.210	0.517
756.000	465.645	79.994	19.991	100.184	19.662	58.978	0.499
762.000	468.752	79.997	19.993	100.100	19.818	44.888	0.547
768.000	471.803	79.998	19.990	100.028	19.928	34.944	0.498
774.000	474.902	79.994	19.991	100.011	20.003	28.262	0.496
780.000	477.935	79.995	19.991	99.975	20.062	22.861	0.481
786.000	480.998	79.994	19.991	99.999	20.107	18.821	0.495
792.000	484.088	79.993	19.990	99.931	20.132	16.614	0.528
798.000	487.129	79.994	19.992	99.917	20.150	14.964	0.498
804.000	490.154	79.996	19.991	99.927	20.164	13.706	0.520
810.000	493.201	79.992	19.992	99.914	20.178	12.406	0.485
816.000	496.304	79.994	19.991	99.909	20.184	11.880	0.546
822.000	499.358	79.995	19.992	99.913	20.190	11.326	0.533
828.000	502.409	79.996	19.990	99.912	20.194	10.960	0.518
834.000	505.693	79.996	19.992	99.921	20.197	10.733	0.566
840.000	508.603	79.994	19.991	99.913	20.202	10.252	0.487
846.000	511.682	79.996	19.992	99.915	20.206	9.914	0.496
852.000	514.823	79.998	19.992	99.900	20.209	9.675	0.512
858.000	517.946	79.997	19.991	99.897	20.207	9.788	0.513
864.000	521.118	79.997	19.991	99.892	20.208	9.744	0.529
870.000	524.195	79.994	19.992	99.884	20.209	9.648	0.526
876.000	527.286	79.995	19.992	99.904	20.209	9.679	0.522
882.000	530.376	79.995	19.991	99.910	20.212	9.337	0.508
888.000	533.484	79.994	19.991	99.909	20.213	9.266	0.509
894.000	536.597	79.995	19.991	99.894	20.213	9.325	0.530
900.000	539.684	79.994	19.992	99.895	20.209	9.643	0.495
906.000	542.680	79.995	19.991	99.912	20.210	9.512	0.502
912.000	545.689	79.993	19.992	99.911	20.205	9.973	0.474
918.000	548.752	79.995	19.991	99.905	20.207	9.864	0.497
924.000	551.748	79.995	19.991	99.939	20.215	9.124	0.505
930.000	554.793	79.994	19.991	99.891	20.207	9.832	0.501
936.000	557.825	79.996	19.991	99.879	20.205	9.996	0.534
942.000	560.858	79.995	19.992	99.907	20.206	9.929	0.520
948.000	563.892	79.995	19.991	99.842	20.198	10.631	0.483
954.000	566.953	79.995	19.991	99.884	20.202	10.271	0.532
960.000	570.017	79.994	19.992	99.905	20.202	10.251	0.562
966.000	573.113	79.992	19.993	99.806	20.202	10.290	0.568
972.000	576.223	79.993	19.991	99.908	20.203	10.200	0.487
978.000	579.355	79.993	19.992	99.892	20.203	10.142	0.575
984.000	582.458	79.995	19.991	99.918	20.202	10.299	0.529
990.000	585.501	79.996	19.992	99.921	20.202	10.254	0.500
996.000	588.579	79.995	19.993	99.907	20.198	10.605	0.518
1002.000	591.667	79.997	19.992	99.905	20.197	10.751	0.518
1005.500	593.442	79.997	19.992	99.902	20.197	10.721	0.536