Folder: fsri_materials_database/01_Data/LatexPillow_C_Foam/STA/N2/10K_min (part 2)

File: Latex_Pillow_C_STA_N2_10KData_220805_R3.csv
##Temp./Â°C,Time/min,Mass loss(subtr.2)/mg,DSC(subtr.2)/(mW/mg),Sensit./(uV/mW)
49.433,10.01,0.02768,0.01125572,1.07025
51.633,11.15417,0.02938161,0.11786,1.06965
53.833,11.51329,0.02983899,0.175,1.06904
56.033,11.80894,0.02975948,0.21197,1.06842
58.233,12.07772,0.0301617,0.23208,1.0678
60.433,12.3316,0.0300349,0.24672,1.06717
62.633,12.57726,0.0311359,0.25738,1.06654
64.833,12.81931,0.03229885,0.26777,1.06591
67.033,13.05733,0.03259378,0.27345,1.06527
69.233,13.2935,0.03329567,0.27899,1.06462
71.433,13.5272,0.03252506,0.28375,1.06397
73.633,13.7576,0.03130315,0.28873,1.06332
75.833,13.98751,0.03594067,0.294,1.06265
78.033,14.2157,0.03591433,0.29765,1.06199
80.233,14.44193,0.03601172,0.29984,1.06132
82.433,14.6669,0.03495678,0.30411,1.06064
84.633,14.8917,0.03601995,0.30877,1.05996
86.833,15.1135,0.03669223,0.31265,1.05927
89.033,15.33421,0.0360199,0.31411,1.05858
91.233,15.55406,0.0360405,0.32024,1.05789
93.433,15.7731,0.03742582,0.32253,1.05719
95.633,15.99054,0.03733001,0.32562,1.05648
97.833,16.20805,0.0360989,0.32876,1.05577
100.033,16.42438,0.03870129,0.33062,1.05505
102.233,16.64051,0.03831536,0.33274,1.05433
104.433,16.85601,0.03733199,0.33496,1.0536
106.633,17.0723,0.03798882,0.33942,1.05287
108.833,17.2878,0.03798997,0.34164,1.05213
111.033,17.5028,0.03897888,0.34424,1.05139
113.233,17.71729,0.03898152,0.34562,1.05064
115.433,17.9324,0.03937245,0.34848,1.04989
117.633,18.1466,0.03872301,0.34788,1.04913
119.833,18.36027,0.03798278,0.35038,1.04836
122.033,18.5749,0.03927529,0.35123,1.04759
124.233,18.7879,0.03896998,0.35412,1.04682
126.433,19.00124,0.03898,0.35549,1.04604
128.633,19.21436,0.03898023,0.35643,1.04525
130.833,19.4279,0.03897994,0.35933,1.04446
133.033,19.64112,0.03998191,0.35904,1.04367
135.233,19.85418,0.0393,0.35957,1.04287
137.433,20.06716,0.04030038,0.35912,1.04206
139.633,20.27948,0.04062735,0.35852,1.04125
141.833,20.49158,0.03898013,0.36077,1.04043
144.033,20.70405,0.0396401,0.36162,1.03961
146.233,20.9157,0.03898002,0.36138,1.03878
148.433,21.12705,0.03897853,0.36024,1.03795
150.633,21.33848,0.03833307,0.36032,1.03711
152.833,21.54932,0.03898,0.36265,1.03627
155.033,21.76014,0.03830839,0.36362,1.03542
157.233,21.9706,0.03929808,0.36596,1.03456
159.433,22.18168,0.03898,0.36822,1.0337
161.633,22.39215,0.04028841,0.36793,1.03284
163.833,22.60292,0.03898007,0.37022,1.03197
166.033,22.81334,0.03892671,0.37024,1.03109
168.233,23.024,0.04060962,0.36859,1.03021
170.433,23.23422,0.03798421,0.3685,1.02932
172.633,23.44494,0.03799,0.36613,1.02843
174.833,23.65514,0.03666999,0.36399,1.02753
177.033,23.86561,0.03764618,0.3654,1.02663
179.233,24.0757,0.0363419,0.36513,1.02572
181.433,24.28625,0.03503,0.36155,1.0248
183.633,24.49599,0.03577485,0.3613,1.02388
185.833,24.7062,0.0337101,0.36032,1.02296
188.033,24.91585,0.03372142,0.35904,1.02203
190.233,25.12508,0.03238756,0.36173,1.02109
192.433,25.33428,0.03272,0.36139,1.02015
194.633,25.54362,0.03107,0.36293,1.0192
196.833,25.75185,0.03140542,0.36454,1.01825
199.033,25.96088,0.02745458,0.36639,1.01729
201.233,26.16947,0.02877003,0.36722,1.01632
203.433,26.37823,0.02744949,0.36987,1.01535
205.633,26.58785,0.02711999,0.37203,1.01438
207.833,26.7969,0.02449,0.373,1.01339
210.033,27.0061,0.02449711,0.37623,1.01241
212.233,27.21555,0.02317,0.37981,1.01141
214.433,27.4252,0.02184988,0.38292,1.01041
216.633,27.6334,0.02047405,0.38606,1.00941
218.833,27.8445,0.01924073,0.39311,1.0084
221.033,28.05407,0.01724,0.39823,1.00739
223.233,28.26247,0.01527,0.40748,1.00636
225.433,28.47185,0.01395016,0.42185,1.00534
227.633,28.6831,0.01257276,0.43199,1.0043
229.833,28.8922,0.01000293,0.44642,1.00327
232.033,29.10175,0.00603867,0.46364,1.00222
234.233,29.31123,0.004645667,0.48563,1.00117
236.433,29.52079,0.0020758,0.50321,1.00012
238.633,29.7305,-0.0005407393,0.52556,0.99905
240.833,29.9402,-0.003509817,0.54781,0.99799
243.033,30.15025,-0.007130012,0.57756,0.99691
245.233,30.36037,-0.01111174,0.61246,0.99584
247.433,30.5707,-0.01503837,0.64493,0.99475
249.633,30.78063,-0.02029171,0.68021,0.99366
251.833,30.99,-0.02567996,0.71279,0.99256
254.033,31.2007,-0.03095194,0.74646,0.99146
256.233,31.41025,-0.037541,0.78453,0.99036
258.433,31.62022,-0.04291806,0.81922,0.98924
260.633,31.8297,-0.04870468,0.85256,0.98812
262.833,32.04055,-0.05687681,0.8831,0.987
265.033,32.24972,-0.06399902,0.90942,0.98587
267.233,32.46029,-0.07321296,0.93403,0.98473
269.433,32.6703,-0.0818997,0.96697,0.98359
271.633,32.8808,-0.0908712,0.98483,0.98244
273.833,33.09121,-0.1012,0.98887,0.98128
276.033,33.30162,-0.11055,0.96852,0.98012
278.233,33.51168,-0.11787,0.91486,0.97896
280.433,33.72096,-0.1261,0.82297,0.97779
282.633,33.93098,-0.13305,0.70498,0.97661
284.833,34.13967,-0.13975,0.59627,0.97543
287.033,34.3486,-0.14369,0.51507,0.97424
289.233,34.55826,-0.14765,0.46483,0.97304
291.433,34.76661,-0.1516,0.42791,0.97184
293.633,34.9758,-0.15456,0.41247,0.97063
295.833,35.18607,-0.15852,0.39742,0.96942
298.033,35.39609,-0.16246,0.38698,0.9682
300.233,35.60647,-0.165,0.37556,0.96698
302.433,35.8164,-0.17063,0.36958,0.96575
304.633,36.0269,-0.17488,0.3711,0.96451
306.833,36.23708,-0.17804,0.36187,0.96327
309.033,36.44794,-0.18446,0.3587,0.96202
311.233,36.6594,-0.18861,0.35109,0.96076
313.433,36.8705,-0.19486,0.34315,0.9595
315.633,37.08169,-0.19928,0.33357,0.95824
317.833,37.2928,-0.20593,0.32869,0.95697
320.033,37.5041,-0.21312,0.31959,0.95569
322.233,37.71476,-0.22,0.31187,0.9544
324.433,37.9264,-0.22835,0.30326,0.95311
326.633,38.13824,-0.23729,0.29169,0.95182
328.833,38.34896,-0.24856,0.276,0.95052
331.033,38.55985,-0.2593,0.27455,0.94921
333.233,38.7725,-0.27341,0.25908,0.9479
335.433,38.9835,-0.28772,0.24515,0.94658
337.633,39.1959,-0.30339,0.22818,0.94525
339.833,39.40761,-0.3216,0.21333,0.94392
342.033,39.61949,-0.34062,0.2027,0.94258
344.233,39.8319,-0.36373,0.18724,0.94124
346.433,40.0441,-0.39044,0.17048,0.93989
348.633,40.25472,-0.42067,0.16248,0.93854
350.833,40.4681,-0.45399,0.153,0.93718
353.033,40.68163,-0.49334,0.13986,0.93581
355.233,40.8952,-0.53659,0.12494,0.93444
357.433,41.10737,-0.58442,0.12398,0.93306
359.633,41.32043,-0.63853,0.11552,0.93167
361.833,41.53314,-0.69919,0.11876,0.93028
364.033,41.74561,-0.76666,0.12263,0.92889
366.233,41.95664,-0.83909,0.13358,0.92749
368.433,42.17106,-0.91894,0.14871,0.92608
370.633,42.38432,-1.00354,0.15956,0.92466
372.833,42.59772,-1.09403,0.17428,0.92325
375.033,42.81187,-1.18865,0.1941,0.92182
377.233,43.02534,-1.28451,0.21361,0.92039
379.433,43.2387,-1.3829,0.23885,0.91895
381.633,43.45174,-1.47895,0.25416,0.91751
383.833,43.6663,-1.57389,0.27304,0.91606
386.033,43.88017,-1.66407,0.2879,0.9146
388.233,44.09689,-1.75312,0.30521,0.91314
390.433,44.31111,-1.83661,0.30978,0.91168
392.633,44.52556,-1.9145,0.31769,0.91021
394.833,44.74038,-1.98752,0.32821,0.90873
397.033,44.95406,-2.05415,0.33782,0.90724
399.233,45.1685,-2.11856,0.33919,0.90575
401.433,45.3817,-2.17895,0.34381,0.90426
403.633,45.59815,-2.23536,0.34721,0.90276
405.833,45.8125,-2.28925,0.35135,0.90125
408.033,46.0289,-2.34162,0.34847,0.89974
410.233,46.2447,-2.39064,0.35282,0.89822
412.433,46.45905,-2.43914,0.35355,0.8967
414.633,46.67455,-2.48632,0.36156,0.89517
416.833,46.88893,-2.53267,0.36094,0.89363
419.033,47.10344,-2.57829,0.36166,0.89209
421.233,47.3182,-2.62251,0.36157,0.89054
423.433,47.53297,-2.66707,0.36151,0.88899
425.633,47.74807,-2.70904,0.36029,0.88743
427.833,47.96342,-2.75427,0.3573,0.88587
430.033,48.17863,-2.79498,0.35423,0.8843
432.233,48.394,-2.83675,0.3479,0.88272
434.433,48.60886,-2.8776,0.3447,0.88114
436.633,48.8253,-2.91809,0.33689,0.87955
438.833,49.04094,-2.95596,0.32924,0.87796
441.033,49.25679,-2.99454,0.32002,0.87636
443.233,49.47314,-3.0318,0.31299,0.87476
445.433,49.69011,-3.06714,0.29848,0.87315
447.633,49.906,-3.10176,0.28653,0.87153
449.833,50.12292,-3.1324,0.27333,0.86991
452.033,50.33891,-3.16273,0.26164,0.86829
454.233,50.55486,-3.19054,0.24765,0.86666
456.433,50.77153,-3.21611,0.23083,0.86502
458.633,50.98771,-3.23828,0.22209,0.86338
460.833,51.20401,-3.25846,0.20979,0.86173
463.033,51.42023,-3.27628,0.19118,0.86008
465.233,51.63686,-3.2934,0.17788,0.85842
467.433,51.85349,-3.30703,0.16234,0.85676
469.633,52.06992,-3.31677,0.14737,0.85509
471.833,52.2865,-3.32676,0.13507,0.85341
474.033,52.5028,-3.33263,0.12285,0.85173
476.233,52.7191,-3.33806,0.11235,0.85005
478.433,52.93478,-3.34273,0.10378,0.84836
480.633,53.15126,-3.34531,0.09824795,0.84666
482.833,53.367,-3.34729,0.09308898,0.84496
485.033,53.58335,-3.34728,0.09884157,0.84325
487.233,53.7991,-3.3499,0.09897675,0.84154
489.433,54.0159,-3.34986,0.1009,0.83982
491.633,54.2325,-3.35091,0.09969381,0.8381
493.833,54.44985,-3.35256,0.09715158,0.83637
496.033,54.6667,-3.35288,0.10067,0.83464
498.233,54.88397,-3.35256,0.1026,0.8329
500.433,55.10136,-3.35354,0.10138,0.83116
502.633,55.31895,-3.35486,0.09561683,0.82941
504.833,55.53641,-3.35418,0.09100751,0.82766
507.033,55.7546,-3.35511,0.08524779,0.8259
509.233,55.97274,-3.35389,0.08105256,0.82414
511.433,56.19066,-3.35453,0.07466503,0.82237
513.633,56.40818,-3.35413,0.07060651,0.82059
515.833,56.62635,-3.35552,0.07182836,0.81882
518.033,56.84434,-3.35586,0.07164031,0.81703
520.233,57.0626,-3.35586,0.07000676,0.81525
522.433,57.2807,-3.35657,0.07147848,0.81345
524.633,57.49969,-3.35552,0.07041723,0.81165
526.833,57.71799,-3.35808,0.06759422,0.80985
529.033,57.93591,-3.35684,0.06741784,0.80804
531.233,58.15456,-3.35852,0.06602704,0.80623
533.433,58.3728,-3.35783,0.06465769,0.80442
535.633,58.59061,-3.35784,0.06694846,0.80259
537.833,58.809,-3.35717,0.06771642,0.80077
540.033,59.0274,-3.35849,0.06669078,0.79894
542.233,59.24572,-3.3575,0.06824524,0.7971
544.433,59.46447,-3.35915,0.06656929,0.79526
546.633,59.6833,-3.35684,0.07030682,0.79341
548.833,59.90221,-3.35816,0.07225652,0.79156
549.833,59.9993,-3.35816,0.0718239,0.79072