Folder: fsri_materials_database/01_Data/LatexPillow_C_Foam/STA/N2/10K_min

Note: 01_Data/README.md
# Materials and Products Database
## 01_Data

Raw data generated from each apparatus are included here in plain-text format. The data is organized first by material, next by the short name of test apparatus used, and where applicable additional filtering by test settings.

### material.json

Each material directory contains a json file of the same name as the material. This file links the data stored in the repository as well as data and graphs produced by the accompanying scripts (__02_Scripts__) to the respective landing page for the material on the front-end website.

File: Latex_Pillow_C_STA_N2_10KData_220804_R1.csv
##Temp./Â°C,Time/min,Mass loss(subtr.2)/mg,DSC(subtr.2)/(mW/mg),Sensit./(uV/mW)
49.36,10.00917,0.03821,0.001645038,1.07027
52.16,11.26137,0.04262429,0.11911,1.0695
54.96,11.67596,0.0446025,0.17928,1.06872
57.76,12.0268,0.04613148,0.2119,1.06793
60.56,12.35073,0.04541868,0.22911,1.06714
63.36,12.66237,0.04622405,0.23844,1.06633
66.16,12.96793,0.04488519,0.2467,1.06552
68.96,13.2693,0.04490998,0.25411,1.0647
71.76,13.5667,0.04621089,0.25726,1.06387
74.56,13.862,0.04824568,0.26204,1.06304
77.36,14.15337,0.04886872,0.26837,1.06219
80.16,14.44214,0.04875682,0.27257,1.06134
82.96,14.7287,0.04883616,0.27855,1.06048
85.76,15.0122,0.05016591,0.28186,1.05961
88.56,15.2942,0.05103781,0.28453,1.05873
91.36,15.5738,0.05067986,0.28511,1.05785
94.16,15.8524,0.05118861,0.29192,1.05695
96.96,16.1296,0.05148946,0.29199,1.05605
99.76,16.4052,0.05280428,0.2952,1.05514
102.56,16.68072,0.05313733,0.29817,1.05422
105.36,16.95515,0.05412076,0.30018,1.05329
108.16,17.22901,0.05411781,0.30061,1.05236
110.96,17.50316,0.05419973,0.30171,1.05141
113.76,17.77608,0.05544,0.30621,1.05046
116.56,18.04973,0.05544112,0.3073,1.0495
119.36,18.32199,0.05546488,0.30781,1.04853
122.16,18.59386,0.05648636,0.31112,1.04755
124.96,18.86467,0.05546248,0.3105,1.04656
127.76,19.13599,0.05675362,0.31175,1.04557
130.56,19.4066,0.05796913,0.31253,1.04456
133.36,19.67683,0.05775104,0.31254,1.04355
136.16,19.94666,0.05839935,0.31552,1.04253
138.96,20.21669,0.05840999,0.31453,1.0415
141.76,20.48675,0.05775002,0.31677,1.04046
144.56,20.75615,0.05820234,0.31448,1.03941
147.36,21.02639,0.05775,0.31444,1.03836
150.16,21.29428,0.05906987,0.31333,1.03729
152.96,21.56389,0.05872629,0.31309,1.03622
155.76,21.83207,0.05808059,0.31578,1.03514
158.56,22.10033,0.05774961,0.31706,1.03405
161.36,22.36841,0.05907001,0.32096,1.03295
164.16,22.6363,0.05766868,0.31954,1.03184
166.96,22.90413,0.05774585,0.31875,1.03072
169.76,23.1724,0.05775185,0.317,1.0296
172.56,23.4409,0.05736783,0.31596,1.02846
175.36,23.70927,0.05775001,0.31286,1.02732
178.16,23.97705,0.05643999,0.31241,1.02616
180.96,24.2452,0.05648253,0.30945,1.025
183.76,24.5122,0.05775886,0.30808,1.02383
186.56,24.77903,0.05512021,0.30951,1.02265
189.36,25.04715,0.05413,0.30675,1.02146
192.16,25.31329,0.05412996,0.30975,1.02027
194.96,25.58055,0.05249,0.30812,1.01906
197.76,25.84702,0.05182001,0.3074,1.01784
200.56,26.11373,0.04941697,0.31011,1.01662
203.36,26.38007,0.05017979,0.31321,1.01538
206.16,26.646,0.04886048,0.32523,1.01414
208.96,26.91228,0.04622,0.32123,1.01289
211.76,27.17837,0.04391997,0.33339,1.01163
214.56,27.44465,0.04369341,0.33293,1.01036
217.36,27.71094,0.04094954,0.33783,1.00908
220.16,27.9773,0.03963991,0.34821,1.00779
222.96,28.24383,0.03733917,0.35871,1.00649
225.76,28.5099,0.03699381,0.38002,1.00518
228.56,28.77688,0.03304489,0.40216,1.00387
231.36,29.04327,0.03132464,0.42643,1.00254
234.16,29.31045,0.02745,0.45027,1.00121
236.96,29.57756,0.02390279,0.48238,0.99986
239.76,29.84542,0.02118901,0.51705,0.99851
242.56,30.11285,0.01559008,0.55576,0.99715
245.36,30.37998,0.01229988,0.59809,0.99577
248.16,30.6471,0.005720964,0.64394,0.99439
250.96,30.91419,0.0003738889,0.68814,0.993
253.76,31.18095,-0.00720292,0.74309,0.9916
256.56,31.44838,-0.01382191,0.78009,0.99019
259.36,31.7144,-0.02040167,0.81448,0.98877
262.16,31.98123,-0.03033487,0.85121,0.98734
264.96,32.24794,-0.03994461,0.87587,0.9859
267.76,32.5143,-0.04999842,0.9056,0.98446
270.56,32.7819,-0.05982421,0.92396,0.983
273.36,33.04939,-0.07169895,0.92059,0.98153
276.16,33.3161,-0.08189654,0.88364,0.98006
278.96,33.58335,-0.09274927,0.79952,0.97857
281.76,33.84926,-0.10045,0.67447,0.97708
284.56,34.11627,-0.10502,0.54554,0.97557
287.36,34.3827,-0.11037,0.45373,0.97406
290.16,34.64946,-0.11647,0.3942,0.97254
292.96,34.91559,-0.12086,0.36526,0.971
295.76,35.18181,-0.12591,0.35054,0.96946
298.56,35.451,-0.13161,0.33828,0.96791
301.36,35.7169,-0.1368,0.32866,0.96635
304.16,35.98519,-0.14085,0.32103,0.96478
306.96,36.2528,-0.1455,0.31229,0.96319
309.76,36.52098,-0.15136,0.30883,0.9616
312.56,36.78969,-0.15797,0.29786,0.96
315.36,37.05814,-0.16449,0.28835,0.9584
318.16,37.3268,-0.17386,0.27852,0.95678
320.96,37.59552,-0.18098,0.26768,0.95515
323.76,37.86464,-0.19407,0.25557,0.95351
326.56,38.1331,-0.20657,0.23895,0.95186
329.36,38.40193,-0.21727,0.22492,0.9502
332.16,38.66912,-0.23439,0.20933,0.94854
334.96,38.93905,-0.24974,0.18945,0.94686
337.76,39.20973,-0.27188,0.16926,0.94518
340.56,39.4786,-0.2946,0.14689,0.94348
343.36,39.74792,-0.32053,0.12252,0.94177
346.16,40.01722,-0.35332,0.10061,0.94006
348.96,40.28669,-0.39123,0.08628143,0.93834
351.76,40.55686,-0.43615,0.06742044,0.9366
354.56,40.82826,-0.48757,0.04675188,0.93486
357.36,41.0991,-0.54911,0.03941846,0.9331
360.16,41.36973,-0.62029,0.0295974,0.93134
362.96,41.6402,-0.70182,0.03605479,0.92957
365.76,41.91153,-0.79235,0.0437981,0.92779
368.56,42.1826,-0.89129,0.05935473,0.926
371.36,42.45384,-0.99901,0.08653458,0.9242
374.16,42.72623,-1.11539,0.11405,0.92239
376.96,42.99537,-1.23413,0.13896,0.92057
379.76,43.26793,-1.35713,0.16539,0.91874
382.56,43.54156,-1.4789,0.19305,0.9169
385.36,43.81325,-1.59381,0.2115,0.91505
388.16,44.08332,-1.70152,0.22718,0.91319
390.96,44.3539,-1.80067,0.24272,0.91133
393.76,44.6276,-1.89559,0.25152,0.90945
396.56,44.89801,-1.97827,0.2581,0.90756
399.36,45.17071,-2.06133,0.26625,0.90567
402.16,45.44277,-2.13419,0.27337,0.90376
404.96,45.71743,-2.20485,0.27259,0.90185
407.76,45.98867,-2.26909,0.27567,0.89993
410.56,46.26448,-2.33224,0.27774,0.89799
413.36,46.53817,-2.39116,0.27377,0.89605
416.16,46.81232,-2.44933,0.27508,0.8941
418.96,47.08562,-2.50748,0.27966,0.89214
421.76,47.35975,-2.56269,0.27767,0.89017
424.56,47.63454,-2.61846,0.2628,0.88819
427.36,47.90849,-2.67152,0.25978,0.8862
430.16,48.18206,-2.72449,0.25799,0.8842
432.96,48.4562,-2.77434,0.25145,0.8822
435.76,48.7308,-2.82607,0.24195,0.88018
438.56,49.0051,-2.87666,0.23589,0.87816
441.36,49.28007,-2.92364,0.22507,0.87612
444.16,49.5546,-2.96916,0.20935,0.87408
446.96,49.8294,-3.01291,0.19584,0.87203
449.76,50.10406,-3.05228,0.18211,0.86997
452.56,50.37857,-3.09052,0.16628,0.8679
455.36,50.65345,-3.12524,0.14966,0.86582
458.16,50.92844,-3.15663,0.13491,0.86373
460.96,51.20404,-3.18387,0.12049,0.86164
463.76,51.47931,-3.20798,0.10219,0.85953
466.56,51.7549,-3.2268,0.08488441,0.85742
469.36,52.03086,-3.24316,0.06761109,0.85529
472.16,52.30638,-3.25535,0.05166691,0.85316
474.96,52.58254,-3.26235,0.03937745,0.85102
477.76,52.8583,-3.2664,0.02795669,0.84887
480.56,53.133,-3.27032,0.03156109,0.84672
483.36,53.4086,-3.27259,0.02954303,0.84455
486.16,53.68317,-3.27396,0.06358653,0.84237
488.96,53.95933,-3.27527,0.06400372,0.84019
491.76,54.2355,-3.27593,0.05548529,0.838
494.56,54.51225,-3.27593,0.03303672,0.8358
497.36,54.78918,-3.27626,0.007509307,0.83359
500.16,55.0671,-3.27626,-0.01367186,0.83138
502.96,55.3452,-3.27725,-0.03146439,0.82915
505.76,55.62281,-3.27835,-0.04520017,0.82692
508.56,55.90025,-3.27922,-0.0574936,0.82468
511.36,56.17827,-3.28054,-0.06278999,0.82243
514.16,56.45528,-3.27922,-0.06610226,0.82017
516.96,56.7329,-3.28054,-0.06697105,0.8179
519.76,57.01067,-3.2815,-0.06662249,0.81563
522.56,57.2877,-3.28192,-0.0683226,0.81335
525.36,57.5652,-3.28054,-0.06588822,0.81106
528.16,57.8429,-3.28187,-0.06684631,0.80876
530.96,58.12033,-3.28054,-0.06680914,0.80646
533.76,58.39824,-3.28186,-0.06787668,0.80414
536.56,58.676,-3.28153,-0.07109201,0.80182
539.36,58.9544,-3.28153,-0.06879133,0.7995
542.16,59.23293,-3.28251,-0.07325623,0.79716
544.96,59.5111,-3.28128,-0.0734283,0.79482
547.76,59.7895,-3.2812,-0.07749341,0.79247
550.56,60.0683,-3.28153,-0.08126281,0.79011
553.36,60.34629,-3.2812,-0.08210841,0.78774
556.16,60.62548,-3.27989,-0.08372915,0.78537
558.96,60.90342,-3.27989,-0.08802074,0.78299
561.76,61.18088,-3.28087,-0.08891887,0.7806
564.56,61.45941,-3.28087,-0.0945237,0.77821
567.36,61.7385,-3.28022,-0.09532017,0.77581
570.16,62.0175,-3.27989,-0.09452831,0.7734
572.96,62.29733,-3.28054,-0.10176,0.77099
575.76,62.5774,-3.27923,-0.10234,0.76856
578.56,62.8571,-3.27923,-0.10702,0.76614
581.36,63.1362,-3.27909,-0.1063,0.7637
584.16,63.41502,-3.2779,-0.10941,0.76126
586.96,63.69316,-3.27665,-0.11317,0.75881
589.76,63.9714,-3.27659,-0.1133,0.75635
592.56,64.2503,-3.27856,-0.11482,0.75389
595.36,64.52978,-3.27999,-0.11818,0.75142
598.16,64.80954,-3.28232,-0.12036,0.74895
600.96,65.0899,-3.27966,-0.11963,0.74647
603.76,65.37092,-3.28175,-0.12057,0.74398
606.56,65.6525,-3.27774,-0.12277,0.74149
609.36,65.93359,-3.27952,-0.12675,0.73899
612.16,66.21462,-3.27988,-0.12588,0.73649
614.96,66.49534,-3.28109,-0.12624,0.73398
617.76,66.77498,-3.283,-0.13106,0.73146
620.56,67.05592,-3.28537,-0.13499,0.72894
623.36,67.33566,-3.2857,-0.14152,0.72641
626.16,67.61671,-3.2857,-0.14213,0.72388
628.96,67.8977,-3.2857,-0.14808,0.72134
631.76,68.1784,-3.28603,-0.15271,0.71879
634.56,68.4592,-3.28603,-0.15541,0.71624
637.36,68.73996,-3.28669,-0.15873,0.71369
640.16,69.021,-3.28705,-0.16205,0.71113
642.96,69.30193,-3.28898,-0.16201,0.70856
645.76,69.58225,-3.28833,-0.17094,0.70599
648.56,69.86283,-3.28965,-0.17622,0.70342
651.36,70.1438,-3.29064,-0.17508,0.70084
654.16,70.425,-3.28965,-0.17974,0.69825
656.96,70.7063,-3.29097,-0.18032,0.69566
659.76,70.98751,-3.29294,-0.18305,0.69307
662.56,71.26909,-3.29328,-0.18473,0.69047
665.36,71.55081,-3.2946,-0.18672,0.68786
668.16,71.83287,-3.29361,-0.19249,0.68526
670.96,72.11458,-3.29394,-0.19364,0.68264
673.76,72.39622,-3.2936,-0.196,0.68003
676.56,72.67804,-3.29125,-0.20117,0.67741
679.36,72.95923,-3.29229,-0.20845,0.67478
682.16,73.24019,-3.29261,-0.21278,0.67215
684.96,73.52146,-3.29309,-0.21455,0.66952
687.76,73.80359,-3.29261,-0.21758,0.66689
690.56,74.08624,-3.29261,-0.22042,0.66425
693.36,74.3691,-3.29393,-0.22502,0.6616
696.16,74.65125,-3.29426,-0.22676,0.65895
698.96,74.9324,-3.29295,-0.23229,0.6563
699.56,74.993,-3.29295,-0.23304,0.65574

File: Latex_Pillow_C_STA_N2_10KData_220805_R2.csv
##Temp./Â°C,Time/min,Mass loss(subtr.2)/mg,DSC(subtr.2)/(mW/mg),Sensit./(uV/mW)
49.731,10.00917,0.01811,-0.0001760294,1.07017
51.931,11.15242,0.01945163,0.10226,1.06956
54.131,11.51265,0.01977439,0.15662,1.06895
56.331,11.8074,0.01963123,0.19326,1.06834
58.531,12.07426,0.02130016,0.21492,1.06772
60.731,12.32824,0.01870965,0.23195,1.06709
62.931,12.57431,0.02164586,0.24292,1.06646
65.131,12.8155,0.0215586,0.24923,1.06582
67.331,13.0529,0.02024894,0.2549,1.06518
69.531,13.28895,0.0202982,0.26116,1.06453
71.731,13.5234,0.02029626,0.26658,1.06388
73.931,13.75535,0.01997939,0.27061,1.06323
76.131,13.9856,0.02162528,0.27577,1.06257
78.331,14.21408,0.02035918,0.28057,1.0619
80.531,14.44089,0.02193033,0.28125,1.06123
82.731,14.66649,0.02161261,0.28704,1.06055
84.931,14.89055,0.02300063,0.28808,1.05987
87.131,15.11294,0.02293896,0.29379,1.05918
89.331,15.33477,0.02294,0.29462,1.05849
91.531,15.55494,0.02256777,0.29441,1.05779
93.731,15.77346,0.02294182,0.30163,1.05709
95.931,15.99109,0.02291225,0.30349,1.05638
98.131,16.20775,0.02294998,0.30419,1.05567
100.331,16.4242,0.02293586,0.30962,1.05495
102.531,16.64027,0.02295391,0.31004,1.05423
104.731,16.85602,0.02425098,0.31382,1.0535
106.931,17.07155,0.02428297,0.31665,1.05277
109.131,17.28623,0.02299145,0.31957,1.05203
111.331,17.50159,0.02322981,0.32007,1.05129
113.531,17.7161,0.02296557,0.32148,1.05054
115.731,17.93064,0.02294968,0.32357,1.04978
117.931,18.145,0.02359988,0.32545,1.04902
120.131,18.3592,0.02426004,0.32761,1.04826
122.331,18.57391,0.0243468,0.32648,1.04749
124.531,18.78771,0.02294026,0.32848,1.04671
126.731,19.00124,0.02294,0.33039,1.04593
128.931,19.21405,0.02293999,0.32996,1.04515
131.131,19.42771,0.02294634,0.3321,1.04436
133.331,19.641,0.02293936,0.33363,1.04356
135.531,19.85395,0.02294091,0.3333,1.04276
137.731,20.0673,0.02293862,0.33384,1.04195
139.931,20.2802,0.02293998,0.33317,1.04114
142.131,20.49301,0.02294,0.33441,1.04032
144.331,20.70562,0.02161974,0.33339,1.0395
146.531,20.91628,0.02162008,0.33539,1.03867
148.731,21.1283,0.02162,0.33465,1.03784
150.931,21.33907,0.02130003,0.33116,1.037
153.131,21.55048,0.02164737,0.33305,1.03615
155.331,21.76176,0.02162377,0.33275,1.0353
157.531,21.97264,0.02161987,0.33457,1.03445
159.731,22.18307,0.0206204,0.33749,1.03359
161.931,22.3944,0.02095978,0.33951,1.03272
164.131,22.6054,0.02030949,0.33861,1.03185
166.331,22.8158,0.02030999,0.33765,1.03097
168.531,23.0263,0.0189903,0.33651,1.03009
170.731,23.23684,0.01932,0.33669,1.0292
172.931,23.44708,0.01898999,0.33537,1.02831
175.131,23.65703,0.01801449,0.33528,1.02741
177.331,23.86778,0.01899032,0.33381,1.02651
179.531,24.07816,0.01892271,0.33348,1.0256
181.731,24.2873,0.0179945,0.33201,1.02468
183.931,24.4973,0.01636139,0.33145,1.02376
186.131,24.70717,0.01668988,0.33212,1.02283
188.331,24.91684,0.01504492,0.3315,1.0219
190.531,25.12645,0.01405,0.32931,1.02096
192.731,25.33571,0.01372363,0.32912,1.02002
194.931,25.54579,0.0133899,0.33068,1.01907
197.131,25.75541,0.01067715,0.33063,1.01812
199.331,25.96566,0.009440039,0.32725,1.01716
201.531,26.17543,0.00845,0.33338,1.01619
203.731,26.3849,0.00828481,0.3357,1.01522
205.931,26.59453,0.005494756,0.33674,1.01424
208.131,26.80405,0.00416987,0.33958,1.01326
210.331,27.01375,0.00146102,0.345,1.01227
212.531,27.2225,0.0002602061,0.34573,1.01128
214.731,27.4325,-0.000450088,0.3494,1.01028
216.931,27.641,-0.003740063,0.35445,1.00927
219.131,27.8503,-0.005761776,0.35911,1.00826
221.331,28.06025,-0.006700001,0.36591,1.00725
223.531,28.26942,-0.008019999,0.37516,1.00622
225.731,28.4795,-0.01066552,0.38625,1.0052
227.931,28.68913,-0.01229999,0.40146,1.00416
230.131,28.8992,-0.01362362,0.41672,1.00312
232.331,29.10918,-0.0165815,0.43031,1.00208
234.531,29.31959,-0.01922103,0.45229,1.00103
236.731,29.52927,-0.02283838,0.47435,0.99997
238.931,29.739,-0.02514007,0.49823,0.99891
241.131,29.94875,-0.02908902,0.52113,0.99784
243.331,30.15875,-0.031729,0.54691,0.99677
245.531,30.3689,-0.03631776,0.56981,0.99569
247.731,30.57886,-0.04127771,0.6034,0.9946
249.931,30.789,-0.04655197,0.63478,0.99351
252.131,30.999,-0.0518147,0.667,0.99242
254.331,31.20859,-0.05642771,0.69925,0.99131
256.531,31.4185,-0.06192887,0.72895,0.9902
258.731,31.6282,-0.06873206,0.75716,0.98909
260.931,31.83788,-0.07607348,0.78271,0.98797
263.131,32.04829,-0.08289078,0.80701,0.98684
265.331,32.25803,-0.09113377,0.8363,0.98571
267.531,32.46861,-0.10046,0.85801,0.98458
269.731,32.67903,-0.10759,0.88305,0.98343
271.931,32.88942,-0.11618,0.88584,0.98228
274.131,33.10008,-0.12593,0.87956,0.98113
276.331,33.3107,-0.13411,0.85333,0.97997
278.531,33.52117,-0.14326,0.79196,0.9788
280.731,33.73103,-0.15124,0.70233,0.97763
282.931,33.93942,-0.15655,0.5985,0.97645
285.131,34.1479,-0.1611,0.50003,0.97527
287.331,34.3575,-0.16563,0.42801,0.97407
289.531,34.56706,-0.16973,0.38099,0.97288
291.731,34.7761,-0.17104,0.34921,0.97168
293.931,34.98623,-0.17629,0.32985,0.97047
296.131,35.19587,-0.18084,0.3192,0.96926
298.331,35.4046,-0.18348,0.3092,0.96804
300.531,35.6147,-0.188,0.29944,0.96681
302.731,35.82537,-0.19192,0.28997,0.96558
304.931,36.03477,-0.19718,0.28174,0.96434
307.131,36.24622,-0.20018,0.26872,0.9631
309.331,36.45608,-0.20508,0.26425,0.96185
311.531,36.66652,-0.20918,0.2558,0.96059
313.731,36.87747,-0.2143,0.25002,0.95933
315.931,37.08798,-0.22112,0.24231,0.95807
318.131,37.299,-0.22659,0.23391,0.95679
320.331,37.50934,-0.23342,0.22493,0.95551
322.531,37.72118,-0.2416,0.21423,0.95423
324.731,37.9326,-0.25098,0.20493,0.95294
326.931,38.1436,-0.2597,0.19562,0.95164
329.131,38.3553,-0.27041,0.18228,0.95034
331.331,38.5642,-0.28105,0.17123,0.94903
333.531,38.77726,-0.29323,0.15542,0.94772
335.731,38.98826,-0.3085,0.14087,0.9464
337.931,39.19915,-0.32332,0.12478,0.94507
340.131,39.412,-0.3423,0.11127,0.94374
342.331,39.62446,-0.36283,0.09364969,0.9424
344.531,39.83708,-0.38633,0.07554223,0.94106
346.731,40.04887,-0.41408,0.05954252,0.93971
348.931,40.2613,-0.4417,0.04197457,0.93835
351.131,40.47392,-0.47553,0.03001544,0.93699
353.331,40.68642,-0.51371,0.01872957,0.93562
355.531,40.89734,-0.5567,0.01089168,0.93425
357.731,41.1091,-0.60512,3.753243e-06,0.93287
359.931,41.32271,-0.65892,-0.001701123,0.93149
362.131,41.53617,-0.71991,-0.005431887,0.9301
364.331,41.7479,-0.78662,0.001093348,0.9287
366.531,41.96192,-0.85915,0.00724356,0.9273
368.731,42.17477,-0.93898,0.0135271,0.92589
370.931,42.38735,-1.02257,0.02623234,0.92447
373.131,42.60347,-1.11622,0.04790593,0.92305
375.331,42.81695,-1.20815,0.06138479,0.92163
377.531,43.03006,-1.30341,0.0819398,0.92019
379.731,43.24403,-1.40038,0.09993986,0.91876
381.931,43.45823,-1.4971,0.11651,0.91731
384.131,43.66922,-1.58749,0.13679,0.91586
386.331,43.88418,-1.68117,0.14837,0.91441
388.531,44.09662,-1.76377,0.15461,0.91295
390.731,44.31044,-1.848,0.16643,0.91148
392.931,44.52597,-1.92589,0.17454,0.91001
395.131,44.74017,-1.99757,0.18107,0.90853
397.331,44.95361,-2.06372,0.18906,0.90704
399.531,45.16887,-2.12422,0.18704,0.90555
401.731,45.38203,-2.18173,0.18903,0.90406
403.931,45.59424,-2.23939,0.19101,0.90255
406.131,45.8099,-2.29337,0.19342,0.90105
408.331,46.02388,-2.34335,0.19361,0.89953
410.531,46.2412,-2.39568,0.19607,0.89801
412.731,46.4557,-2.44308,0.19301,0.89649
414.931,46.67103,-2.49045,0.19516,0.89496
417.131,46.88808,-2.53629,0.19169,0.89342
419.331,47.10311,-2.58211,0.19242,0.89188
421.531,47.31838,-2.62612,0.19096,0.89033
423.731,47.5343,-2.67262,0.18918,0.88878
425.931,47.74923,-2.71386,0.18451,0.88722
428.131,47.96441,-2.75557,0.17986,0.88565
430.331,48.1798,-2.79638,0.17641,0.88408
432.531,48.39562,-2.83888,0.17091,0.88251
434.731,48.61133,-2.88031,0.16164,0.88092
436.931,48.8266,-2.91807,0.15404,0.87934
439.131,49.0424,-2.95658,0.14443,0.87774
441.331,49.25815,-2.99581,0.13459,0.87615
443.531,49.47375,-3.02981,0.12238,0.87454
445.731,49.68893,-3.06424,0.10923,0.87293
447.931,49.90402,-3.09808,0.09583741,0.87132
450.131,50.11993,-3.12978,0.08419069,0.86969
452.331,50.33587,-3.15831,0.06795692,0.86807
454.531,50.55134,-3.18658,0.05293222,0.86644
456.731,50.7667,-3.21103,0.03750659,0.8648
458.931,50.9835,-3.23405,0.02135987,0.86316
461.131,51.19995,-3.25594,0.00738945,0.86151
463.331,51.41715,-3.27355,-0.01059448,0.85985
465.531,51.63405,-3.28926,-0.02176036,0.85819
467.731,51.85092,-3.30165,-0.0388888,0.85653
469.931,52.06841,-3.31378,-0.0539701,0.85486
472.131,52.28522,-3.32231,-0.06527924,0.85318
474.331,52.50111,-3.32901,-0.07963327,0.8515
476.531,52.71852,-3.335,-0.09127825,0.84982
478.731,52.93558,-3.3372,-0.09958948,0.84813
480.931,53.1526,-3.34135,-0.10913,0.84643
483.131,53.369,-3.34257,-0.11463,0.84473
485.331,53.5853,-3.34389,-0.11341,0.84302
487.531,53.8013,-3.34456,-0.1121,0.84131
489.731,54.0186,-3.34587,-0.1126,0.83959
491.931,54.2352,-3.34719,-0.11259,0.83787
494.131,54.452,-3.34718,-0.10623,0.83614
496.331,54.6687,-3.34752,-0.1014,0.8344
498.531,54.8862,-3.34784,-0.10051,0.83267
500.731,55.104,-3.34917,-0.11248,0.83092
502.931,55.3219,-3.35048,-0.12346,0.82917
505.131,55.5397,-3.34919,-0.13428,0.82742
507.331,55.7572,-3.35081,-0.14529,0.82566
509.531,55.9756,-3.35157,-0.15537,0.8239
511.731,56.1938,-3.35213,-0.16543,0.82213
513.931,56.41205,-3.35318,-0.17638,0.82035
516.131,56.6307,-3.35311,-0.18677,0.81858
518.331,56.84885,-3.35246,-0.19278,0.81679
520.531,57.06709,-3.35382,-0.20034,0.815
522.731,57.28558,-3.35378,-0.20082,0.81321
524.931,57.50339,-3.35246,-0.20075,0.81141
527.131,57.72231,-3.35345,-0.20306,0.80961
529.331,57.94079,-3.35476,-0.20614,0.8078
531.531,58.15897,-3.35343,-0.21057,0.80599
533.731,58.37765,-3.35344,-0.21517,0.80417
535.931,58.5961,-3.35377,-0.21827,0.80235
538.131,58.8147,-3.3541,-0.22122,0.80052
540.331,59.0329,-3.35542,-0.22294,0.79869
542.531,59.25251,-3.35405,-0.22388,0.79685
544.731,59.47155,-3.35575,-0.22777,0.79501
546.931,59.69115,-3.35443,-0.23248,0.79316
549.131,59.9099,-3.35576,-0.2344,0.79131
550.031,59.9992,-3.35576,-0.23543,0.79055