Folder: fsri_materials_database/01_Data/Cotton_Ball/STA/N2/10K_min (part 2)

File: Cotton_Ball_STA_N2_10KData_210713_R3.csv
##Temp./Â°C,Time/min,Mass loss(subtr.2)/mg,DSC(subtr.2)/(mW/mg),Sensit./(uV/mW)
49.308,10.01,-0.0135,-0.02461505,0.61831
52.308,12.35655,-0.01504986,0.03868335,0.61989
55.308,13.04589,-0.01432119,0.07475033,0.62144
58.308,13.5979,-0.01791756,0.10067,0.62297
61.308,14.0885,-0.01942934,0.12578,0.62446
64.308,14.5392,-0.0218299,0.14059,0.62591
67.308,14.96235,-0.02183948,0.15985,0.62734
70.308,15.3625,-0.02466297,0.17919,0.62874
73.308,15.74562,-0.027092,0.19172,0.6301
76.308,16.11486,-0.02983987,0.2049,0.63143
79.308,16.4708,-0.03116023,0.21875,0.63273
82.308,16.81651,-0.03859701,0.22835,0.634
85.308,17.1536,-0.03543991,0.24363,0.63524
88.308,17.48205,-0.03806752,0.25693,0.63645
91.308,17.80351,-0.04200614,0.26792,0.63762
94.308,18.11894,-0.04328029,0.27305,0.63876
97.308,18.4296,-0.04727988,0.28304,0.63988
100.308,18.7361,-0.0488338,0.29177,0.64096
103.308,19.0396,-0.05122996,0.29568,0.642
106.308,19.33899,-0.05420004,0.2981,0.64302
109.308,19.63694,-0.05682455,0.30205,0.644
112.308,19.93236,-0.05843891,0.30666,0.64496
115.308,20.2259,-0.06109999,0.30273,0.64588
118.308,20.5175,-0.06502695,0.29859,0.64677
121.308,20.8067,-0.06506339,0.30684,0.64763
124.308,21.0951,-0.06735196,0.30438,0.64845
127.308,21.3807,-0.07096995,0.30843,0.64925
130.308,21.66461,-0.07162069,0.30623,0.65001
133.308,21.94586,-0.07525,0.30626,0.65075
136.308,22.2258,-0.07795951,0.30203,0.65145
139.308,22.50445,-0.07822477,0.30281,0.65212
142.308,22.78151,-0.08084018,0.29657,0.65276
145.308,23.05721,-0.08324747,0.29162,0.65337
148.308,23.332,-0.08325528,0.29221,0.65395
151.308,23.6056,-0.08588999,0.29273,0.6545
154.308,23.87831,-0.08594619,0.29148,0.65501
157.308,24.1505,-0.0872,0.29757,0.6555
160.308,24.42139,-0.08754089,0.29654,0.65596
163.308,24.69386,-0.08885,0.29787,0.65638
166.308,24.96557,-0.08984821,0.29452,0.65678
169.308,25.23631,-0.09116,0.29243,0.65714
172.308,25.5073,-0.09038581,0.29556,0.65748
175.308,25.77773,-0.10082,0.29891,0.65778
178.308,26.04792,-0.09429321,0.29772,0.65806
181.308,26.31772,-0.0924604,0.29421,0.6583
184.308,26.5867,-0.09477993,0.29716,0.65852
187.308,26.85598,-0.09477006,0.29828,0.65871
190.308,27.12388,-0.09477,0.29882,0.65887
193.308,27.3913,-0.09444999,0.29851,0.65899
196.308,27.65823,-0.09705985,0.29882,0.65909
199.308,27.92476,-0.09565362,0.30473,0.65917
202.308,28.19185,-0.09689304,0.30585,0.65921
205.308,28.45828,-0.09954668,0.30719,0.65922
208.308,28.72482,-0.09872988,0.31282,0.65921
211.308,28.99215,-0.10004,0.31496,0.65917
214.308,29.25927,-0.10036,0.3165,0.6591
217.308,29.52645,-0.10069,0.32197,0.659
220.308,29.7934,-0.10338,0.32274,0.65888
223.308,30.06135,-0.10432,0.32594,0.65873
226.308,30.3286,-0.10564,0.32734,0.65855
229.308,30.59592,-0.10662,0.32513,0.65834
232.308,30.8627,-0.10859,0.32935,0.65811
235.308,31.1305,-0.10991,0.32979,0.65785
238.308,31.39775,-0.11386,0.33357,0.65757
241.308,31.6647,-0.11545,0.33535,0.65726
244.308,31.93215,-0.11802,0.33384,0.65692
247.308,32.19958,-0.12066,0.3374,0.65656
250.308,32.46728,-0.12037,0.33676,0.65617
253.308,32.73496,-0.12855,0.34146,0.65576
256.308,33.00308,-0.13511,0.33504,0.65532
259.308,33.2701,-0.13953,0.32986,0.65486
262.308,33.53842,-0.14742,0.33099,0.65438
265.308,33.8072,-0.15465,0.3194,0.65387
268.308,34.07547,-0.15999,0.30832,0.65333
271.308,34.34377,-0.17017,0.30126,0.65277
274.308,34.61261,-0.18297,0.29149,0.65219
277.308,34.8814,-0.19664,0.2808,0.65159
280.308,35.15814,-0.21176,0.26768,0.65096
283.308,35.42951,-0.24335,0.25205,0.65031
286.308,35.69962,-0.2492,0.24387,0.64964
289.308,35.969,-0.27213,0.23479,0.64894
292.308,36.23914,-0.30185,0.22516,0.64823
295.308,36.50951,-0.33315,0.22022,0.64749
298.308,36.7795,-0.36841,0.21899,0.64673
301.308,37.05038,-0.40799,0.22321,0.64595
304.308,37.32115,-0.45264,0.22471,0.64515
307.308,37.59239,-0.50339,0.22512,0.64433
310.308,37.8637,-0.56357,0.22751,0.64348
313.308,38.13455,-0.63195,0.22792,0.64262
316.308,38.40687,-0.71023,0.22319,0.64174
319.308,38.67856,-0.8007,0.22343,0.64084
322.308,38.9512,-0.90729,0.21753,0.63992
325.308,39.22262,-1.02749,0.21828,0.63898
328.308,39.4953,-1.16509,0.21545,0.63802
331.308,39.76777,-1.31767,0.21859,0.63705
334.308,40.0406,-1.48303,0.23907,0.63605
337.308,40.31434,-1.65332,0.26279,0.63504
340.308,40.5892,-1.8235,0.28773,0.63401
343.308,40.8647,-1.98574,0.30321,0.63297
346.308,41.1408,-2.1316,0.30519,0.63191
349.308,41.4176,-2.26212,0.30308,0.63083
352.308,41.69403,-2.36962,0.28982,0.62973
355.308,41.971,-2.45297,0.26124,0.62862
358.308,42.24794,-2.52415,0.22375,0.62749
361.308,42.52408,-2.57355,0.18367,0.62635
364.308,42.8004,-2.61355,0.14457,0.62519
367.308,43.07735,-2.63856,0.10694,0.62402
370.308,43.35391,-2.6577,0.07960299,0.62284
373.308,43.63134,-2.67188,0.06039265,0.62164
376.308,43.90872,-2.6822,0.05796333,0.62042
379.308,44.1869,-2.69105,0.05599769,0.61919
382.308,44.4653,-2.6988,0.05205539,0.61795
385.308,44.74512,-2.71145,0.05328134,0.6167
388.308,45.02478,-2.72131,0.05543343,0.61543
391.308,45.30495,-2.72919,0.05147259,0.61416
394.308,45.5844,-2.73667,0.05463156,0.61286
397.308,45.86533,-2.74599,0.04454909,0.61156
400.308,46.14595,-2.75167,0.04496328,0.61025
403.308,46.4271,-2.76103,0.04155798,0.60892
406.308,46.70864,-2.76884,0.04119441,0.60759
409.308,46.99057,-2.77726,0.04055501,0.60624
412.308,47.2729,-2.78336,0.03570173,0.60489
415.308,47.55587,-2.79172,0.03580358,0.60352
418.308,47.83928,-2.79997,0.03847914,0.60214
421.308,48.12256,-2.80852,0.03985506,0.60076
424.308,48.40641,-2.81793,0.03870803,0.59936
427.308,48.68991,-2.82201,0.03817842,0.59796
430.308,48.97372,-2.82978,0.03469769,0.59655
433.308,49.25772,-2.83579,0.03248541,0.59513
436.308,49.54265,-2.84525,0.03850577,0.5937
439.308,49.82784,-2.85504,0.04017683,0.59227
442.308,50.11318,-2.86039,0.04438428,0.59083
445.308,50.39884,-2.86562,0.04437036,0.58938
448.308,50.6849,-2.87354,0.03765785,0.58792
451.308,50.9715,-2.8806,0.04184548,0.58646
454.308,51.25928,-2.88618,0.04601072,0.58499
457.308,51.54707,-2.89357,0.05071467,0.58352
460.308,51.83511,-2.89956,0.05424009,0.58204
463.308,52.12325,-2.90483,0.05358467,0.58056
466.308,52.41087,-2.91122,0.05790404,0.57907
469.308,52.69869,-2.91813,0.06722076,0.57757
472.308,52.98686,-2.92336,0.06901516,0.57607
475.308,53.2752,-2.92917,0.06738095,0.57457
478.308,53.56437,-2.93477,0.07677824,0.57306
481.308,53.8541,-2.94044,0.07349072,0.57155
484.308,54.14434,-2.9454,0.07752779,0.57004
487.308,54.4344,-2.95209,0.07493005,0.56852
490.308,54.72458,-2.95496,0.08779705,0.567
493.308,55.01576,-2.96009,0.0922349,0.56548
496.308,55.3064,-2.96298,0.09472901,0.56396
499.308,55.59692,-2.96865,0.09912005,0.56243
502.308,55.88762,-2.97261,0.09673379,0.5609
505.308,56.18,-2.97886,0.09382504,0.55937
508.308,56.47204,-2.98015,0.10477,0.55784
511.308,56.76416,-2.98544,0.1202,0.55631
514.308,57.0565,-2.98877,0.13121,0.55477
517.308,57.3497,-2.99334,0.1387,0.55324
520.308,57.6432,-2.99336,0.13705,0.55171
523.308,57.9366,-2.99872,0.14593,0.55017
526.308,58.22967,-3.00134,0.13944,0.54864
529.308,58.5246,-3.01352,0.12848,0.54711
532.308,58.8193,-3.00749,0.1302,0.54557
535.308,59.11415,-3.01088,0.12704,0.54404
538.308,59.40951,-3.01538,0.13009,0.54251
541.308,59.7056,-3.01802,0.13288,0.54098
544.308,60.0002,-3.01674,0.13854,0.53945
547.308,60.2967,-3.02241,0.13974,0.53793
550.308,60.5926,-3.02483,0.14347,0.5364
553.308,60.8897,-3.02855,0.14419,0.53488
556.308,61.18724,-3.03053,0.14726,0.53336
559.308,61.48454,-3.03043,0.1454,0.53184
562.308,61.78145,-3.03447,0.14581,0.53033
565.308,62.0788,-3.03455,0.14922,0.52882
568.308,62.3763,-3.03909,0.15425,0.52731
571.308,62.67354,-3.03902,0.15681,0.5258
574.308,62.97165,-3.04313,0.15067,0.5243
577.308,63.27065,-3.0438,0.16211,0.5228
580.308,63.5694,-3.04544,0.1678,0.52131
583.308,63.86834,-3.04807,0.17391,0.51982
586.308,64.1669,-3.05114,0.18002,0.51833
589.308,64.46589,-3.05072,0.17976,0.51685
592.308,64.76527,-3.05237,0.18404,0.51538
595.308,65.06536,-3.05498,0.18735,0.5139
598.308,65.36448,-3.05499,0.19644,0.51244
601.308,65.6653,-3.05631,0.20049,0.51098
604.308,65.9659,-3.0563,0.20397,0.50952
607.308,66.26724,-3.05894,0.20969,0.50807
610.308,66.56855,-3.0586,0.22143,0.50662
613.308,66.86957,-3.06154,0.22902,0.50518
616.308,67.17161,-3.063,0.23582,0.50375
619.308,67.47349,-3.0642,0.24311,0.50232
622.308,67.77577,-3.06584,0.24859,0.50089
625.308,68.07735,-3.06518,0.25164,0.49948
628.308,68.37954,-3.06804,0.26829,0.49807
631.308,68.68292,-3.07072,0.27985,0.49666
634.308,68.9861,-3.07067,0.29648,0.49527
637.308,69.2893,-3.07066,0.29963,0.49388
640.308,69.5925,-3.07165,0.30569,0.49249
643.308,69.8965,-3.07461,0.31043,0.49112
646.308,70.2,-3.07429,0.32192,0.48975
649.308,70.50373,-3.07692,0.33316,0.48838
652.308,70.8075,-3.07705,0.33269,0.48703
655.308,71.11068,-3.07789,0.32947,0.48568
658.308,71.41539,-3.07921,0.32577,0.48434
661.308,71.71992,-3.08009,0.34134,0.483
664.308,72.02492,-3.08207,0.34777,0.48168
667.308,72.32989,-3.08305,0.35015,0.48036
670.308,72.63455,-3.08306,0.35217,0.47905
673.308,72.9393,-3.08438,0.36798,0.47775
676.308,73.24508,-3.08416,0.37202,0.47645
679.308,73.5512,-3.08548,0.38569,0.47516
682.308,73.8567,-3.08679,0.38588,0.47388
685.308,74.16257,-3.08811,0.39502,0.47261
688.308,74.46892,-3.08942,0.38981,0.47135
691.308,74.7758,-3.08844,0.40087,0.4701
694.308,75.083,-3.08975,0.41081,0.46885
697.308,75.3899,-3.09173,0.40977,0.46761
700.308,75.69691,-3.09172,0.41393,0.46638
703.308,76.00364,-3.09206,0.41994,0.46516
706.308,76.3114,-3.09308,0.43205,0.46394
709.308,76.61877,-3.09337,0.43626,0.46274
712.308,76.92653,-3.09469,0.44327,0.46154
715.308,77.23478,-3.09436,0.4525,0.46035
718.308,77.54289,-3.09436,0.45625,0.45917
721.308,77.8506,-3.09798,0.46586,0.458
724.308,78.1592,-3.0993,0.48378,0.45684
727.308,78.46738,-3.09789,0.49218,0.45568
730.308,78.77598,-3.09798,0.50146,0.45453
733.308,79.0845,-3.09821,0.50702,0.4534
736.308,79.39317,-3.09995,0.51787,0.45227
739.308,79.7021,-3.10028,0.54281,0.45114
742.108,79.98955,-3.10028,0.54116,0.45011