Folder: fsri_materials_database/01_Data/Cotton_Ball/STA/N2/10K_min

Note: 01_Data/README.md
# Materials and Products Database
## 01_Data

Raw data generated from each apparatus are included here in plain-text format. The data is organized first by material, next by the short name of test apparatus used, and where applicable additional filtering by test settings.

### material.json

Each material directory contains a json file of the same name as the material. This file links the data stored in the repository as well as data and graphs produced by the accompanying scripts (__02_Scripts__) to the respective landing page for the material on the front-end website.

File: Cotton_Ball_STA_N2_10KData_210712_R1.csv
##Temp./Â°C,Time/min,Mass loss(subtr.2)/mg,DSC(subtr.2)/(mW/mg),Sensit./(uV/mW)
49.293,10.01,-0.02292,0.03895183,0.6183
51.893,12.24337,-0.0264795,0.10465,0.61967
54.493,12.88144,-0.02488385,0.13803,0.62103
57.093,13.38688,-0.02650721,0.16542,0.62235
59.693,13.8337,-0.02731888,0.18347,0.62366
62.293,14.2415,-0.02754781,0.20161,0.62494
64.893,14.6258,-0.03016179,0.21573,0.62619
67.493,14.9886,-0.03316223,0.23024,0.62743
70.093,15.33569,-0.03267618,0.24337,0.62864
72.693,15.6705,-0.03499,0.26054,0.62982
75.293,15.99337,-0.03848033,0.27295,0.63099
77.893,16.30614,-0.03850938,0.28822,0.63212
80.493,16.6112,-0.04125081,0.30138,0.63324
83.093,16.90842,-0.04254504,0.30957,0.63433
85.693,17.19826,-0.04648865,0.32306,0.6354
88.293,17.48274,-0.04803862,0.33179,0.63644
90.893,17.7612,-0.05176833,0.34092,0.63746
93.493,18.0364,-0.05438066,0.34292,0.63846
96.093,18.3065,-0.05697082,0.34832,0.63943
98.693,18.57387,-0.05967513,0.35306,0.64038
101.293,18.8379,-0.06099151,0.35552,0.6413
103.893,19.09935,-0.06492989,0.35522,0.6422
106.493,19.3592,-0.0678842,0.35388,0.64308
109.093,19.6173,-0.07019956,0.35908,0.64393
111.693,19.8733,-0.07401329,0.35599,0.64476
114.293,20.12769,-0.07548357,0.35542,0.64557
116.893,20.3814,-0.0782016,0.35271,0.64635
119.493,20.63342,-0.08086517,0.35198,0.64711
122.093,20.88384,-0.08117372,0.35081,0.64785
124.693,21.133,-0.08117841,0.34576,0.64856
127.293,21.38008,-0.08379995,0.34556,0.64925
129.893,21.626,-0.08546017,0.34291,0.64991
132.493,21.87056,-0.08643497,0.34116,0.65055
135.093,22.11318,-0.08807,0.34023,0.65117
137.693,22.35555,-0.08939,0.33863,0.65176
140.293,22.5962,-0.0907,0.3374,0.65234
142.893,22.83604,-0.09202056,0.33649,0.65288
145.493,23.07478,-0.09202009,0.33521,0.65341
148.093,23.31285,-0.09235961,0.33697,0.65391
150.693,23.5505,-0.09075687,0.33387,0.65439
153.293,23.78715,-0.09336194,0.33325,0.65484
155.893,24.02425,-0.09465997,0.33474,0.65527
158.493,24.26022,-0.09466,0.33459,0.65568
161.093,24.4959,-0.09564853,0.33576,0.65607
163.693,24.7311,-0.09460658,0.33481,0.65643
166.293,24.9668,-0.09530306,0.33607,0.65677
168.893,25.20204,-0.09556014,0.33716,0.65709
171.493,25.43729,-0.09686,0.33852,0.65739
174.093,25.67156,-0.09751006,0.34212,0.65766
176.693,25.9063,-0.09553996,0.34174,0.65791
179.293,26.1404,-0.09751041,0.33983,0.65814
181.893,26.37275,-0.09618985,0.34419,0.65835
184.493,26.6066,-0.0918062,0.34574,0.65853
187.093,26.8391,-0.09532032,0.34562,0.6587
189.693,27.07115,-0.09925905,0.34644,0.65884
192.293,27.3029,-0.09793797,0.34805,0.65895
194.893,27.53479,-0.10063,0.35456,0.65905
197.493,27.7665,-0.09882827,0.35648,0.65913
200.093,27.9978,-0.10129,0.35229,0.65918
202.693,28.2291,-0.10321,0.35602,0.65921
205.293,28.4605,-0.09946459,0.35635,0.65922
207.893,28.69195,-0.1008,0.35897,0.65921
210.493,28.9234,-0.10343,0.35957,0.65918
213.093,29.1546,-0.10483,0.36135,0.65913
215.693,29.38583,-0.10573,0.35905,0.65906
218.293,29.61757,-0.10378,0.36266,0.65897
220.893,29.84863,-0.1054,0.3601,0.65885
223.493,30.0803,-0.1077,0.35924,0.65872
226.093,30.3121,-0.10772,0.35643,0.65856
228.693,30.5433,-0.10529,0.35913,0.65839
231.293,30.77522,-0.11127,0.35709,0.65819
233.893,31.00698,-0.11174,0.36132,0.65798
236.493,31.2385,-0.11528,0.36044,0.65774
239.093,31.47073,-0.11823,0.36051,0.65749
241.693,31.7022,-0.12054,0.36003,0.65722
244.293,31.934,-0.12218,0.35957,0.65692
246.893,32.16648,-0.12617,0.35638,0.65661
249.493,32.3983,-0.13031,0.35916,0.65628
252.093,32.63125,-0.13437,0.35454,0.65593
254.693,32.86293,-0.13957,0.35344,0.65556
257.293,33.09563,-0.14512,0.34915,0.65517
259.893,33.32809,-0.15213,0.34732,0.65477
262.493,33.56068,-0.15867,0.3433,0.65434
265.093,33.79331,-0.16843,0.33835,0.6539
267.693,34.0259,-0.17632,0.3359,0.65344
270.293,34.2583,-0.18801,0.33269,0.65296
272.893,34.49125,-0.20482,0.32325,0.65247
275.493,34.7241,-0.21296,0.31934,0.65196
278.093,34.95715,-0.22259,0.31064,0.65143
280.693,35.1905,-0.24437,0.30276,0.65088
283.293,35.42365,-0.25625,0.29399,0.65031
285.893,35.6575,-0.28662,0.28946,0.64973
288.493,35.89118,-0.31113,0.28687,0.64913
291.093,36.12509,-0.33719,0.28217,0.64852
293.693,36.35917,-0.36797,0.27761,0.64789
296.293,36.5934,-0.40069,0.28126,0.64724
298.893,36.82842,-0.44173,0.2848,0.64658
301.493,37.0633,-0.48532,0.28893,0.6459
304.093,37.29852,-0.5326,0.29479,0.64521
306.693,37.53368,-0.58625,0.29998,0.6445
309.293,37.76885,-0.65027,0.31316,0.64377
311.893,38.00393,-0.70915,0.31711,0.64303
314.493,38.23957,-0.78324,0.32797,0.64228
317.093,38.47505,-0.8611,0.34198,0.64151
319.693,38.7112,-0.95461,0.35219,0.64072
322.293,38.94686,-1.05804,0.37073,0.63992
324.893,39.18285,-1.17521,0.38275,0.63911
327.493,39.41902,-1.30749,0.40082,0.63828
330.093,39.65506,-1.45447,0.41721,0.63744
332.693,39.89165,-1.61015,0.43841,0.63659
335.293,40.12842,-1.78396,0.45948,0.63572
337.893,40.3654,-1.9637,0.47183,0.63484
340.493,40.60309,-2.14941,0.48491,0.63395
343.093,40.8409,-2.33544,0.48876,0.63304
345.693,41.07905,-2.50586,0.47651,0.63212
348.293,41.31815,-2.67025,0.45061,0.63119
350.893,41.557,-2.81373,0.41275,0.63025
353.493,41.7969,-2.9363,0.36678,0.62929
356.093,42.03651,-3.03774,0.30667,0.62833
358.693,42.27557,-3.12069,0.24956,0.62735
361.293,42.5158,-3.18397,0.19674,0.62636
363.893,42.756,-3.23259,0.14311,0.62536
366.493,42.99563,-3.26567,0.09919885,0.62434
369.093,43.23585,-3.28908,0.07093,0.62332
371.693,43.47607,-3.30761,0.05447403,0.62228
374.293,43.7168,-3.3169,0.04192076,0.62124
376.893,43.95765,-3.33278,0.03806502,0.62018
379.493,44.19898,-3.34155,0.03623281,0.61912
382.093,44.44092,-3.34969,0.03029947,0.61804
384.693,44.6828,-3.35894,0.02388315,0.61696
387.293,44.92409,-3.36751,0.02076865,0.61586
389.893,45.16682,-3.37559,0.01837919,0.61476
392.493,45.40961,-3.38454,0.01737115,0.61365
395.093,45.65294,-3.39056,0.01375291,0.61252
397.693,45.8962,-3.39684,0.01093431,0.61139
400.293,46.1396,-3.404,0.00689598,0.61026
402.893,46.38301,-3.41412,0.005463248,0.60911
405.493,46.627,-3.42082,0.002484449,0.60795
408.093,46.87109,-3.42821,0.004282665,0.60679
410.693,47.1155,-3.43445,-0.000972088,0.60562
413.293,47.36051,-3.4437,0.001753825,0.60444
415.893,47.6054,-3.44983,-0.00346211,0.60325
418.493,47.85053,-3.45581,-0.0051668,0.60206
421.093,48.0965,-3.46502,-0.00652491,0.60086
423.693,48.34236,-3.4717,-0.00928555,0.59965
426.293,48.58873,-3.47783,-0.01430811,0.59844
428.893,48.83464,-3.4845,-0.01482344,0.59722
431.493,49.0813,-3.49078,-0.01701831,0.59599
434.093,49.32756,-3.49725,-0.01882901,0.59476
436.693,49.57458,-3.50414,-0.01957379,0.59352
439.293,49.8217,-3.51204,-0.0176522,0.59228
441.893,50.06888,-3.51995,-0.02107185,0.59103
444.493,50.31668,-3.52465,-0.01946926,0.58977
447.093,50.56475,-3.53121,-0.02082015,0.58851
449.693,50.81317,-3.53819,-0.02139054,0.58725
452.293,51.0618,-3.54285,-0.01772945,0.58598
454.893,51.31027,-3.54933,-0.02426288,0.58471
457.493,51.55932,-3.5558,-0.02176977,0.58343
460.093,51.80823,-3.56183,-0.0213911,0.58215
462.693,52.05701,-3.5673,-0.02574245,0.58086
465.293,52.3057,-3.57418,-0.02795914,0.57957
467.893,52.55633,-3.57983,-0.02581146,0.57828
470.493,52.806,-3.58411,-0.02345724,0.57698
473.093,53.05607,-3.59113,-0.02237926,0.57568
475.693,53.30636,-3.59442,-0.02548959,0.57438
478.293,53.5571,-3.60032,-0.02464664,0.57307
480.893,53.80786,-3.60527,-0.01788975,0.57176
483.493,54.05921,-3.60791,-0.01773154,0.57045
486.093,54.31122,-3.61392,-0.02088461,0.56914
488.693,54.56371,-3.61798,-0.01926112,0.56782
491.293,54.81567,-3.62387,-0.01735775,0.5665
493.893,55.0672,-3.62468,-0.0192654,0.56518
496.493,55.3193,-3.62973,-0.01515951,0.56386
499.093,55.57192,-3.63399,-0.01553454,0.56254
501.693,55.82479,-3.6395,-0.0174578,0.56121
504.293,56.0774,-3.64236,-0.00663702,0.55989
506.893,56.33125,-3.64617,-0.00173733,0.55856
509.493,56.5849,-3.64884,0.0105936,0.55723
512.093,56.8383,-3.65114,0.050351,0.55591
514.693,57.0927,-3.65639,0.07066309,0.55458
517.293,57.3477,-3.65605,0.07988182,0.55325
519.893,57.60258,-3.66198,0.07213745,0.55192
522.493,57.85739,-3.66461,0.07346024,0.55059
525.093,58.11254,-3.66478,0.0736135,0.54926
527.693,58.368,-3.66798,0.0728007,0.54793
530.293,58.6235,-3.67281,0.07127467,0.5466
532.893,58.87868,-3.67428,0.07486564,0.54527
535.493,59.13406,-3.67669,0.07025577,0.54395
538.093,59.38939,-3.68044,0.07301955,0.54262
540.693,59.64566,-3.68195,0.06950787,0.54129
543.293,59.90121,-3.68566,0.07198181,0.53997
545.893,60.1572,-3.6861,0.06545925,0.53865
548.493,60.41316,-3.68699,0.06611847,0.53732
551.093,60.6695,-3.68962,0.07025703,0.536
553.693,60.9274,-3.69358,0.069156,0.53469
556.293,61.18455,-3.69642,0.07195759,0.53337
558.893,61.4416,-3.69795,0.0740388,0.53205
561.493,61.6988,-3.7031,0.07582417,0.53074
564.093,61.9567,-3.70338,0.08417275,0.52943
566.693,62.2139,-3.70542,0.08861401,0.52812
569.293,62.47186,-3.70638,0.09043027,0.52681
571.893,62.73005,-3.71035,0.09596367,0.52551
574.493,62.98803,-3.71037,0.09339945,0.52421
577.093,63.24722,-3.71263,0.09665529,0.52291
579.693,63.5059,-3.7154,0.099265,0.52162
582.293,63.7648,-3.71579,0.10379,0.52032
584.893,64.02381,-3.71947,0.10468,0.51903
587.493,64.28319,-3.72077,0.1071,0.51775
590.093,64.54224,-3.72208,0.10984,0.51647
592.693,64.802,-3.72538,0.11173,0.51519
595.293,65.06182,-3.72509,0.11321,0.51391
597.893,65.3212,-3.72647,0.11129,0.51264
600.493,65.5814,-3.72801,0.11718,0.51137
603.093,65.84182,-3.72965,0.12024,0.51011
605.693,66.1023,-3.73227,0.11921,0.50885
608.293,66.36282,-3.7336,0.12103,0.50759
610.893,66.6233,-3.73349,0.12369,0.50634
613.493,66.88319,-3.73352,0.12489,0.50509
616.093,67.14449,-3.73488,0.12392,0.50385
618.693,67.40531,-3.7372,0.12956,0.50261
621.293,67.6669,-3.73836,0.12329,0.50138
623.893,67.92885,-3.73854,0.13527,0.50015
626.493,68.18985,-3.74128,0.13285,0.49892
629.093,68.45243,-3.74024,0.14166,0.4977
631.693,68.7146,-3.74304,0.14865,0.49648
634.293,68.9765,-3.74172,0.15435,0.49527
636.893,69.23869,-3.74358,0.15966,0.49407
639.493,69.50097,-3.74577,0.15731,0.49287
642.093,69.76346,-3.74577,0.15674,0.49167
644.393,69.99551,-3.74707,0.15223,0.49062

File: Cotton_Ball_STA_N2_10KData_210712_R2.csv
##Temp./Â°C,Time/min,Mass loss(subtr.2)/mg,DSC(subtr.2)/(mW/mg),Sensit./(uV/mW)
49.501,10.01,-0.05112,0.05072659,0.61841
52.501,12.37582,-0.0539867,0.11106,0.61999
55.501,13.0649,-0.0562744,0.14206,0.62154
58.501,13.6165,-0.05860102,0.16524,0.62306
61.501,14.1075,-0.05857726,0.18107,0.62455
64.501,14.55895,-0.06141369,0.20297,0.62601
67.501,14.98196,-0.06395517,0.21857,0.62743
70.501,15.3834,-0.06693876,0.2367,0.62883
73.501,15.7662,-0.06960698,0.24988,0.63019
76.501,16.1349,-0.07347514,0.26833,0.63152
79.501,16.4916,-0.07612488,0.28138,0.63282
82.501,16.83747,-0.07941,0.29249,0.63408
85.501,17.17432,-0.08336078,0.30423,0.63532
88.501,17.50284,-0.08682199,0.31023,0.63652
91.501,17.82483,-0.08878337,0.31867,0.6377
94.501,18.14076,-0.09201719,0.31837,0.63884
97.501,18.452,-0.09728531,0.31844,0.63995
100.501,18.75764,-0.09993039,0.32088,0.64102
103.501,19.0604,-0.10256,0.3223,0.64207
106.501,19.36058,-0.10519,0.3171,0.64308
109.501,19.65767,-0.10904,0.31472,0.64407
112.501,19.9529,-0.10947,0.30822,0.64502
115.501,20.2473,-0.11211,0.30296,0.64594
118.501,20.53891,-0.11331,0.29973,0.64682
121.501,20.82848,-0.11572,0.29521,0.64768
124.501,21.11609,-0.11224,0.29064,0.64851
127.501,21.40158,-0.11857,0.29023,0.6493
130.501,21.68499,-0.12089,0.2862,0.65006
133.501,21.96694,-0.12153,0.28231,0.65079
136.501,22.2468,-0.12398,0.27684,0.65149
139.501,22.52488,-0.12612,0.27358,0.65216
142.501,22.80235,-0.12069,0.27663,0.6528
145.501,23.0781,-0.12393,0.27533,0.65341
148.501,23.35249,-0.12482,0.26905,0.65399
151.501,23.62634,-0.12594,0.26949,0.65453
154.501,23.8996,-0.12793,0.26751,0.65505
157.501,24.17197,-0.12823,0.26672,0.65553
160.501,24.4442,-0.12824,0.2704,0.65598
163.501,24.7161,-0.12813,0.27219,0.65641
166.501,24.98828,-0.12798,0.27378,0.6568
169.501,25.25975,-0.12889,0.27405,0.65716
172.501,25.5305,-0.12887,0.27695,0.6575
175.501,25.80142,-0.12868,0.27753,0.6578
178.501,26.07163,-0.12889,0.28016,0.65807
181.501,26.34158,-0.1302,0.28154,0.65832
184.501,26.6114,-0.12887,0.28415,0.65853
187.501,26.8798,-0.12987,0.28861,0.65872
190.501,27.1481,-0.1302,0.29342,0.65887
193.501,27.41579,-0.13193,0.29793,0.659
196.501,27.6837,-0.12916,0.29889,0.6591
199.501,27.9522,-0.13185,0.30055,0.65917
202.501,28.219,-0.13184,0.30479,0.65921
205.501,28.48678,-0.13113,0.30889,0.65922
208.501,28.75403,-0.13386,0.31315,0.65921
211.501,29.0216,-0.13115,0.31281,0.65917
214.501,29.29,-0.13316,0.31996,0.6591
217.501,29.55718,-0.13372,0.31652,0.659
220.501,29.8248,-0.13612,0.31899,0.65887
223.501,30.0923,-0.13784,0.31999,0.65872
226.501,30.36005,-0.13788,0.32164,0.65854
229.501,30.6279,-0.13689,0.32575,0.65833
232.501,30.89498,-0.14052,0.32846,0.6581
235.501,31.1633,-0.13997,0.33456,0.65784
238.501,31.43122,-0.14391,0.33892,0.65755
241.501,31.69913,-0.14761,0.33585,0.65724
244.501,31.96718,-0.15027,0.34287,0.6569
247.501,32.23565,-0.15442,0.34896,0.65654
250.501,32.504,-0.15812,0.34942,0.65615
253.501,32.77247,-0.16352,0.35007,0.65573
256.501,33.0405,-0.16903,0.35072,0.65529
259.501,33.30917,-0.17307,0.3525,0.65483
262.501,33.57754,-0.17977,0.34979,0.65434
265.501,33.8462,-0.18731,0.34939,0.65383
268.501,34.11526,-0.19538,0.3397,0.6533
271.501,34.3839,-0.20698,0.33398,0.65274
274.501,34.65352,-0.21888,0.3298,0.65215
277.501,34.92281,-0.23609,0.31877,0.65155
280.501,35.19283,-0.2516,0.31302,0.65092
283.501,35.46263,-0.26776,0.30432,0.65027
286.501,35.7329,-0.2908,0.30075,0.64959
289.501,36.00323,-0.3176,0.29903,0.6489
292.501,36.27405,-0.34641,0.29142,0.64818
295.501,36.5453,-0.37999,0.29264,0.64744
298.501,36.81606,-0.41623,0.29918,0.64668
301.501,37.08739,-0.4577,0.30339,0.6459
304.501,37.35888,-0.50425,0.31142,0.6451
307.501,37.6308,-0.55878,0.32377,0.64427
310.501,37.90276,-0.62036,0.3346,0.64343
313.501,38.17521,-0.68796,0.34984,0.64257
316.501,38.44682,-0.76569,0.36623,0.64168
319.501,38.71966,-0.85509,0.38257,0.64078
322.501,38.99283,-0.95907,0.39821,0.63986
325.501,39.26618,-1.07965,0.42308,0.63892
328.501,39.53949,-1.21684,0.43852,0.63796
331.501,39.8129,-1.36905,0.45933,0.63698
334.501,40.0869,-1.5378,0.47815,0.63599
337.501,40.36122,-1.71683,0.49636,0.63498
340.501,40.6355,-1.89939,0.50452,0.63395
343.501,40.91063,-2.07937,0.50094,0.6329
346.501,41.18602,-2.24887,0.47645,0.63184
349.501,41.4615,-2.3997,0.44728,0.63076
352.501,41.73858,-2.53046,0.39623,0.62966
355.501,42.01497,-2.63446,0.33707,0.62855
358.501,42.29183,-2.71918,0.27588,0.62742
361.501,42.5685,-2.7815,0.21462,0.62628
364.501,42.84548,-2.82199,0.15058,0.62512
367.501,43.12312,-2.85313,0.11235,0.62395
370.501,43.40097,-2.87541,0.08718367,0.62276
373.501,43.67978,-2.88672,0.06838441,0.62156
376.501,43.95851,-2.89818,0.06117223,0.62034
379.501,44.23715,-2.90673,0.05400992,0.61912
382.501,44.51717,-2.91634,0.04919694,0.61787
385.501,44.79651,-2.92265,0.04290732,0.61662
388.501,45.0764,-2.93272,0.03704412,0.61535
391.501,45.35625,-2.93681,0.03243549,0.61407
394.501,45.63704,-2.94485,0.0267405,0.61278
397.501,45.9174,-2.95347,0.02279034,0.61148
400.501,46.1987,-2.96177,0.01706232,0.61016
403.501,46.47984,-2.96592,0.00515532,0.60884
406.501,46.76149,-2.97502,0.003533838,0.6075
409.501,47.04433,-2.97912,0.002411603,0.60616
412.501,47.32718,-2.98679,0.001270347,0.6048
415.501,47.61043,-2.99585,0.0002971273,0.60343
418.501,47.89362,-3.00021,-0.0006851793,0.60206
421.501,48.17631,-3.00724,0.0001852729,0.60067
424.501,48.4599,-3.01319,0.00587831,0.59927
427.501,48.74432,-3.02131,0.003076453,0.59787
430.501,49.0293,-3.02692,-0.004018745,0.59646
433.501,49.31438,-3.03419,-0.003233783,0.59504
436.501,49.59965,-3.03886,-0.003492897,0.59361
439.501,49.88463,-3.04731,-0.00188605,0.59218
442.501,50.17001,-3.05125,-0.003770323,0.59073
445.501,50.4566,-3.05791,-0.00374526,0.58929
448.501,50.74309,-3.06265,-0.003388097,0.58783
451.501,51.02984,-3.0722,-0.000955497,0.58637
454.501,51.31662,-3.07811,-4.417513e-05,0.5849
457.501,51.60393,-3.08172,-0.001039088,0.58342
460.501,51.89113,-3.08777,-0.002321642,0.58194
463.501,52.17929,-3.08698,-1.287375e-06,0.58046
466.501,52.4676,-3.09604,-0.00524878,0.57897
469.501,52.75642,-3.10295,-0.002185416,0.57747
472.501,53.04557,-3.10646,0.0006362136,0.57598
475.501,53.33481,-3.11083,0.007590856,0.57447
478.501,53.62429,-3.11514,0.01003747,0.57297
481.501,53.9139,-3.12134,0.008644956,0.57145
484.501,54.2036,-3.12244,0.01161092,0.56994
487.501,54.49403,-3.12536,0.01782636,0.56842
490.501,54.7843,-3.13077,0.0200344,0.5669
493.501,55.0749,-3.13368,0.02286319,0.56538
496.501,55.36591,-3.13626,0.03761897,0.56386
499.501,55.65705,-3.14021,0.0526217,0.56233
502.501,55.9482,-3.14609,0.05171338,0.5608
505.501,56.2398,-3.14855,0.06136124,0.55927
508.501,56.5326,-3.15172,0.060173,0.55774
511.501,56.8252,-3.1537,0.06095133,0.55621
514.501,57.1184,-3.155,0.06608209,0.55468
517.501,57.41169,-3.16034,0.061486,0.55314
520.501,57.7057,-3.15967,0.04606865,0.55161
523.501,57.99901,-3.16372,0.03374407,0.55007
526.501,58.29257,-3.16885,0.02891182,0.54854
529.501,58.5865,-3.17136,0.02791399,0.54701
532.501,58.88097,-3.17355,0.0209315,0.54547
535.501,59.17584,-3.17805,0.02373677,0.54394
538.501,59.471,-3.17972,0.02288817,0.54241
541.501,59.7665,-3.18277,0.01733072,0.54088
544.501,60.06216,-3.18449,0.01713888,0.53935
547.501,60.3583,-3.18785,0.01518958,0.53783
550.501,60.65445,-3.18969,0.008380263,0.5363
553.501,60.95049,-3.19176,0.00951447,0.53478
556.501,61.2472,-3.19528,0.00595319,0.53326
559.501,61.54526,-3.19605,0.01335485,0.53175
562.501,61.8417,-3.19801,0.009022774,0.53023
565.501,62.1389,-3.19669,0.01612199,0.52872
568.501,62.43546,-3.20065,0.01351741,0.52721
571.501,62.73265,-3.202,0.01210956,0.52571
574.501,63.0309,-3.20436,0.01686782,0.52421
577.501,63.32809,-3.20635,0.01753396,0.52271
580.501,63.6263,-3.20711,0.02460001,0.52121
583.501,63.92476,-3.20965,0.0238836,0.51972
586.501,64.22381,-3.20855,0.02932602,0.51824
589.501,64.5236,-3.20726,0.0355502,0.51676
592.501,64.82373,-3.21264,0.05009299,0.51528
595.501,65.12402,-3.21182,0.05148267,0.51381
598.501,65.42407,-3.21272,0.05907805,0.51234
601.501,65.72368,-3.21258,0.07648866,0.51088
604.501,66.0237,-3.21273,0.08145934,0.50943
607.501,66.32417,-3.21844,0.09080381,0.50797
610.501,66.6254,-3.22215,0.09617058,0.50653
613.501,66.92756,-3.21558,0.12101,0.50509
616.501,67.22856,-3.21677,0.1171,0.50365
619.501,67.5293,-3.22277,0.11532,0.50223
622.501,67.8314,-3.21545,0.11664,0.5008
625.501,68.13377,-3.21936,0.11224,0.49939
628.501,68.4361,-3.22242,0.11507,0.49798
631.501,68.73785,-3.22389,0.11203,0.49657
634.501,69.04011,-3.22423,0.12785,0.49518
637.501,69.3434,-3.22455,0.14125,0.49379
640.501,69.64672,-3.22588,0.1485,0.4924
643.501,69.95005,-3.22587,0.15162,0.49103
646.501,70.2531,-3.22736,0.15093,0.48966
649.501,70.557,-3.2285,0.15874,0.4883
652.501,70.8595,-3.22875,0.17235,0.48694
655.501,71.16298,-3.23335,0.19206,0.48559
658.501,71.46728,-3.2273,0.20752,0.48425
661.501,71.77195,-3.22923,0.21388,0.48292
664.501,72.07681,-3.23229,0.20763,0.48159
667.501,72.3814,-3.2322,0.20568,0.48028
670.501,72.68677,-3.23194,0.22698,0.47897
673.501,72.992,-3.23146,0.2475,0.47766
676.501,73.2971,-3.23156,0.2508,0.47637
679.501,73.6019,-3.23132,0.26576,0.47508
682.501,73.90775,-3.23332,0.25203,0.4738
685.501,74.2139,-3.23214,0.27479,0.47253
688.501,74.52067,-3.23378,0.2854,0.47127
691.501,74.82769,-3.2351,0.30048,0.47001
694.501,75.1344,-3.23716,0.3045,0.46877
697.501,75.44142,-3.23377,0.30739,0.46753
700.501,75.74721,-3.23661,0.30548,0.4663
703.501,76.05336,-3.23871,0.29847,0.46508
706.501,76.36013,-3.24114,0.30814,0.46386
709.501,76.66736,-3.24014,0.31871,0.46266
712.501,76.9742,-3.23792,0.32624,0.46146
715.501,77.28268,-3.2409,0.35125,0.46027
718.501,77.59054,-3.23958,0.35874,0.45909
721.501,77.89855,-3.24188,0.35806,0.45792
724.501,78.20744,-3.24123,0.3646,0.45676
727.501,78.51559,-3.24248,0.37101,0.45561
730.501,78.82366,-3.24397,0.37437,0.45446
733.501,79.1327,-3.24133,0.38583,0.45332
736.501,79.4406,-3.24333,0.38458,0.45219
739.501,79.7492,-3.24266,0.38736,0.45107
741.901,79.99755,-3.24528,0.39097,0.45018