Folder: fsri_materials_database/01_Data/Cotton_Ball/STA/N2/30K_min (part 2)

File: Cotton_Ball_STA_N2_30KData_210714_R3.csv
##Temp./Â°C,Time/min,Mass loss(subtr.2)/mg,DSC(subtr.2)/(mW/mg),Sensit./(uV/mW)
50.665,10.00917,-0.05364,0.02438077,0.6235
53.565,11.55753,-0.05322677,0.11719,0.62347
56.465,11.90272,-0.05458582,0.18814,0.62342
59.365,12.15405,-0.0552783,0.2433,0.62336
62.265,12.3637,-0.0569169,0.29071,0.62328
65.165,12.54973,-0.05737978,0.33229,0.6232
68.065,12.72171,-0.05268591,0.37178,0.6231
70.965,12.88415,-0.06054875,0.40771,0.62299
73.865,13.0386,-0.06180923,0.44169,0.62286
76.765,13.18764,-0.07505521,0.47146,0.62273
79.665,13.33199,-0.06691768,0.50852,0.62258
82.565,13.47216,-0.0707635,0.54004,0.62242
85.465,13.60825,-0.07377039,0.57412,0.62224
88.365,13.7414,-0.07437101,0.6089,0.62206
91.265,13.87062,-0.07809685,0.64284,0.62186
94.165,13.99669,-0.07987542,0.67764,0.62165
97.065,14.11958,-0.08438362,0.70677,0.62143
99.965,14.23986,-0.08731837,0.73957,0.6212
102.865,14.35728,-0.09122805,0.76571,0.62095
105.765,14.4728,-0.09662208,0.79138,0.6207
108.665,14.586,-0.10053,0.81625,0.62043
111.565,14.69711,-0.10616,0.83451,0.62015
114.465,14.8064,-0.11045,0.84982,0.61986
117.365,14.9139,-0.11178,0.8667,0.61956
120.265,15.0189,-0.11702,0.87745,0.61924
123.165,15.1233,-0.12107,0.88669,0.61892
126.065,15.22579,-0.12378,0.89348,0.61858
128.965,15.3265,-0.12691,0.89593,0.61824
131.865,15.42619,-0.12951,0.8976,0.61788
134.765,15.52426,-0.13168,0.89948,0.61751
137.665,15.6212,-0.13598,0.89617,0.61713
140.565,15.71685,-0.13843,0.88943,0.61674
143.465,15.81145,-0.13992,0.88542,0.61634
146.365,15.90521,-0.14237,0.88254,0.61592
149.265,15.99779,-0.14501,0.87804,0.6155
152.165,16.08975,-0.14737,0.8761,0.61507
155.065,16.18129,-0.14898,0.86588,0.61462
157.965,16.27199,-0.15027,0.86022,0.61417
160.865,16.36206,-0.1504,0.85132,0.61371
163.765,16.45159,-0.15292,0.83753,0.61323
166.665,16.54063,-0.15291,0.836,0.61275
169.565,16.62905,-0.15555,0.83622,0.61225
172.465,16.71707,-0.15555,0.84027,0.61175
175.365,16.80461,-0.15421,0.83801,0.61123
178.265,16.8914,-0.15554,0.84314,0.61071
181.165,16.97776,-0.15818,0.84337,0.61018
184.065,17.0635,-0.15821,0.8473,0.60963
186.965,17.14904,-0.15981,0.85068,0.60908
189.865,17.23389,-0.16014,0.85881,0.60852
192.765,17.3181,-0.16015,0.86833,0.60795
195.665,17.40213,-0.16021,0.87465,0.60737
198.565,17.48575,-0.16328,0.88216,0.60678
201.465,17.56898,-0.16289,0.88786,0.60618
204.365,17.6519,-0.16436,0.89739,0.60557
207.265,17.73447,-0.15477,0.90574,0.60496
210.165,17.81691,-0.16311,0.91276,0.60433
213.065,17.89888,-0.18144,0.92679,0.6037
215.965,17.98082,-0.16928,0.92787,0.60305
218.865,18.06242,-0.16661,0.93486,0.6024
221.765,18.14392,-0.16791,0.93812,0.60174
224.665,18.22524,-0.16794,0.94438,0.60108
227.565,18.30629,-0.16872,0.94651,0.6004
230.465,18.38721,-0.16954,0.94851,0.59972
233.365,18.46781,-0.16963,0.95646,0.59902
236.265,18.5483,-0.17362,0.95411,0.59832
239.165,18.62848,-0.17231,0.96299,0.59762
242.065,18.70883,-0.17364,0.9677,0.5969
244.965,18.78901,-0.17627,0.97543,0.59618
247.865,18.86891,-0.17759,0.98099,0.59545
250.765,18.94855,-0.17972,0.98535,0.59471
253.665,19.02843,-0.18056,0.99183,0.59396
256.565,19.10803,-0.18317,0.99333,0.59321
259.465,19.18737,-0.18707,0.9936,0.59245
262.365,19.26684,-0.1888,0.99593,0.59168
265.265,19.34636,-0.19378,0.99527,0.5909
268.165,19.4257,-0.20006,0.99373,0.59012
271.065,19.5049,-0.20719,0.98872,0.58933
273.965,19.5841,-0.21653,0.98269,0.58854
276.865,19.6633,-0.22115,0.97376,0.58774
279.765,19.74248,-0.22993,0.95128,0.58693
282.665,19.8217,-0.23954,0.93183,0.58611
285.565,19.90084,-0.23492,0.91062,0.58529
288.465,19.97992,-0.26848,0.88391,0.58446
291.365,20.05891,-0.27331,0.85349,0.58363
294.265,20.13794,-0.29246,0.82674,0.58279
297.165,20.21696,-0.31239,0.78892,0.58194
300.065,20.29593,-0.3338,0.75558,0.58109
302.965,20.37495,-0.35981,0.71937,0.58023
305.865,20.45394,-0.38625,0.68675,0.57937
308.765,20.53279,-0.41689,0.66592,0.5785
311.665,20.61185,-0.45904,0.65313,0.57762
314.565,20.69078,-0.50026,0.64502,0.57674
317.465,20.76983,-0.55051,0.64899,0.57586
320.365,20.8488,-0.60419,0.66043,0.57496
323.265,20.92794,-0.66599,0.68155,0.57407
326.165,21.00701,-0.73491,0.70602,0.57317
329.065,21.08614,-0.81467,0.73775,0.57226
331.965,21.1652,-0.90606,0.77663,0.57135
334.865,21.24427,-1.01212,0.82316,0.57043
337.765,21.32326,-1.13206,0.87702,0.56951
340.665,21.40227,-1.27131,0.94787,0.56858
343.565,21.48105,-1.43298,1.03285,0.56765
346.465,21.55998,-1.61199,1.1232,0.56672
349.365,21.63893,-1.84603,1.22198,0.56578
352.265,21.71783,-2.04758,1.3026,0.56484
355.165,21.79729,-2.27504,1.35375,0.56389
358.065,21.8768,-2.50446,1.37101,0.56294
360.965,21.9571,-2.72775,1.33751,0.56198
363.865,22.0377,-2.93662,1.25504,0.56102
366.765,22.11842,-3.12086,1.13529,0.56005
369.665,22.19957,-3.27835,0.98441,0.55909
372.565,22.2811,-3.41065,0.81474,0.55812
375.465,22.3629,-3.51707,0.63276,0.55714
378.365,22.44473,-3.59741,0.45927,0.55616
381.265,22.52673,-3.6569,0.30612,0.55518
384.165,22.60892,-3.70048,0.17576,0.55419
387.065,22.69106,-3.7322,0.07466736,0.55321
389.965,22.7733,-3.75262,0.000763532,0.55221
392.865,22.85564,-3.76861,-0.04224328,0.55122
395.765,22.93794,-3.77979,-0.07472035,0.55022
398.665,23.02039,-3.79111,-0.09047385,0.54922
401.565,23.10284,-3.8011,-0.10476,0.54822
404.465,23.18563,-3.80873,-0.11594,0.54721
407.365,23.2685,-3.82075,-0.12758,0.5462
410.265,23.35141,-3.82953,-0.13848,0.54519
413.165,23.43441,-3.83821,-0.15164,0.54418
416.065,23.51784,-3.84887,-0.16168,0.54316
418.965,23.60119,-3.85503,-0.17431,0.54214
421.865,23.68454,-3.86327,-0.18383,0.54112
424.765,23.76799,-3.87411,-0.19045,0.5401
427.665,23.85172,-3.88429,-0.19837,0.53907
430.565,23.93551,-3.89016,-0.20779,0.53804
433.465,24.0194,-3.89706,-0.21823,0.53701
436.365,24.10357,-3.90501,-0.22803,0.53598
439.265,24.18796,-3.91484,-0.23457,0.53495
442.165,24.2724,-3.92237,-0.24093,0.53392
445.065,24.35696,-3.9291,-0.24746,0.53288
447.965,24.44166,-3.93804,-0.24802,0.53184
450.865,24.5267,-3.94665,-0.25214,0.5308
453.765,24.61166,-3.95384,-0.26013,0.52976
456.665,24.69681,-3.96248,-0.26832,0.52872
459.565,24.78231,-3.97114,-0.27895,0.52768
462.465,24.86788,-3.98025,-0.27912,0.52663
465.365,24.95366,-3.98565,-0.28398,0.52559
468.265,25.0394,-3.99425,-0.28518,0.52454
471.165,25.1254,-4.00216,-0.28557,0.52349
474.065,25.21159,-4.00628,-0.28625,0.52245
476.965,25.29789,-4.01337,-0.28635,0.5214
479.865,25.3844,-4.02281,-0.28644,0.52035
482.765,25.47115,-4.02925,-0.28424,0.5193
485.665,25.55784,-4.03689,-0.28461,0.51825
488.565,25.64469,-4.0418,-0.28268,0.51719
491.465,25.7319,-4.04564,-0.28274,0.51614
494.365,25.81898,-4.05366,-0.28314,0.51509
497.265,25.90634,-4.05895,-0.28253,0.51404
500.165,25.99382,-4.06461,-0.28219,0.51299
503.065,26.08149,-4.07174,-0.28731,0.51193
505.965,26.16924,-4.07474,-0.28351,0.51088
508.865,26.2573,-4.08026,-0.28487,0.50983
511.765,26.34528,-4.08579,-0.28328,0.50877
514.665,26.43348,-4.08844,-0.28249,0.50772
517.565,26.52187,-4.09254,-0.28219,0.50667
520.465,26.61042,-4.10058,-0.28492,0.50562
523.365,26.69898,-4.10447,-0.27796,0.50457
526.265,26.7879,-4.1083,-0.28103,0.50351
529.165,26.8768,-4.11358,-0.28178,0.50246
532.065,26.9659,-4.11715,-0.28065,0.50141
534.965,27.0549,-4.12262,-0.27882,0.50036
537.865,27.1445,-4.12665,-0.28443,0.49931
540.765,27.2341,-4.12985,-0.28255,0.49826
543.665,27.3234,-4.13375,-0.2858,0.49722
546.565,27.4132,-4.13766,-0.2861,0.49617
549.465,27.503,-4.14118,-0.28627,0.49512
552.365,27.593,-4.14302,-0.2907,0.49408
555.265,27.6831,-4.14564,-0.28995,0.49303
558.165,27.7733,-4.14966,-0.29616,0.49199
561.065,27.8635,-4.15113,-0.29927,0.49094
563.965,27.9538,-4.15285,-0.30432,0.4899
566.865,28.0445,-4.15856,-0.30811,0.48886
569.765,28.1351,-4.16144,-0.31023,0.48782
572.665,28.22597,-4.16423,-0.31792,0.48679
575.565,28.317,-4.16641,-0.32273,0.48575
578.465,28.40799,-4.16696,-0.33231,0.48471
581.365,28.49908,-4.16971,-0.33949,0.48368
584.265,28.59015,-4.17422,-0.34709,0.48265
587.165,28.6818,-4.17303,-0.35046,0.48162
590.065,28.7733,-4.17709,-0.3561,0.48059
592.965,28.86502,-4.17851,-0.36837,0.47956
595.865,28.95679,-4.18247,-0.3693,0.47854
598.765,29.0486,-4.18528,-0.37065,0.47751
601.665,29.14043,-4.18792,-0.37464,0.47649
604.565,29.23253,-4.18929,-0.38194,0.47547
607.465,29.3249,-4.19063,-0.38694,0.47445
610.365,29.41705,-4.20053,-0.39414,0.47343
613.265,29.50958,-4.19269,-0.39828,0.47242
616.165,29.60213,-4.19916,-0.40204,0.47141
619.065,29.6944,-4.19663,-0.41159,0.47039
621.965,29.78722,-4.19952,-0.4161,0.46939
624.865,29.87978,-4.20203,-0.41918,0.46838
627.765,29.9728,-4.20325,-0.41805,0.46737
630.665,30.06568,-4.20619,-0.42073,0.46637
633.565,30.15871,-4.20395,-0.43083,0.46537
636.465,30.25187,-4.20507,-0.43602,0.46437
639.365,30.3449,-4.20714,-0.43451,0.46338
642.265,30.4384,-4.20877,-0.44257,0.46238
645.165,30.53189,-4.21108,-0.44183,0.46139
648.065,30.62541,-4.21275,-0.43871,0.4604
650.965,30.71893,-4.21469,-0.44286,0.45942
653.865,30.8126,-4.21469,-0.45296,0.45843
656.765,30.9065,-4.21667,-0.44884,0.45745
659.665,31.0006,-4.21664,-0.45341,0.45647
662.565,31.0946,-4.21806,-0.45751,0.4555
665.465,31.1886,-4.22259,-0.45938,0.45452
668.365,31.2828,-4.22198,-0.46655,0.45355
671.265,31.37702,-4.22212,-0.47977,0.45258
674.165,31.4714,-4.22314,-0.48584,0.45162
677.065,31.56587,-4.22254,-0.48802,0.45066
679.965,31.6604,-4.22257,-0.49189,0.4497
682.865,31.75508,-4.2265,-0.50254,0.44874
685.765,31.8498,-4.22654,-0.50021,0.44778
688.665,31.9446,-4.22849,-0.5,0.44683
691.565,32.03973,-4.22931,-0.50242,0.44588
694.465,32.13445,-4.23878,-0.5091,0.44493
697.365,32.2297,-4.22661,-0.50379,0.44399
700.265,32.3247,-4.2323,-0.51435,0.44305
703.165,32.4197,-4.23359,-0.52316,0.44211
706.065,32.51498,-4.23487,-0.53822,0.44118
708.965,32.61014,-4.23485,-0.54618,0.44024
711.865,32.70512,-4.23488,-0.55618,0.43932
714.765,32.8007,-4.23618,-0.54065,0.43839
717.665,32.89594,-4.23622,-0.53367,0.43747
720.565,32.99147,-4.23751,-0.52765,0.43655
723.465,33.08698,-4.23887,-0.52859,0.43563
726.365,33.18254,-4.23948,-0.53581,0.43471
729.265,33.27823,-4.24139,-0.54447,0.4338
730.865,33.33181,-4.24146,-0.5526,0.4333