Folder: fsri_materials_database/01_Data/Cotton_Ball/STA/N2/3K_min

Note: 01_Data/README.md
# Materials and Products Database
## 01_Data

Raw data generated from each apparatus are included here in plain-text format. The data is organized first by material, next by the short name of test apparatus used, and where applicable additional filtering by test settings.

### material.json

Each material directory contains a json file of the same name as the material. This file links the data stored in the repository as well as data and graphs produced by the accompanying scripts (__02_Scripts__) to the respective landing page for the material on the front-end website.

File: Cotton_Ball_STA_N2_3KData_210713_R1.csv
##Temp./Â°C,Time/min,Mass loss(subtr.2)/mg,DSC(subtr.2)/(mW/mg),Sensit./(uV/mW)
48.937,10.01,-0.03477,0.01333288,0.58411
52.037,14.02034,-0.03619003,0.0360562,0.58557
55.137,15.63067,-0.03948631,0.04497324,0.587
58.237,17.00124,-0.0423436,0.05479189,0.58841
61.337,18.25031,-0.04563049,0.05965955,0.58979
64.437,19.43093,-0.04694017,0.06045608,0.59115
67.537,20.56772,-0.05058132,0.06579362,0.59249
70.637,21.67994,-0.05307977,0.06387276,0.59379
73.737,22.7668,-0.05750403,0.06981328,0.59508
76.837,23.84187,-0.06383962,0.07155204,0.59633
79.937,24.90535,-0.06767011,0.07509785,0.59757
83.037,25.95816,-0.07119,0.07361929,0.59877
86.137,27.0008,-0.07468541,0.07208621,0.59995
89.237,28.0352,-0.07826589,0.07152234,0.60111
92.337,29.06483,-0.08155695,0.06846528,0.60224
95.437,30.08026,-0.08676,0.06429415,0.60335
98.537,31.09337,-0.08950059,0.06690742,0.60442
101.637,32.10383,-0.0951287,0.06439699,0.60548
104.737,33.11148,-0.09388451,0.06420734,0.60651
107.837,34.11488,-0.09926346,0.0611234,0.60751
110.937,35.11956,-0.09603415,0.05897757,0.60849
114.037,36.1204,-0.10322,0.05566289,0.60944
117.137,37.11872,-0.10321,0.05309444,0.61037
120.237,38.11984,-0.10453,0.05261785,0.61127
123.337,39.11951,-0.10848,0.05372455,0.61214
126.437,40.11574,-0.10999,0.05360658,0.61299
129.537,41.11125,-0.11002,0.05179081,0.61381
132.637,42.10357,-0.11199,0.0517067,0.61461
135.737,43.0929,-0.11319,0.04962703,0.61539
138.837,44.08198,-0.1132,0.05389278,0.61613
141.937,45.06505,-0.11636,0.05434041,0.61685
145.037,46.04735,-0.11888,0.05301174,0.61755
148.137,47.0267,-0.11727,0.05105728,0.61822
151.237,48.00483,-0.11683,0.0552582,0.61887
154.337,48.9795,-0.11878,0.05206996,0.61949
157.437,49.9542,-0.12076,0.05543707,0.62008
160.537,50.93264,-0.12259,0.05942637,0.62065
163.637,51.90524,-0.12122,0.05930806,0.62119
166.737,52.8765,-0.12164,0.05909734,0.62171
169.837,53.84941,-0.12399,0.06161413,0.6222
172.937,54.82266,-0.12488,0.06123376,0.62267
176.037,55.79631,-0.12443,0.06230347,0.62312
179.137,56.7676,-0.1245,0.06780172,0.62353
182.237,57.73899,-0.12524,0.06956706,0.62393
185.337,58.7105,-0.12587,0.06677109,0.62429
188.437,59.6802,-0.12658,0.06816107,0.62463
191.537,60.65225,-0.12844,0.07013751,0.62495
194.637,61.62245,-0.12822,0.07082666,0.62524
197.737,62.59124,-0.12757,0.07312708,0.62551
200.837,63.56,-0.12921,0.07352718,0.62575
203.937,64.52903,-0.13026,0.07465659,0.62597
207.037,65.49847,-0.12991,0.07883879,0.62617
210.137,66.46556,-0.13465,0.08099993,0.62633
213.237,67.43545,-0.13469,0.08192933,0.62648
216.337,68.40524,-0.13618,0.0840811,0.6266
219.437,69.37239,-0.13403,0.08515794,0.62669
222.537,70.34005,-0.13788,0.09020863,0.62677
225.637,71.30927,-0.14237,0.09090654,0.62681
228.737,72.27936,-0.14534,0.09043621,0.62684
231.837,73.24732,-0.15093,0.095694,0.62683
234.937,74.2184,-0.15631,0.09635223,0.62681
238.037,75.1909,-0.15991,0.1012,0.62676
241.137,76.16083,-0.16627,0.10296,0.62669
244.237,77.1316,-0.17462,0.10155,0.62659
247.337,78.1012,-0.18471,0.10117,0.62647
250.437,79.07125,-0.19504,0.09620146,0.62632
253.537,80.04097,-0.20818,0.09918137,0.62616
256.637,81.0099,-0.22277,0.09722539,0.62597
259.737,81.98151,-0.24032,0.09333936,0.62575
262.837,82.95331,-0.26226,0.08994664,0.62552
265.937,83.9251,-0.28836,0.08558924,0.62526
269.037,84.89975,-0.31842,0.08722616,0.62497
272.137,85.8723,-0.35572,0.08426741,0.62467
275.237,86.84399,-0.38547,0.08169269,0.62434
278.337,87.8167,-0.42978,0.08316648,0.62399
281.437,88.79019,-0.48328,0.08210116,0.62361
284.537,89.76387,-0.54122,0.07987399,0.62322
287.637,90.73731,-0.60418,0.07672507,0.6228
290.737,91.71255,-0.6842,0.07776973,0.62236
293.837,92.68741,-0.76178,0.07355423,0.62189
296.937,93.66412,-0.86702,0.07075521,0.62141
300.037,94.64202,-0.98422,0.06908503,0.6209
303.137,95.61839,-1.11547,0.06877986,0.62038
306.237,96.59908,-1.27544,0.06604881,0.61983
309.337,97.57563,-1.45435,0.06663194,0.61926
312.437,98.55487,-1.6593,0.06332157,0.61866
315.537,99.53585,-1.88016,0.06923494,0.61805
318.637,100.514,-2.11733,0.07867999,0.61742
321.737,101.498,-2.35102,0.09144087,0.61676
324.837,102.481,-2.57868,0.1003,0.61608
327.937,103.467,-2.78732,0.10981,0.61539
331.037,104.45,-2.96584,0.10976,0.61467
334.137,105.436,-3.1217,0.10394,0.61393
337.237,106.4209,-3.23485,0.09305377,0.61317
340.337,107.408,-3.32448,0.07298709,0.6124
343.437,108.392,-3.39349,0.05939651,0.6116
346.537,109.376,-3.43516,0.05091376,0.61078
349.637,110.36,-3.46984,0.03956348,0.60994
352.737,111.35,-3.49087,0.0340925,0.60909
355.837,112.342,-3.50647,0.034045,0.60821
358.937,113.332,-3.51901,0.03655998,0.60732
362.037,114.3229,-3.53381,0.03344794,0.6064
365.137,115.315,-3.54691,0.03211068,0.60547
368.237,116.307,-3.56152,0.02489,0.60452
371.337,117.3006,-3.57248,0.02164787,0.60355
374.437,118.295,-3.58583,0.021411,0.60256
377.537,119.289,-3.59783,0.02524997,0.60155
380.637,120.289,-3.6064,0.01819219,0.60053
383.737,121.284,-3.61966,0.01831924,0.59948
386.837,122.281,-3.62984,0.01250672,0.59842
389.937,123.281,-3.64179,0.007712607,0.59734
393.037,124.28,-3.65178,0.006274,0.59625
396.137,125.28,-3.66275,0.00873188,0.59513
399.237,126.28,-3.67339,0.01749569,0.594
402.337,127.281,-3.68398,0.02977691,0.59285
405.437,128.287,-3.69349,0.03381679,0.59169
408.537,129.292,-3.70406,0.03465481,0.59051
411.637,130.295,-3.71223,0.03388116,0.58931
414.737,131.294,-3.72506,0.0330793,0.5881
417.837,132.3,-3.73403,0.0328638,0.58687
420.937,133.304,-3.74215,0.03193659,0.58562
424.037,134.312,-3.75226,0.03666166,0.58436
427.137,135.321,-3.7596,0.03608584,0.58308
430.237,136.33,-3.77069,0.03910669,0.58179
433.337,137.338,-3.7787,0.04140531,0.58048
436.437,138.349,-3.78954,0.04525479,0.57916
439.537,139.365,-3.79645,0.0435638,0.57782
442.637,140.379,-3.80534,0.04596749,0.57647
445.737,141.394,-3.81408,0.04180177,0.5751
448.837,142.41,-3.81785,0.04851905,0.57371
451.937,143.423,-3.82441,0.04498476,0.57232
455.037,144.439,-3.83275,0.04695141,0.57091
458.137,145.452,-3.85137,0.05309645,0.56948
461.237,146.473,-3.84593,0.05710165,0.56804
464.337,147.4888,-3.85296,0.05211837,0.56659
467.437,148.508,-3.86018,0.05085174,0.56513
470.537,149.531,-3.86556,0.04437171,0.56365
473.637,150.548,-3.87109,0.03871442,0.56216
476.737,151.57,-3.87521,0.03017793,0.56065
479.837,152.593,-3.88332,0.02922233,0.55913
482.937,153.617,-3.88772,0.02587958,0.5576
486.037,154.64,-3.89286,0.02462754,0.55606
489.137,155.663,-3.89998,0.01726837,0.55451
492.237,156.689,-3.9068,0.00816662,0.55294
495.337,157.7175,-3.90718,0.005289446,0.55136
498.437,158.7454,-3.91174,0.01037952,0.54977
501.537,159.772,-3.91591,0.01004888,0.54817
504.637,160.796,-3.92226,0.01421085,0.54656
507.737,161.829,-3.92431,0.01521164,0.54493
510.837,162.861,-3.9272,0.02249869,0.5433
513.937,163.889,-3.93013,0.02369434,0.54165
517.037,164.919,-3.93559,0.02963971,0.53999
520.137,165.955,-3.93663,0.03521826,0.53833
523.237,166.988,-3.93915,0.01731085,0.53665
526.337,168.027,-3.94323,0.01609774,0.53496
529.437,169.057,-3.94749,0.01739539,0.53327
532.537,170.087,-3.95002,0.01905827,0.53156
535.637,171.127,-3.95577,0.02004914,0.52984
538.737,172.167,-3.95607,0.02700283,0.52812
541.837,173.203,-3.95737,0.02739764,0.52638
544.937,174.236,-3.95966,0.02898914,0.52464
548.037,175.277,-3.96145,0.03056785,0.52288
551.137,176.317,-3.96636,0.02727357,0.52112
554.237,177.355,-3.96708,0.02970739,0.51935
557.337,178.403,-3.96866,0.02832879,0.51757
560.437,179.448,-3.96976,0.02486112,0.51579
563.537,180.491,-3.97381,0.02777595,0.51399
566.637,181.53,-3.97765,0.03349355,0.51219
569.737,182.574,-3.97736,0.0374861,0.51038
572.837,183.613,-3.97884,0.03845844,0.50856
575.937,184.663,-3.98127,0.0426234,0.50674
579.037,185.71,-3.98435,0.04056234,0.50491
582.137,186.759,-3.9841,0.0360841,0.50307
585.237,187.808,-3.98676,0.03952619,0.50122
588.337,188.858,-3.98878,0.04486657,0.49937
591.437,189.905,-3.98762,0.04329158,0.49751
594.537,190.955,-3.98797,0.04172406,0.49565
597.637,192.004,-3.99015,0.03653303,0.49378
600.737,193.064,-3.99214,0.03440279,0.4919
603.837,194.1143,-3.99236,0.0325725,0.49002
606.937,195.164,-3.99312,0.03519182,0.48813
610.037,196.22,-3.99455,0.03594073,0.48623
613.137,197.277,-3.99695,0.03456403,0.48433
616.237,198.333,-3.99663,0.03127635,0.48243
619.337,199.39,-3.9964,0.03385541,0.48052
622.437,200.444,-3.99674,0.02954965,0.47861
625.537,201.4974,-3.99882,0.01732442,0.47669
628.637,202.5565,-3.99612,0.0156904,0.47476
631.737,203.6122,-3.99881,0.00701918,0.47284
634.837,204.675,-4.00108,-0.006121151,0.47091
637.937,205.7341,-3.99738,-0.01132432,0.46897
641.037,206.786,-3.99905,-0.01747239,0.46703
644.137,207.847,-4.00078,-0.01840817,0.46509
647.237,208.9094,-4.00091,-0.009587085,0.46314
650.337,209.969,-4.00179,-0.0162756,0.46119
653.437,211.03,-4.00214,-0.008750081,0.45924
656.537,212.09,-4.00409,-0.01703709,0.45728
659.637,213.157,-4.0059,-0.02133047,0.45532
662.737,214.2168,-4.00441,-0.02231282,0.45336
665.837,215.277,-4.00509,-0.02230809,0.4514
668.937,216.344,-4.00755,-0.02879748,0.44943
672.037,217.412,-4.00597,-0.0203208,0.44746
675.137,218.477,-4.00239,-0.02430124,0.44549
678.237,219.541,-4.00596,-0.02249221,0.44351
681.337,220.606,-4.00668,-0.02896553,0.44154
684.437,221.678,-4.01001,-0.03865309,0.43956
687.537,222.739,-4.0087,-0.05481378,0.43758
690.637,223.805,-4.0087,-0.05252109,0.4356
693.737,224.8748,-4.00991,-0.0439563,0.43362
696.837,225.9485,-4.0093,-0.04184828,0.43164
699.937,227.016,-4.00917,-0.04335159,0.42965
703.037,228.084,-4.01177,-0.04220965,0.42767
706.137,229.153,-4.01173,-0.0419511,0.42568
709.237,230.229,-4.00946,-0.02353515,0.4237
712.337,231.299,-4.011,-0.02347526,0.42171
715.437,232.371,-4.01034,-0.01959632,0.41972
718.537,233.443,-4.01056,-0.01040963,0.41774
721.637,234.517,-4.01061,-0.02203217,0.41575
724.737,235.598,-4.01443,-0.01242095,0.41376
727.837,236.6736,-4.01241,-0.0103955,0.41178
730.937,237.748,-4.01341,-0.005248158,0.40979
734.037,238.82,-4.01233,-0.008476002,0.4078
737.137,239.894,-4.01309,-0.00283914,0.40582
740.237,240.971,-4.01374,0.01076603,0.40383
743.337,242.052,-4.01309,0.01477057,0.40185
746.437,243.129,-4.01439,0.0261717,0.39987
746.937,243.303,-4.01552,0.02837031,0.39955