Folder: fsri_materials_database/01_Data/Cotton_Shirt/STA/N2/10K_min (part 2)

File: Cotton_Shirt_STA_N2_10KData_21267_R3.csv
##Temp./Â°C,Time/min,Mass loss(subtr.2)/mg,DSC(subtr.2)/(mW/mg),Sensit./(uV/mW)
49.232,10.01,-0.02808,-0.05336118,0.61827
51.832,12.24643,-0.03352584,-0.01276985,0.61964
54.432,12.8843,-0.03475576,0.01864324,0.62099
57.032,13.3893,-0.03675808,0.04032162,0.62232
59.632,13.83681,-0.03607573,0.0525547,0.62363
62.232,14.24714,-0.04088752,0.06991743,0.62491
64.832,14.63215,-0.0428774,0.08325805,0.62617
67.432,14.996,-0.04365999,0.0992462,0.6274
70.032,15.34446,-0.0455,0.11131,0.62861
72.632,15.67772,-0.0491402,0.12558,0.6298
75.232,16.0014,-0.05046178,0.13852,0.63096
77.832,16.31483,-0.05392614,0.14549,0.6321
80.432,16.61893,-0.0567101,0.15153,0.63321
83.032,16.91643,-0.0594316,0.16095,0.6343
85.632,17.20767,-0.06199167,0.164,0.63537
88.232,17.49193,-0.06417959,0.16475,0.63642
90.832,17.77165,-0.06678596,0.16634,0.63744
93.432,18.04586,-0.06949768,0.167,0.63843
96.032,18.31702,-0.07141176,0.16477,0.63941
98.632,18.58446,-0.07558527,0.15997,0.64036
101.232,18.8486,-0.07821283,0.15465,0.64128
103.832,19.1099,-0.07953003,0.15003,0.64218
106.432,19.3701,-0.07952001,0.14225,0.64306
109.032,19.6274,-0.07987401,0.13428,0.64391
111.632,19.88361,-0.0811887,0.13004,0.64474
114.232,20.1384,-0.08380024,0.12215,0.64555
116.832,20.39135,-0.08380737,0.12268,0.64633
119.432,20.64309,-0.08510646,0.12063,0.64709
122.032,20.89357,-0.08512177,0.11994,0.64783
124.632,21.14252,-0.08511987,0.12018,0.64854
127.232,21.38999,-0.08644008,0.12127,0.64923
129.832,21.63626,-0.08679484,0.12273,0.6499
132.432,21.88133,-0.08775892,0.12519,0.65054
135.032,22.1251,-0.08667841,0.12624,0.65116
137.632,22.3672,-0.08774225,0.12721,0.65175
140.232,22.608,-0.08906841,0.12809,0.65232
142.832,22.8482,-0.08907,0.12933,0.65287
145.432,23.08706,-0.08905683,0.13184,0.6534
148.032,23.3249,-0.08910437,0.13363,0.6539
150.632,23.56145,-0.08906,0.13169,0.65438
153.232,23.79809,-0.08940012,0.13391,0.65483
155.832,24.0341,-0.09071993,0.13956,0.65526
158.432,24.27,-0.09071936,0.14181,0.65567
161.032,24.5057,-0.09174387,0.14428,0.65606
163.632,24.74145,-0.09300977,0.14495,0.65643
166.232,24.97648,-0.09300933,0.14787,0.65677
168.832,25.21155,-0.09170945,0.15227,0.65709
171.432,25.44634,-0.09302,0.15445,0.65738
174.032,25.68072,-0.09434,0.15571,0.65766
176.632,25.91515,-0.09363226,0.1576,0.65791
179.232,26.14881,-0.09302563,0.1579,0.65814
181.832,26.38277,-0.09533576,0.16398,0.65834
184.432,26.61587,-0.09399819,0.16666,0.65853
187.032,26.84801,-0.09405646,0.16292,0.65869
189.632,27.07995,-0.09554013,0.16645,0.65883
192.232,27.3117,-0.09652,0.16786,0.65895
194.832,27.5441,-0.0969185,0.17021,0.65905
197.432,27.7756,-0.09806,0.17,0.65913
200.032,28.0072,-0.09806002,0.17099,0.65918
202.632,28.23841,-0.09932986,0.17465,0.65921
205.232,28.47,-0.10069,0.17516,0.65922
207.832,28.7012,-0.10069,0.17591,0.65921
210.432,28.9328,-0.10201,0.17886,0.65918
213.032,29.16429,-0.10201,0.17716,0.65913
215.632,29.39537,-0.10332,0.17958,0.65906
218.232,29.62694,-0.102,0.18244,0.65897
220.832,29.8586,-0.10464,0.18102,0.65885
223.432,30.0904,-0.10561,0.18384,0.65872
226.032,30.3219,-0.10862,0.18478,0.65857
228.632,30.5537,-0.10859,0.18357,0.65839
231.232,30.7858,-0.11024,0.18253,0.6582
233.832,31.0177,-0.11125,0.18171,0.65798
236.432,31.25023,-0.11386,0.18037,0.65775
239.032,31.48205,-0.11649,0.17851,0.6575
241.632,31.7146,-0.11683,0.17285,0.65722
244.232,31.94684,-0.12091,0.17407,0.65693
246.832,32.1791,-0.12515,0.17432,0.65662
249.432,32.4114,-0.1291,0.17362,0.65629
252.032,32.6439,-0.13316,0.17369,0.65594
254.632,32.8767,-0.13872,0.17425,0.65557
257.232,33.1085,-0.14295,0.17912,0.65518
259.832,33.34282,-0.15078,0.17886,0.65478
262.432,33.57547,-0.15769,0.18749,0.65435
265.032,33.80865,-0.16585,0.18844,0.65391
267.632,34.04136,-0.17335,0.19651,0.65345
270.232,34.27435,-0.1847,0.20719,0.65298
272.832,34.50719,-0.19375,0.21208,0.65248
275.432,34.74002,-0.20665,0.22053,0.65197
278.032,34.9731,-0.21676,0.23081,0.65144
280.632,35.2065,-0.22928,0.23701,0.65089
283.232,35.44041,-0.24539,0.24675,0.65033
285.832,35.67438,-0.26121,0.25497,0.64975
288.432,35.90805,-0.2781,0.26329,0.64915
291.032,36.14266,-0.29752,0.27415,0.64853
293.632,36.37742,-0.31702,0.28737,0.6479
296.232,36.61267,-0.33947,0.29782,0.64726
298.832,36.848,-0.3652,0.31244,0.64659
301.432,37.08292,-0.39113,0.3276,0.64592
304.032,37.3183,-0.42072,0.34476,0.64522
306.632,37.55396,-0.45228,0.36025,0.64451
309.232,37.78957,-0.48694,0.38171,0.64379
311.832,38.02485,-0.5258,0.40489,0.64305
314.432,38.2611,-0.56866,0.43647,0.64229
317.032,38.4972,-0.61403,0.4696,0.64152
319.632,38.73355,-0.66329,0.50524,0.64074
322.232,38.96993,-0.7204,0.54774,0.63994
324.832,39.20693,-0.7856,0.60026,0.63913
327.432,39.4447,-0.8571,0.65835,0.6383
330.032,39.68274,-0.93651,0.73026,0.63746
332.632,39.92068,-1.03171,0.8153,0.63661
335.232,40.15883,-1.13486,0.91243,0.63574
337.832,40.3977,-1.25304,1.02319,0.63486
340.432,40.63678,-1.38799,1.14199,0.63397
343.032,40.87587,-1.54037,1.26087,0.63307
345.632,41.11607,-1.71029,1.37996,0.63215
348.232,41.35613,-1.89661,1.46929,0.63122
350.832,41.59682,-2.09293,1.53413,0.63027
353.432,41.8371,-2.29594,1.54259,0.62932
356.032,42.0775,-2.49733,1.48979,0.62835
358.632,42.31697,-2.68637,1.37043,0.62737
361.232,42.5565,-2.85443,1.18146,0.62638
363.832,42.7962,-2.9943,0.93945,0.62538
366.432,43.03505,-3.10179,0.69115,0.62437
369.032,43.2737,-3.18054,0.47773,0.62334
371.632,43.51168,-3.23906,0.3181,0.62231
374.232,43.75114,-3.27805,0.16828,0.62126
376.832,43.9903,-3.30301,0.05929185,0.62021
379.432,44.23129,-3.32021,-0.02554218,0.61914
382.032,44.47139,-3.33171,-0.06348574,0.61807
384.632,44.71232,-3.33576,-0.08529346,0.61698
387.232,44.95335,-3.34217,-0.08278269,0.61589
389.832,45.1952,-3.34741,-0.07850153,0.61479
392.432,45.4375,-3.35268,-0.07607682,0.61367
395.032,45.68072,-3.35542,-0.07677802,0.61255
397.632,45.92383,-3.36068,-0.07831909,0.61142
400.232,46.1671,-3.36463,-0.07944524,0.61028
402.832,46.41088,-3.3667,-0.08034493,0.60913
405.432,46.6545,-3.37199,-0.0798024,0.60798
408.032,46.89917,-3.37406,-0.07611085,0.60682
410.632,47.14269,-3.37878,-0.07914847,0.60564
413.232,47.38847,-3.38163,-0.07796132,0.60447
415.832,47.63344,-3.38569,-0.0793993,0.60328
418.432,47.8791,-3.38832,-0.07777354,0.60209
421.032,48.1243,-3.39096,-0.07703813,0.60089
423.632,48.37056,-3.39457,-0.07499498,0.59968
426.232,48.61643,-3.39853,-0.08063162,0.59847
428.832,48.86323,-3.4001,-0.07733102,0.59725
431.432,49.11039,-3.40411,-0.07989596,0.59602
434.032,49.35706,-3.40809,-0.08091576,0.59479
436.632,49.604,-3.40934,-0.07757743,0.59355
439.232,49.85156,-3.413,-0.0762334,0.59231
441.832,50.10006,-3.41596,-0.07517794,0.59106
444.432,50.34782,-3.41973,-0.07838144,0.5898
447.032,50.59595,-3.42125,-0.07754425,0.58854
449.632,50.84401,-3.42515,-0.07629782,0.58728
452.232,51.09265,-3.42781,-0.0825571,0.58601
454.832,51.34115,-3.43087,-0.08040754,0.58474
457.432,51.58964,-3.43439,-0.08511158,0.58346
460.032,51.83831,-3.43605,-0.09195459,0.58218
462.632,52.08723,-3.43735,-0.09201979,0.58089
465.232,52.33681,-3.43998,-0.09515096,0.5796
467.832,52.58671,-3.44274,-0.09537053,0.57831
470.432,52.8367,-3.44655,-0.09667521,0.57701
473.032,53.08661,-3.4489,-0.10338,0.57571
475.632,53.3367,-3.44998,-0.10658,0.57441
478.232,53.58789,-3.45238,-0.11039,0.5731
480.832,53.8397,-3.45469,-0.11865,0.57179
483.432,54.0909,-3.45599,-0.13098,0.57048
486.032,54.3423,-3.45732,-0.14718,0.56917
488.632,54.59446,-3.46043,-0.16599,0.56785
491.232,54.8461,-3.46258,-0.18086,0.56653
493.832,55.0978,-3.46422,-0.19267,0.56521
496.432,55.34998,-3.46751,-0.1702,0.56389
499.032,55.60194,-3.46981,-0.15266,0.56257
501.632,55.8548,-3.4685,-0.16498,0.56124
504.232,56.108,-3.46981,-0.17687,0.55992
506.832,56.36019,-3.47113,-0.1849,0.55859
509.432,56.61376,-3.47145,-0.19549,0.55727
512.032,56.86719,-3.47498,-0.19636,0.55594
514.632,57.121,-3.47672,-0.19871,0.55461
517.232,57.3751,-3.4787,-0.20068,0.55328
519.832,57.62849,-3.4787,-0.19829,0.55195
522.432,57.8826,-3.47903,-0.19198,0.55062
525.032,58.13705,-3.48067,-0.19046,0.54929
527.632,58.3915,-3.48298,-0.18642,0.54796
530.232,58.64605,-3.48318,-0.1822,0.54663
532.832,58.90113,-3.48526,-0.17673,0.54531
535.432,59.1565,-3.48528,-0.17093,0.54398
538.032,59.41228,-3.48792,-0.16619,0.54265
540.632,59.66867,-3.48923,-0.16558,0.54133
543.232,59.92428,-3.49055,-0.15995,0.54
545.832,60.18026,-3.49186,-0.15903,0.53868
548.432,60.4362,-3.49318,-0.15417,0.53736
551.032,60.69266,-3.49351,-0.14532,0.53603
553.632,60.9496,-3.49625,-0.14542,0.53472
556.232,61.2067,-3.49493,-0.13956,0.5334
558.832,61.46405,-3.49625,-0.13556,0.53208
561.432,61.72104,-3.49625,-0.12909,0.53077
564.032,61.97821,-3.49757,-0.1254,0.52946
566.632,62.23555,-3.49756,-0.12084,0.52815
569.232,62.4929,-3.49987,-0.11402,0.52684
571.832,62.75019,-3.50053,-0.10524,0.52554
574.432,63.00858,-3.50087,-0.10054,0.52424
577.032,63.26706,-3.50217,-0.09292353,0.52294
579.632,63.52636,-3.50348,-0.08603636,0.52165
582.232,63.78411,-3.50525,-0.07579537,0.52035
584.832,64.0434,-3.50525,-0.06783954,0.51907
587.432,64.30236,-3.49677,-0.05642123,0.51778
590.032,64.5617,-3.5067,-0.05013128,0.5165
592.632,64.8214,-3.50535,-0.04150758,0.51522
595.232,65.08155,-3.50568,-0.02914201,0.51394
597.832,65.34178,-3.50717,-0.02533114,0.51267
600.432,65.60169,-3.5091,-0.02012812,0.5114
603.032,65.86109,-3.50966,-0.01918363,0.51014
605.632,66.12141,-3.50974,-0.01135734,0.50888
608.232,66.382,-3.50842,-0.00297594,0.50762
610.832,66.64224,-3.51236,0.005473036,0.50637
613.432,66.90343,-3.51106,0.01195748,0.50512
616.032,67.16444,-3.51341,0.01968027,0.50388
618.632,67.4256,-3.51369,0.01895097,0.50264
621.232,67.68584,-3.51237,0.02600392,0.5014
623.832,67.9465,-3.51369,0.02909226,0.50017
626.432,68.20786,-3.51368,0.03151589,0.49895
629.032,68.46943,-3.515,0.03985997,0.49773
631.632,68.73153,-3.51479,0.05033161,0.49651
634.232,68.99302,-3.515,0.05089585,0.4953
636.832,69.25514,-3.51632,0.0541938,0.4941
639.432,69.51708,-3.51631,0.0594352,0.4929
642.032,69.77886,-3.5191,0.06036458,0.4917
644.132,69.9912,-3.51645,0.06477577,0.49074