Folder: fsri_materials_database/01_Data/Cotton_Shirt/STA/N2/10K_min

Note: 01_Data/README.md
# Materials and Products Database
## 01_Data

Raw data generated from each apparatus are included here in plain-text format. The data is organized first by material, next by the short name of test apparatus used, and where applicable additional filtering by test settings.

### material.json

Each material directory contains a json file of the same name as the material. This file links the data stored in the repository as well as data and graphs produced by the accompanying scripts (__02_Scripts__) to the respective landing page for the material on the front-end website.

File: Cotton_Shirt_STA_N2_10KData_21237_R1.csv
##Temp./Â°C,Time/min,Mass loss(subtr.2)/mg,DSC(subtr.2)/(mW/mg),Sensit./(uV/mW)
49.474,10.00917,-0.02172,0.0291065,0.6184
52.174,12.30432,-0.01949153,0.06797446,0.61982
54.874,12.95102,-0.02102484,0.09099781,0.62122
57.574,13.468,-0.02139315,0.10565,0.6226
60.274,13.92518,-0.02102311,0.11794,0.62395
62.974,14.34503,-0.02210913,0.13373,0.62527
65.674,14.739,-0.02446015,0.1407,0.62657
68.374,15.1122,-0.0238943,0.1552,0.62784
71.074,15.46866,-0.02681299,0.16901,0.62909
73.774,15.8103,-0.0289703,0.18061,0.63031
76.474,16.14141,-0.03144142,0.19042,0.63151
79.174,16.46282,-0.03268079,0.19494,0.63268
81.874,16.77563,-0.03412672,0.20181,0.63382
84.574,17.08036,-0.03664998,0.20586,0.63494
87.274,17.37827,-0.03791619,0.21035,0.63604
89.974,17.67015,-0.03984127,0.2119,0.6371
92.674,17.9576,-0.04245316,0.21419,0.63815
95.374,18.23955,-0.04245974,0.20579,0.63916
98.074,18.51773,-0.04509644,0.20337,0.64015
100.774,18.79339,-0.04473611,0.1967,0.64112
103.474,19.06619,-0.04557579,0.18823,0.64206
106.174,19.33683,-0.04507682,0.17895,0.64297
108.874,19.6049,-0.04640958,0.17588,0.64386
111.574,19.87104,-0.04706132,0.16925,0.64473
114.274,20.1356,-0.04605108,0.16663,0.64556
116.974,20.39911,-0.04673998,0.16423,0.64638
119.674,20.66088,-0.04706011,0.15914,0.64716
122.374,20.9202,-0.04684292,0.15677,0.64792
125.074,21.17969,-0.04607719,0.15867,0.64866
127.774,21.43655,-0.0473968,0.16179,0.64937
130.474,21.6918,-0.04477619,0.16103,0.65006
133.174,21.94562,-0.04475,0.16147,0.65072
135.874,22.1984,-0.04607998,0.16156,0.65135
138.574,22.4495,-0.04476125,0.16343,0.65196
141.274,22.69906,-0.04574999,0.15954,0.65254
143.974,22.94807,-0.04607023,0.16469,0.6531
146.674,23.19576,-0.04574013,0.16271,0.65364
149.374,23.44294,-0.04609789,0.16495,0.65415
152.074,23.68955,-0.04540957,0.1604,0.65463
154.774,23.93489,-0.04580103,0.16041,0.65509
157.474,24.18073,-0.04575,0.15577,0.65553
160.174,24.42567,-0.04542127,0.15766,0.65594
162.874,24.6697,-0.04573801,0.15928,0.65632
165.574,24.91555,-0.04442998,0.16148,0.65668
168.274,25.16028,-0.04573608,0.16784,0.65702
170.974,25.40419,-0.04443001,0.16933,0.65733
173.674,25.64787,-0.04442728,0.17509,0.65762
176.374,25.89151,-0.04573994,0.18494,0.65788
179.074,26.13457,-0.04447626,0.18457,0.65812
181.774,26.37711,-0.04576114,0.18989,0.65834
184.474,26.61903,-0.04574015,0.19009,0.65853
187.174,26.86065,-0.0450867,0.19563,0.6587
189.874,27.10158,-0.04574911,0.20576,0.65884
192.574,27.34228,-0.04443,0.20998,0.65897
195.274,27.58329,-0.04440186,0.21523,0.65906
197.974,27.82364,-0.04329443,0.21807,0.65914
200.674,28.0645,-0.04084589,0.22334,0.65919
203.374,28.30475,-0.04399066,0.22005,0.65922
206.074,28.54522,-0.04458513,0.223,0.65922
208.774,28.78568,-0.04464736,0.2233,0.65921
211.474,29.02593,-0.04599566,0.22609,0.65917
214.174,29.26653,-0.04597005,0.22796,0.6591
216.874,29.50678,-0.04728196,0.22798,0.65902
219.574,29.7478,-0.04597879,0.2277,0.65891
222.274,29.9885,-0.04727995,0.22724,0.65878
224.974,30.22935,-0.04694999,0.22608,0.65863
227.674,30.46987,-0.04826006,0.22691,0.65846
230.374,30.7109,-0.04991003,0.22905,0.65826
233.074,30.95148,-0.0512299,0.23243,0.65805
235.774,31.1924,-0.05228217,0.23221,0.65781
238.474,31.4335,-0.05387,0.23235,0.65755
241.174,31.6742,-0.05779635,0.23775,0.65727
243.874,31.9154,-0.0604474,0.23809,0.65697
246.574,32.15602,-0.06328874,0.23767,0.65665
249.274,32.39817,-0.06593006,0.23827,0.65631
251.974,32.63949,-0.0685615,0.23759,0.65595
254.674,32.88109,-0.07546877,0.24281,0.65556
257.374,33.12285,-0.08011164,0.24703,0.65516
260.074,33.3639,-0.08613664,0.24878,0.65474
262.774,33.60565,-0.09430355,0.25623,0.6543
265.474,33.847,-0.10164,0.25744,0.65384
268.174,34.0885,-0.10997,0.26917,0.65336
270.874,34.3303,-0.12007,0.27808,0.65286
273.574,34.57247,-0.13198,0.28777,0.65234
276.274,34.8147,-0.14062,0.29197,0.6518
278.974,35.05737,-0.15531,0.3011,0.65124
281.674,35.29954,-0.16796,0.30851,0.65067
284.374,35.54242,-0.18121,0.31868,0.65007
287.074,35.78521,-0.19662,0.32782,0.64946
289.774,36.02859,-0.21592,0.33817,0.64883
292.474,36.27173,-0.23428,0.347,0.64819
295.174,36.5154,-0.25433,0.36287,0.64752
297.874,36.75922,-0.27565,0.37535,0.64684
300.574,37.00329,-0.30287,0.39194,0.64614
303.274,37.248,-0.3303,0.40634,0.64543
305.974,37.4931,-0.35976,0.42502,0.64469
308.674,37.7378,-0.39199,0.44518,0.64394
311.374,37.98278,-0.42707,0.46775,0.64318
314.074,38.2279,-0.46955,0.49331,0.6424
316.774,38.4732,-0.51197,0.52211,0.6416
319.474,38.7183,-0.5606,0.55842,0.64079
322.174,38.96306,-0.61501,0.60117,0.63996
324.874,39.2095,-0.6749,0.65103,0.63912
327.574,39.45537,-0.74337,0.71437,0.63826
330.274,39.70213,-0.82156,0.7879,0.63739
332.974,39.94834,-0.90709,0.87301,0.6365
335.674,40.19498,-1.00801,0.97439,0.6356
338.374,40.44229,-1.12268,1.09241,0.63468
341.074,40.69005,-1.2495,1.2186,0.63375
343.774,40.93845,-1.39826,1.34907,0.6328
346.474,41.18694,-1.55994,1.47324,0.63185
349.174,41.43615,-1.73989,1.57598,0.63088
351.874,41.68526,-1.93199,1.63475,0.62989
354.574,41.93508,-2.12393,1.63851,0.62889
357.274,42.18459,-2.31301,1.5641,0.62788
359.974,42.43372,-2.48911,1.4191,0.62686
362.674,42.6825,-2.64344,1.20247,0.62583
365.374,42.9308,-2.76657,0.94147,0.62478
368.074,43.1792,-2.86107,0.68012,0.62372
370.774,43.42754,-2.93106,0.4603,0.62265
373.474,43.67627,-2.9758,0.2985,0.62157
376.174,43.92487,-3.00699,0.16673,0.62048
378.874,44.17455,-3.02687,0.0797307,0.61937
381.574,44.42399,-3.03848,0.03128391,0.61826
384.274,44.67405,-3.04646,0.002502692,0.61713
386.974,44.92451,-3.05082,-0.01183287,0.616
389.674,45.17584,-3.05521,-0.01873592,0.61485
392.374,45.42711,-3.06043,-0.02035261,0.6137
395.074,45.67895,-3.06321,-0.02768371,0.61253
397.774,45.93067,-3.06853,-0.0224986,0.61136
400.474,46.1831,-3.07233,-0.02864184,0.61018
403.174,46.43593,-3.07376,-0.02939054,0.60898
405.874,46.68886,-3.07736,-0.02626628,0.60778
408.574,46.94228,-3.08175,-0.02505113,0.60657
411.274,47.19604,-3.08402,-0.02606495,0.60535
413.974,47.4505,-3.08657,-0.03123011,0.60413
416.674,47.70513,-3.08974,-0.02551697,0.60289
419.374,47.96024,-3.09415,-0.02316039,0.60165
422.074,48.21532,-3.09751,-0.02676409,0.6004
424.774,48.47054,-3.10093,-0.03192287,0.59915
427.474,48.72625,-3.10281,-0.03116303,0.59788
430.174,48.98169,-3.10545,-0.0320216,0.59661
432.874,49.23707,-3.10872,-0.03445873,0.59534
435.574,49.49395,-3.11261,-0.03673176,0.59405
438.274,49.75007,-3.11465,-0.03728012,0.59276
440.974,50.00679,-3.11864,-0.03634923,0.59147
443.674,50.26357,-3.12093,-0.03455054,0.59017
446.374,50.52101,-3.12309,-0.03529241,0.58886
449.074,50.77892,-3.12594,-0.03451768,0.58755
451.774,51.03632,-3.12727,-0.0355072,0.58623
454.474,51.29442,-3.1299,-0.03502074,0.58491
457.174,51.55213,-3.13255,-0.04012111,0.58359
459.874,51.80989,-3.13873,-0.04068724,0.58225
462.574,52.0681,-3.13747,-0.03687622,0.58092
465.274,52.32656,-3.1401,-0.03236453,0.57958
467.974,52.58562,-3.14405,-0.02942204,0.57824
470.674,52.84519,-3.14404,-0.03077183,0.57689
473.374,53.1048,-3.1469,-0.02516781,0.57554
476.074,53.36472,-3.1521,-0.02440731,0.57418
478.774,53.6253,-3.15216,-0.02549921,0.57283
481.474,53.8866,-3.1548,-0.02039585,0.57147
484.174,54.14745,-3.15743,-0.02486892,0.57011
486.874,54.4084,-3.15875,-0.02206537,0.56874
489.574,54.67031,-3.15875,-0.02486094,0.56737
492.274,54.9314,-3.16274,-0.02614618,0.566
494.974,55.1929,-3.1653,-0.02524127,0.56463
497.674,55.45548,-3.16532,-0.02235279,0.56326
500.374,55.71728,-3.16763,-0.01531164,0.56189
503.074,55.97976,-3.16796,-0.01532079,0.56051
505.774,56.2425,-3.16894,-0.01931812,0.55913
508.474,56.50513,-3.17031,-0.01628574,0.55775
511.174,56.7684,-3.17123,-0.02117553,0.55638
513.874,57.0312,-3.17454,-0.02001892,0.555
516.574,57.2946,-3.17587,-0.01683443,0.55362
519.274,57.55806,-3.1771,-0.02687246,0.55224
521.974,57.8224,-3.17849,-0.0233716,0.55085
524.674,58.0868,-3.17716,-0.02796283,0.54947
527.374,58.35145,-3.1811,-0.02604597,0.54809
530.074,58.61558,-3.18112,-0.02873733,0.54671
532.774,58.88029,-3.18287,-0.02960665,0.54534
535.474,59.1452,-3.18288,-0.02430519,0.54396
538.174,59.4106,-3.18294,-0.02732574,0.54258
540.874,59.67559,-3.18672,-0.02783475,0.5412
543.574,59.9412,-3.18742,-0.03022971,0.53983
546.274,60.2067,-3.18878,-0.03012358,0.53845
548.974,60.472,-3.18869,-0.03564946,0.53708
551.674,60.7373,-3.1887,-0.03280621,0.53571
554.374,61.00317,-3.19097,-0.03410454,0.53434
557.074,61.2697,-3.191,-0.02998548,0.53297
559.774,61.5362,-3.1919,-0.02473714,0.53161
562.474,61.80276,-3.19317,-0.03011646,0.53024
565.174,62.06975,-3.19385,-0.030043,0.52888
567.874,62.33724,-3.1945,-0.02411692,0.52753
570.574,62.6053,-3.19681,-0.0210173,0.52617
573.274,62.8732,-3.19883,-0.0170429,0.52482
575.974,63.1415,-3.1953,-0.02054088,0.52347
578.674,63.4097,-3.19922,-0.01049361,0.52212
581.374,63.6784,-3.19922,-0.009077242,0.52078
584.074,63.9475,-3.20054,-0.008366968,0.51944
586.774,64.21616,-3.20054,-0.007592595,0.5181
589.474,64.48559,-3.20185,-0.00395503,0.51677
592.174,64.75415,-3.20184,-0.00916928,0.51544
594.874,65.02282,-3.20314,-0.00535032,0.51412
597.574,65.2924,-3.20219,-0.001083023,0.5128
600.274,65.56225,-3.20349,0.004127876,0.51148
602.974,65.8323,-3.20494,0.008256154,0.51017
605.674,66.1027,-3.2046,0.0127127,0.50886
608.374,66.37324,-3.20491,0.01430549,0.50755
611.074,66.6433,-3.20631,0.01584767,0.50625
613.774,66.91368,-3.2069,0.01118555,0.50496
616.474,67.18494,-3.20591,0.02753465,0.50367
619.174,67.45614,-3.2079,0.03012436,0.50238
621.874,67.72754,-3.21641,0.03584186,0.5011
624.574,67.99869,-3.19137,0.04874833,0.49982
627.274,68.27,-3.20821,0.05189249,0.49855
629.974,68.54172,-3.20954,0.05385711,0.49729
632.674,68.81393,-3.20823,0.05832222,0.49603
635.374,69.08532,-3.20855,0.06420106,0.49477
638.074,69.35792,-3.20986,0.06482877,0.49352
640.774,69.6301,-3.21118,0.0626451,0.49228
643.474,69.90225,-3.21075,0.07290378,0.49104
644.374,69.9928,-3.21346,0.07246858,0.49063

File: Cotton_Shirt_STA_N2_10KData_21237_R2.csv
##Temp./Â°C,Time/min,Mass loss(subtr.2)/mg,DSC(subtr.2)/(mW/mg),Sensit./(uV/mW)
49.387,10.00917,-0.03938,0.02773512,0.61835
51.887,12.23584,-0.04189997,0.09213933,0.61967
54.387,12.85706,-0.04506702,0.12524,0.62097
56.887,13.3491,-0.0456387,0.14733,0.62225
59.387,13.7818,-0.0466267,0.16715,0.6235
61.887,14.1804,-0.04783404,0.18231,0.62474
64.387,14.55446,-0.04925,0.19644,0.62595
66.887,14.908,-0.05188004,0.21457,0.62714
69.387,15.24584,-0.05354394,0.23087,0.62831
71.887,15.5723,-0.0562686,0.24342,0.62946
74.387,15.8866,-0.05894945,0.25889,0.63058
76.887,16.19115,-0.06071188,0.27082,0.63169
79.387,16.48736,-0.064159,0.28206,0.63277
81.887,16.77675,-0.06821175,0.29179,0.63383
84.387,17.0595,-0.07021218,0.30349,0.63486
86.887,17.33644,-0.07217413,0.30893,0.63588
89.387,17.60732,-0.07611504,0.31524,0.63687
91.887,17.8754,-0.07942819,0.31816,0.63784
94.387,18.1384,-0.0813904,0.31807,0.63879
96.887,18.39799,-0.08401712,0.31842,0.63972
99.387,18.65423,-0.08796656,0.31527,0.64063
101.887,18.9082,-0.08925476,0.31237,0.64151
104.387,19.15931,-0.08962303,0.30567,0.64237
106.887,19.40887,-0.09227573,0.29959,0.64321
109.387,19.65719,-0.09387243,0.29429,0.64403
111.887,19.9035,-0.09455001,0.28685,0.64483
114.387,20.14864,-0.09586,0.28132,0.6456
116.887,20.3916,-0.09652,0.27613,0.64635
119.387,20.6345,-0.09556815,0.27256,0.64708
121.887,20.87426,-0.0971698,0.26764,0.64779
124.387,21.1146,-0.09709998,0.26822,0.64848
126.887,21.35247,-0.09792767,0.26976,0.64914
129.387,21.58923,-0.09586,0.2696,0.64978
131.887,21.82475,-0.09554795,0.2728,0.6504
134.387,22.0595,-0.09618589,0.27599,0.651
136.887,22.29226,-0.09685013,0.28,0.65158
139.387,22.5247,-0.09816998,0.28245,0.65214
141.887,22.75592,-0.09824016,0.28334,0.65267
144.387,22.9861,-0.09817061,0.28902,0.65319
146.887,23.2159,-0.09817243,0.29199,0.65368
149.387,23.4446,-0.09585252,0.29754,0.65415
151.887,23.67259,-0.09717742,0.29811,0.6546
154.387,23.90026,-0.09780368,0.30311,0.65503
156.887,24.12784,-0.09817004,0.30447,0.65543
159.387,24.35485,-0.09817181,0.30681,0.65582
161.887,24.58207,-0.09686001,0.307,0.65618
164.387,24.80836,-0.09717994,0.31143,0.65653
166.887,25.03513,-0.09750207,0.31459,0.65685
169.387,25.2621,-0.09805008,0.31726,0.65715
171.887,25.48796,-0.09827989,0.32252,0.65743
174.387,25.7139,-0.09861,0.31967,0.65769
176.887,25.9397,-0.09862755,0.32523,0.65793
179.387,26.1649,-0.09938095,0.32825,0.65815
181.887,26.38997,-0.09795197,0.3293,0.65835
184.387,26.6146,-0.09927,0.32938,0.65853
186.887,26.8384,-0.09926998,0.33331,0.65868
189.387,27.0613,-0.09991992,0.33468,0.65882
191.887,27.2847,-0.09926,0.33812,0.65894
194.387,27.508,-0.10025,0.34215,0.65903
196.887,27.7311,-0.09892741,0.34419,0.65911
199.387,27.95413,-0.09914779,0.34299,0.65917
201.887,28.17725,-0.09893459,0.34531,0.65921
204.387,28.40018,-0.09894,0.34427,0.65922
206.887,28.62315,-0.09893531,0.34736,0.65922
209.387,28.846,-0.09992,0.34781,0.6592
211.887,29.0686,-0.10024,0.35116,0.65916
214.387,29.29167,-0.10156,0.35092,0.6591
216.887,29.51463,-0.10157,0.35817,0.65902
219.387,29.7375,-0.1029,0.35878,0.65892
221.887,29.96015,-0.10322,0.35934,0.6588
224.387,30.1829,-0.10452,0.36442,0.65867
226.887,30.4047,-0.10453,0.36009,0.65851
229.387,30.62851,-0.10551,0.36252,0.65834
231.887,30.8511,-0.10585,0.36322,0.65815
234.387,31.074,-0.1098,0.36519,0.65794
236.887,31.29672,-0.11198,0.36813,0.65771
239.387,31.51946,-0.11309,0.36496,0.65746
241.887,31.74258,-0.11572,0.36731,0.6572
244.387,31.9656,-0.1189,0.37042,0.65691
246.887,32.18913,-0.12284,0.37104,0.65661
249.387,32.4124,-0.12811,0.37459,0.65629
251.887,32.63568,-0.13206,0.37733,0.65596
254.387,32.8594,-0.13603,0.37749,0.65561
256.887,33.08215,-0.14366,0.38083,0.65524
259.387,33.3057,-0.14923,0.38789,0.65485
261.887,33.52982,-0.15663,0.392,0.65445
264.387,33.754,-0.16513,0.39579,0.65402
266.887,33.9779,-0.17516,0.39988,0.65359
269.387,34.20213,-0.18557,0.4069,0.65313
271.887,34.42603,-0.19707,0.41135,0.65266
274.387,34.65035,-0.20721,0.41643,0.65218
276.887,34.87425,-0.22067,0.42501,0.65167
279.387,35.09956,-0.23375,0.42731,0.65115
281.887,35.324,-0.24952,0.43716,0.65062
284.387,35.5488,-0.26556,0.44308,0.65007
286.887,35.77368,-0.28381,0.45212,0.6495
289.387,35.99946,-0.30407,0.46115,0.64892
291.887,36.2248,-0.32599,0.47091,0.64833
294.387,36.45089,-0.35013,0.48315,0.64772
296.887,36.67698,-0.37506,0.4951,0.64709
299.387,36.90312,-0.40419,0.50643,0.64645
301.887,37.12957,-0.43532,0.52049,0.6458
304.387,37.356,-0.46716,0.53573,0.64513
306.887,37.5827,-0.50296,0.55478,0.64444
309.387,37.80945,-0.54212,0.57143,0.64374
311.887,38.03633,-0.58784,0.59655,0.64303
314.387,38.26328,-0.63396,0.61945,0.64231
316.887,38.49137,-0.68666,0.6483,0.64157
319.387,38.71847,-0.74463,0.68425,0.64082
321.887,38.94624,-0.80771,0.72149,0.64005
324.387,39.17396,-0.88096,0.77178,0.63927
326.887,39.4017,-0.96159,0.82815,0.63848
329.387,39.62973,-1.05226,0.89831,0.63767
331.887,39.85726,-1.15357,0.9771,0.63686
334.387,40.08639,-1.27153,1.06774,0.63603
336.887,40.31547,-1.40515,1.17298,0.63519
339.387,40.54506,-1.55594,1.28027,0.63433
341.887,40.77515,-1.72309,1.39202,0.63347
344.387,41.00582,-1.91214,1.49781,0.63259
346.887,41.23686,-2.11984,1.58755,0.6317
349.387,41.46795,-2.34216,1.65001,0.6308
351.887,41.6991,-2.56928,1.67638,0.62989
354.387,41.9298,-2.79733,1.65433,0.62896
356.887,42.16106,-3.02191,1.57316,0.62803
359.387,42.39161,-3.22593,1.4362,0.62708
361.887,42.6217,-3.40097,1.24264,0.62613
364.387,42.8519,-3.54538,1.01931,0.62516
366.887,43.08116,-3.65629,0.80757,0.62419
369.387,43.31091,-3.74019,0.62134,0.6232
371.887,43.54056,-3.80162,0.47555,0.62221
374.387,43.77053,-3.84339,0.36545,0.6212
376.887,44.00022,-3.87322,0.27971,0.62019
379.387,44.23079,-3.89036,0.22395,0.61916
381.887,44.4616,-3.89986,0.19001,0.61813
384.387,44.69285,-3.90976,0.17065,0.61709
386.887,44.9248,-3.91762,0.15837,0.61604
389.387,45.1578,-3.92212,0.15282,0.61498
391.887,45.39071,-3.9303,0.1507,0.61391
394.387,45.624,-3.93306,0.14871,0.61283
396.887,45.85719,-3.93719,0.14818,0.61175
399.387,46.09075,-3.93982,0.14672,0.61065
401.887,46.3247,-3.94408,0.14542,0.60955
404.387,46.55878,-3.94826,0.14334,0.60844
406.887,46.79355,-3.95221,0.14303,0.60733
409.387,47.02848,-3.95704,0.13873,0.60621
411.887,47.26422,-3.95943,0.14158,0.60508
414.387,47.49981,-3.96472,0.1422,0.60394
416.887,47.735,-3.96714,0.13913,0.6028
419.387,47.97092,-3.97236,0.13978,0.60165
421.887,48.20688,-3.97518,0.13685,0.60049
424.387,48.4428,-3.97908,0.13881,0.59933
426.887,48.67954,-3.98207,0.13958,0.59816
429.387,48.91652,-3.98566,0.13812,0.59698
431.887,49.15399,-3.99014,0.14003,0.5958
434.387,49.39087,-3.99324,0.13609,0.59462
436.887,49.6286,-3.99812,0.13635,0.59343
439.387,49.86639,-4.00114,0.13754,0.59223
441.887,50.1042,-4.00388,0.13388,0.59103
444.387,50.3419,-4.00936,0.13656,0.58982
446.887,50.58005,-4.01259,0.1366,0.58861
449.387,50.81785,-4.01528,0.13805,0.5874
451.887,51.05686,-4.0167,0.14029,0.58618
454.387,51.29625,-4.02038,0.14026,0.58495
456.887,51.53563,-4.02438,0.14057,0.58373
459.387,51.77507,-4.02837,0.13982,0.58249
461.887,52.01406,-4.03096,0.14335,0.58126
464.387,52.25411,-4.03361,0.13962,0.58002
466.887,52.4938,-4.03622,0.14066,0.57878
469.387,52.7335,-4.03952,0.14087,0.57753
471.887,52.97314,-4.04281,0.14037,0.57628
474.387,53.2142,-4.0455,0.14305,0.57503
476.887,53.45522,-4.04671,0.14448,0.57378
479.387,53.6963,-4.04953,0.14762,0.57252
481.887,53.93735,-4.05062,0.14857,0.57126
484.387,54.1785,-4.05465,0.15329,0.57
486.887,54.42001,-4.05729,0.15569,0.56873
489.387,54.66143,-4.05869,0.15897,0.56747
491.887,54.90361,-4.06003,0.16248,0.5662
494.387,55.1459,-4.06305,0.15728,0.56493
496.887,55.3886,-4.0653,0.16573,0.56366
499.387,55.63145,-4.06562,0.16472,0.56239
501.887,55.87444,-4.0693,0.1658,0.56111
504.387,56.1176,-4.07008,0.16589,0.55984
506.887,56.3609,-4.07087,0.16597,0.55856
509.387,56.6041,-4.07352,0.16231,0.55729
511.887,56.84701,-4.07485,0.16037,0.55601
514.387,57.09019,-4.07722,0.1606,0.55473
516.887,57.33374,-4.07876,0.15713,0.55346
519.387,57.57813,-4.08084,0.1555,0.55218
521.887,57.8226,-4.08044,0.15333,0.5509
524.387,58.06666,-4.08438,0.15267,0.54962
526.887,58.3118,-4.08406,0.14636,0.54834
529.387,58.55718,-4.08537,0.14511,0.54707
531.887,58.80262,-4.08685,0.14934,0.54579
534.387,59.048,-4.088,0.14667,0.54451
536.887,59.2933,-4.08989,0.14423,0.54324
539.387,59.53849,-4.09074,0.14234,0.54196
541.887,59.78405,-4.09239,0.13976,0.54069
544.387,60.02966,-4.09305,0.13646,0.53941
546.887,60.2758,-4.09437,0.13373,0.53814
549.387,60.5219,-4.09535,0.13486,0.53687
551.887,60.7678,-4.09706,0.13769,0.5356
554.387,61.0146,-4.09563,0.13335,0.53433
556.887,61.2615,-4.09832,0.13041,0.53307
559.387,61.509,-4.10127,0.132,0.5318
561.887,61.7562,-4.10162,0.1342,0.53054
564.387,62.004,-4.10257,0.13813,0.52928
566.887,62.25249,-4.10389,0.13893,0.52802
569.387,62.49977,-4.10358,0.13823,0.52677
571.887,62.748,-4.1049,0.13617,0.52551
574.387,62.9956,-4.10368,0.13945,0.52426
576.887,63.2434,-4.10621,0.14052,0.52301
579.387,63.49221,-4.1062,0.14653,0.52177
581.887,63.74038,-4.10884,0.1459,0.52053
584.387,63.98904,-4.10852,0.15031,0.51929
586.887,64.23786,-4.10983,0.15075,0.51805
589.387,64.4867,-4.11016,0.1541,0.51681
591.887,64.73578,-4.10983,0.16025,0.51558
594.387,64.98525,-4.11049,0.16497,0.51436
596.887,65.2342,-4.11443,0.16552,0.51313
599.387,65.48391,-4.11509,0.16615,0.51191
601.887,65.73358,-4.11378,0.16848,0.51069
604.387,65.98321,-4.11476,0.17335,0.50948
606.887,66.23359,-4.11608,0.17242,0.50827
609.387,66.4837,-4.11476,0.18295,0.50706
611.887,66.73422,-4.11751,0.18457,0.50586
614.387,66.98439,-4.11619,0.19176,0.50466
616.887,67.235,-4.11619,0.19785,0.50347
619.387,67.48567,-4.11762,0.20425,0.50228
621.887,67.73623,-4.12034,0.20545,0.50109
624.387,67.98764,-4.1209,0.2129,0.49991
626.887,68.23833,-4.12091,0.21757,0.49874
629.387,68.49001,-4.11959,0.21885,0.49756
631.887,68.74129,-4.11856,0.22179,0.49639
634.387,68.99314,-4.12297,0.22331,0.49523
636.887,69.24548,-4.12235,0.22497,0.49407
639.387,69.49706,-4.12235,0.23546,0.49292
641.887,69.74925,-4.12497,0.23632,0.49177
644.287,69.99169,-4.12233,0.24263,0.49067