Folder: fsri_materials_database/01_Data/Cotton_Shirt/STA/N2/30K_min (part 2)

File: Cotton_Shirt_STA_N2_30KData_21297_R3.csv
##Temp./Â°C,Time/min,DSC(subtr.2)/(mW/mg),Mass loss(subtr.2)/mg,Sensit./(uV/mW)
50.559,10.01,-0.00214136,-0.04596,0.6235
53.459,11.554,0.08267577,-0.05062628,0.62347
56.359,11.90219,0.14391,-0.05124883,0.62342
59.259,12.15542,0.196,-0.05284944,0.62336
62.159,12.36609,0.2405,-0.05324223,0.62329
65.059,12.55451,0.28347,-0.05718141,0.6232
67.959,12.72659,0.32487,-0.0556626,0.6231
70.859,12.88954,0.36233,-0.0572778,0.62299
73.759,13.04466,0.40211,-0.05924291,0.62287
76.659,13.1936,0.43439,-0.06069988,0.62273
79.559,13.33845,0.46496,-0.06418989,0.62258
82.459,13.47879,0.49505,-0.06658025,0.62242
85.359,13.6153,0.52808,-0.0681383,0.62225
88.259,13.7482,0.55596,-0.07107676,0.62207
91.159,13.87762,0.58339,-0.07394984,0.62187
94.059,14.0038,0.60178,-0.0780811,0.62166
96.959,14.1271,0.62004,-0.07809127,0.62144
99.859,14.24751,0.63131,-0.08175081,0.62121
102.759,14.3645,0.65402,-0.08478991,0.62096
105.659,14.48055,0.66225,-0.08702543,0.62071
108.559,14.59379,0.66543,-0.08896137,0.62044
111.459,14.7048,0.6661,-0.09142209,0.62016
114.359,14.81424,0.65613,-0.09431585,0.61987
117.259,14.9216,0.6543,-0.095717,0.61957
120.159,15.0271,0.65806,-0.09815314,0.61926
123.059,15.13114,0.65076,-0.09838314,0.61893
125.959,15.2336,0.64337,-0.09975152,0.6186
128.859,15.33421,0.63952,-0.09970686,0.61825
131.759,15.4337,0.62709,-0.09968772,0.61789
134.659,15.5318,0.62549,-0.09970741,0.61752
137.559,15.6288,0.62392,-0.10102,0.61714
140.459,15.7247,0.62741,-0.10366,0.61675
143.359,15.8195,0.63267,-0.10233,0.61635
146.259,15.91342,0.64107,-0.10201,0.61594
149.159,16.00628,0.64303,-0.10101,0.61552
152.059,16.0985,0.65279,-0.10206,0.61508
154.959,16.18996,0.66284,-0.10233,0.61464
157.859,16.28085,0.6662,-0.10362,0.61419
160.759,16.37102,0.67974,-0.10235,0.61372
163.659,16.46084,0.68863,-0.10364,0.61325
166.559,16.54985,0.69727,-0.10334,0.61276
169.459,16.6384,0.70892,-0.10366,0.61227
172.359,16.72661,0.71379,-0.10366,0.61177
175.259,16.81429,0.72995,-0.10344,0.61125
178.159,16.90145,0.74063,-0.10503,0.61073
181.059,16.98793,0.74878,-0.10496,0.6102
183.959,17.0737,0.76059,-0.10405,0.60965
186.859,17.15924,0.7703,-0.10366,0.6091
189.759,17.2443,0.78282,-0.10445,0.60854
192.659,17.3288,0.80273,-0.10628,0.60797
195.559,17.41287,0.81039,-0.1076,0.60739
198.459,17.49651,0.82811,-0.1076,0.6068
201.359,17.58001,0.83222,-0.10662,0.6062
204.259,17.66307,0.8331,-0.10664,0.60559
207.159,17.7459,0.8376,-0.10926,0.60498
210.059,17.82836,0.84866,-0.10834,0.60435
212.959,17.91064,0.8538,-0.10787,0.60372
215.859,17.9926,0.86389,-0.10695,0.60308
218.759,18.07462,0.87072,-0.10835,0.60243
221.659,18.15609,0.86667,-0.10966,0.60177
224.559,18.2374,0.86824,-0.10958,0.6011
227.459,18.31849,0.87278,-0.11093,0.60043
230.359,18.39959,0.88055,-0.10958,0.59974
233.259,18.48029,0.88514,-0.1109,0.59905
236.159,18.56089,0.89043,-0.1122,0.59835
239.059,18.64153,0.88744,-0.11221,0.59764
241.959,18.7218,0.88961,-0.1122,0.59693
244.859,18.80189,0.89116,-0.11616,0.5962
247.759,18.8818,0.9023,-0.11692,0.59547
250.659,18.9619,0.90308,-0.11693,0.59473
253.559,19.04164,0.9104,-0.11977,0.59399
256.459,19.12151,0.9041,-0.12211,0.59324
259.359,19.20097,0.9079,-0.12529,0.59247
262.259,19.28047,0.91766,-0.12915,0.59171
265.159,19.35995,0.93085,-0.13272,0.59093
268.059,19.43939,0.95388,-0.13912,0.59015
270.959,19.5187,0.96102,-0.14274,0.58936
273.859,19.59808,0.95932,-0.14787,0.58857
276.759,19.6773,0.96727,-0.15551,0.58777
279.659,19.75677,0.98141,-0.16165,0.58696
282.559,19.83598,1.00214,-0.17101,0.58614
285.459,19.91512,1.02276,-0.17974,0.58532
288.359,19.99456,1.04284,-0.18879,0.58449
291.259,20.0738,1.06166,-0.20099,0.58366
294.159,20.15314,1.09478,-0.21141,0.58282
297.059,20.2325,1.1105,-0.22344,0.58197
299.959,20.31192,1.12846,-0.2365,0.58112
302.859,20.39133,1.14737,-0.25189,0.58026
305.759,20.4704,1.17336,-0.26948,0.5794
308.659,20.55,1.21193,-0.28989,0.57853
311.559,20.6294,1.25536,-0.30796,0.57766
314.459,20.70852,1.29742,-0.33183,0.57677
317.359,20.78816,1.33894,-0.35619,0.57589
320.259,20.86765,1.38527,-0.38447,0.575
323.159,20.94714,1.43366,-0.41431,0.5741
326.059,21.0267,1.49635,-0.44754,0.5732
328.959,21.10625,1.56202,-0.48432,0.57229
331.859,21.1858,1.64013,-0.52494,0.57138
334.759,21.2656,1.72285,-0.56982,0.57047
337.659,21.34525,1.83311,-0.622,0.56954
340.559,21.42523,1.95987,-0.67965,0.56862
343.459,21.50529,2.1144,-0.74565,0.56769
346.359,21.58515,2.30234,-0.8191,0.56675
349.259,21.6653,2.52581,-0.90238,0.56581
352.159,21.74543,2.7977,-0.99813,0.56487
355.059,21.8257,3.11114,-1.10863,0.56392
357.959,21.90597,3.47328,-1.23397,0.56297
360.859,21.98635,3.85458,-1.37832,0.56201
363.759,22.0669,4.24205,-1.53917,0.56105
366.659,22.14774,4.59186,-1.71771,0.56009
369.559,22.22869,4.85389,-1.91006,0.55912
372.459,22.30989,4.98914,-2.12774,0.55815
375.359,22.39147,4.97388,-2.33447,0.55718
378.259,22.47315,4.77127,-2.53865,0.5562
381.159,22.55499,4.38656,-2.72453,0.55522
384.059,22.6369,3.83481,-2.87875,0.55423
386.959,22.71875,3.1628,-3.01514,0.55324
389.859,22.80088,2.4582,-3.12013,0.55225
392.759,22.88317,1.79347,-3.19593,0.55126
395.659,22.96529,1.22651,-3.2497,0.55026
398.559,23.04745,0.7613,-3.28564,0.54926
401.459,23.1295,0.42537,-3.30836,0.54825
404.359,23.2117,0.20377,-3.32371,0.54725
407.259,23.29392,0.06329827,-3.33123,0.54624
410.159,23.37613,-0.01586571,-3.33728,0.54523
413.059,23.45872,-0.06090444,-3.3388,0.54421
415.959,23.54124,-0.0850164,-3.34406,0.5432
418.859,23.6241,-0.10059,-3.34881,0.54218
421.759,23.70729,-0.11509,-3.35158,0.54116
424.659,23.7904,-0.12184,-3.35597,0.54013
427.559,23.8739,-0.13394,-3.35893,0.53911
430.459,23.95748,-0.14373,-3.36339,0.53808
433.359,24.04117,-0.14831,-3.36428,0.53705
436.259,24.12493,-0.15592,-3.36906,0.53602
439.159,24.20895,-0.1664,-3.37382,0.53499
442.059,24.29319,-0.17057,-3.37667,0.53395
444.959,24.37764,-0.17705,-3.37929,0.53292
447.859,24.46225,-0.18054,-3.3839,0.53188
450.759,24.54678,-0.18458,-3.38829,0.53084
453.659,24.6316,-0.18816,-3.39008,0.5298
456.559,24.71667,-0.19643,-3.39322,0.52876
459.459,24.80188,-0.19777,-3.39586,0.52771
462.359,24.88727,-0.20255,-3.39935,0.52667
465.259,24.97276,-0.20921,-3.40029,0.52563
468.159,25.05845,-0.21378,-3.40316,0.52458
471.059,25.14444,-0.21946,-3.40727,0.52353
473.959,25.23049,-0.226,-3.41047,0.52248
476.859,25.31654,-0.23263,-3.41461,0.52143
479.759,25.40294,-0.242,-3.41691,0.52039
482.659,25.48929,-0.25143,-3.41859,0.51934
485.559,25.57612,-0.25827,-3.42123,0.51828
488.459,25.66284,-0.26529,-3.42544,0.51723
491.359,25.74986,-0.2716,-3.42813,0.51618
494.259,25.83701,-0.27511,-3.4309,0.51513
497.159,25.92409,-0.27789,-3.43358,0.51408
500.059,26.0116,-0.28205,-3.43501,0.51302
502.959,26.09907,-0.28483,-3.43771,0.51197
505.859,26.18688,-0.28971,-3.4406,0.51092
508.759,26.2748,-0.29257,-3.44196,0.50987
511.659,26.363,-0.29336,-3.44419,0.50881
514.559,26.451,-0.29632,-3.44576,0.50776
517.459,26.5395,-0.30043,-3.44827,0.50671
520.359,26.62787,-0.30189,-3.44895,0.50566
523.259,26.7166,-0.30361,-3.4504,0.5046
526.159,26.80528,-0.30832,-3.45411,0.50355
529.059,26.89422,-0.31455,-3.45435,0.5025
531.959,26.98335,-0.31135,-3.45577,0.50145
534.859,27.0726,-0.31762,-3.45768,0.5004
537.759,27.1619,-0.32319,-3.45973,0.49935
540.659,27.25133,-0.32554,-3.46102,0.4983
543.559,27.34098,-0.32798,-3.46235,0.49725
546.459,27.43075,-0.32985,-3.4648,0.49621
549.359,27.52052,-0.33846,-3.46608,0.49516
552.259,27.61063,-0.33484,-3.46607,0.49411
555.159,27.70086,-0.33975,-3.46739,0.49307
558.059,27.79096,-0.34623,-3.46773,0.49203
560.959,27.88127,-0.3416,-3.47036,0.49098
563.859,27.9719,-0.3461,-3.47168,0.48994
566.759,28.0623,-0.35407,-3.47282,0.4889
569.659,28.1531,-0.35527,-3.47373,0.48786
572.559,28.2439,-0.36293,-3.47528,0.48682
575.459,28.3346,-0.36877,-3.4756,0.48579
578.359,28.4258,-0.37858,-3.47705,0.48475
581.259,28.517,-0.38465,-3.47836,0.48372
584.159,28.6083,-0.38905,-3.47969,0.48269
587.059,28.69949,-0.39704,-3.4787,0.48166
589.959,28.79099,-0.3917,-3.48009,0.48063
592.859,28.8825,-0.39541,-3.48133,0.4796
595.759,28.974,-0.39778,-3.48124,0.47857
598.659,29.06567,-0.40018,-3.48698,0.47755
601.559,29.1573,-0.40088,-3.48216,0.47653
604.459,29.2492,-0.40973,-3.48445,0.47551
607.359,29.3412,-0.39964,-3.48549,0.47449
610.259,29.43337,-0.40082,-3.48549,0.47347
613.159,29.5254,-0.40085,-3.48683,0.47245
616.059,29.6179,-0.40073,-3.48809,0.47144
618.959,29.71017,-0.40746,-3.48814,0.47043
621.859,29.8026,-0.4229,-3.48963,0.46942
624.759,29.89507,-0.42186,-3.49119,0.46842
627.659,29.98762,-0.42761,-3.49219,0.46741
630.559,30.08033,-0.42805,-3.49286,0.46641
633.459,30.17316,-0.43224,-3.49316,0.46541
636.359,30.26619,-0.43192,-3.49357,0.46441
639.259,30.35936,-0.42903,-3.49482,0.46341
642.159,30.45263,-0.42643,-3.49613,0.46242
645.059,30.546,-0.42916,-3.49482,0.46143
647.959,30.63922,-0.42977,-3.49492,0.46044
650.859,30.73283,-0.42605,-3.4978,0.45945
653.759,30.8265,-0.43105,-3.49904,0.45847
656.659,30.92016,-0.41945,-3.49767,0.45749
659.559,31.0137,-0.42749,-3.4991,0.45651
662.459,31.10763,-0.4038,-3.4991,0.45553
665.359,31.20158,-0.43697,-3.49988,0.45456
668.259,31.29567,-0.43074,-3.5004,0.45359
671.159,31.3896,-0.42952,-3.50173,0.45262
674.059,31.4838,-0.42336,-3.50172,0.45165
676.959,31.57788,-0.41638,-3.50173,0.45069
679.859,31.6722,-0.42106,-3.50308,0.44973
682.759,31.7665,-0.42064,-3.50304,0.44877
685.659,31.8612,-0.43322,-3.50302,0.44782
688.559,31.9555,-0.42798,-3.50429,0.44686
691.459,32.05037,-0.43111,-3.50438,0.44592
694.359,32.14523,-0.42891,-3.50567,0.44497
697.259,32.24005,-0.4274,-3.50436,0.44402
700.159,32.33487,-0.45629,-3.50481,0.44308
703.059,32.42965,-0.47567,-3.50568,0.44215
705.959,32.52486,-0.49814,-3.50593,0.44121
708.859,32.61996,-0.49299,-3.50765,0.44028
711.759,32.71484,-0.50607,-3.50701,0.43935
714.659,32.81026,-0.52561,-3.50897,0.43842
717.559,32.9054,-0.53827,-3.50897,0.4375
720.459,33.00065,-0.53898,-3.50897,0.43658
723.359,33.0959,-0.53266,-3.51019,0.43566
726.259,33.19138,-0.53098,-3.50962,0.43475
729.159,33.28671,-0.53707,-3.50962,0.43384
730.559,33.33311,-0.53335,-3.50962,0.4334