Folder: fsri_materials_database/01_Data/Cotton_Shirt/STA/N2/3K_min

Note: 01_Data/README.md
# Materials and Products Database
## 01_Data

Raw data generated from each apparatus are included here in plain-text format. The data is organized first by material, next by the short name of test apparatus used, and where applicable additional filtering by test settings.

### material.json

Each material directory contains a json file of the same name as the material. This file links the data stored in the repository as well as data and graphs produced by the accompanying scripts (__02_Scripts__) to the respective landing page for the material on the front-end website.

File: Cotton_Shirt_STA_N2_3KData_21267_R1.csv
##Temp./Â°C,Time/min,Mass loss(subtr.2)/mg,DSC(subtr.2)/(mW/mg),Sensit./(uV/mW)
48.873,10.01667,-0.06482,0.03180125,0.58408
51.573,13.7685,-0.07788882,0.05282682,0.58535
54.273,15.23376,-0.08182817,0.06337004,0.5866
56.973,16.4798,-0.08610115,0.07137197,0.58784
59.673,17.6064,-0.09152877,0.07630874,0.58905
62.373,18.66706,-0.0947611,0.08504835,0.59025
65.073,19.68305,-0.10135,0.08824516,0.59143
67.773,20.67078,-0.10593,0.09237579,0.59259
70.473,21.63579,-0.11133,0.09556634,0.59372
73.173,22.58399,-0.11693,0.09373002,0.59484
75.873,23.5246,-0.12153,0.09360896,0.59595
78.573,24.45564,-0.12475,0.09027176,0.59703
81.273,25.37707,-0.12886,0.08674081,0.59809
83.973,26.29397,-0.13173,0.08447956,0.59913
86.673,27.20468,-0.137,0.07743685,0.60016
89.373,28.10874,-0.13853,0.07436793,0.60116
92.073,29.00276,-0.14126,0.07248807,0.60215
94.773,29.893,-0.14258,0.06640722,0.60311
97.473,30.7789,-0.1439,0.06090793,0.60406
100.173,31.6595,-0.14525,0.0598164,0.60498
102.873,32.53734,-0.14761,0.05750988,0.60589
105.573,33.41298,-0.14766,0.05501289,0.60678
108.273,34.28696,-0.14877,0.05289361,0.60765
110.973,35.1594,-0.14605,0.05230614,0.6085
113.673,36.03315,-0.14654,0.04909413,0.60933
116.373,36.90343,-0.14647,0.05223299,0.61014
119.073,37.77377,-0.14919,0.05574768,0.61093
121.773,38.64285,-0.14873,0.05245034,0.6117
124.473,39.51063,-0.14771,0.05205817,0.61246
127.173,40.3767,-0.14776,0.05364889,0.61319
129.873,41.2414,-0.14751,0.04858517,0.6139
132.573,42.104,-0.1484,0.05548442,0.6146
135.273,42.96516,-0.14708,0.05430719,0.61527
137.973,43.8249,-0.14676,0.05604215,0.61593
140.673,44.6825,-0.14478,0.05351118,0.61656
143.373,45.54104,-0.14774,0.05593091,0.61718
146.073,46.3962,-0.14611,0.05972531,0.61778
148.773,47.25093,-0.14643,0.0625834,0.61836
151.473,48.1034,-0.14645,0.06373924,0.61891
154.173,48.9586,-0.14774,0.06757088,0.61945
156.873,49.8097,-0.14743,0.06797827,0.61997
159.573,50.66002,-0.14677,0.0651082,0.62048
162.273,51.50796,-0.14709,0.06440459,0.62096
164.973,52.35587,-0.14698,0.06560116,0.62142
167.673,53.20267,-0.14763,0.06599564,0.62186
170.373,54.04995,-0.14643,0.06931651,0.62229
173.073,54.8971,-0.14543,0.0676059,0.62269
175.773,55.7436,-0.14774,0.06560326,0.62308
178.473,56.59012,-0.14642,0.06523449,0.62345
181.173,57.4365,-0.14642,0.06303974,0.62379
183.873,58.2831,-0.14708,0.06198068,0.62412
186.573,59.13024,-0.14475,0.06346092,0.62443
189.273,59.9744,-0.14577,0.06343389,0.62472
191.973,60.81847,-0.14642,0.06303297,0.62499
194.673,61.66265,-0.14544,0.06117029,0.62525
197.373,62.50864,-0.14588,0.05851307,0.62548
200.073,63.35184,-0.14578,0.06133078,0.6257
202.773,64.19893,-0.14722,0.06293223,0.62589
205.473,65.04245,-0.1467,0.05925999,0.62607
208.173,65.88384,-0.14939,0.0588618,0.62623
210.873,66.72528,-0.14975,0.05870122,0.62637
213.573,67.56732,-0.15103,0.06119966,0.62649
216.273,68.4101,-0.15399,0.06338619,0.6266
218.973,69.25434,-0.15465,0.06573953,0.62668
221.673,70.0984,-0.15696,0.06770027,0.62675
224.373,70.9422,-0.15805,0.06478911,0.6268
227.073,71.7867,-0.16231,0.0631701,0.62683
229.773,72.62974,-0.16636,0.06084318,0.62684
232.473,73.4731,-0.17244,0.0616803,0.62683
235.173,74.3163,-0.17812,0.0629115,0.62681
237.873,75.1593,-0.18443,0.06432253,0.62676
240.573,76.00267,-0.19189,0.06585813,0.6267
243.273,76.84625,-0.19903,0.06698566,0.62662
245.973,77.6893,-0.20938,0.06691072,0.62652
248.673,78.53645,-0.21898,0.07012232,0.62641
251.373,79.38303,-0.23055,0.06986912,0.62628
254.073,80.2307,-0.24317,0.06872911,0.62613
256.773,81.0754,-0.25847,0.07378693,0.62596
259.473,81.92062,-0.27438,0.07781422,0.62577
262.173,82.76641,-0.29142,0.07462313,0.62557
264.873,83.6136,-0.30964,0.0829656,0.62535
267.573,84.45827,-0.33113,0.08284427,0.62511
270.273,85.30373,-0.35548,0.08670435,0.62485
272.973,86.1502,-0.37897,0.08823708,0.62458
275.673,86.99413,-0.40826,0.09056005,0.62429
278.373,87.83685,-0.44079,0.09551944,0.62398
281.073,88.68571,-0.47404,0.09955362,0.62366
283.773,89.53277,-0.50903,0.10445,0.62332
286.473,90.37994,-0.55034,0.10768,0.62296
289.173,91.2297,-0.59477,0.11501,0.62258
291.873,92.07944,-0.64478,0.12147,0.62219
294.573,92.92873,-0.69609,0.12919,0.62178
297.273,93.77677,-0.7571,0.13916,0.62136
299.973,94.62694,-0.82009,0.14792,0.62091
302.673,95.47822,-0.8939,0.16356,0.62046
305.373,96.32566,-0.97906,0.17864,0.61998
308.073,97.17653,-1.07025,0.20074,0.61949
310.773,98.02741,-1.17991,0.22401,0.61898
313.473,98.8802,-1.29959,0.25158,0.61846
316.173,99.7337,-1.44098,0.28546,0.61792
318.873,100.589,-1.60634,0.3236,0.61737
321.573,101.445,-1.79092,0.36439,0.6168
324.273,102.303,-2.00724,0.41222,0.61621
326.973,103.161,-2.24556,0.45129,0.61561
329.673,104.0182,-2.51096,0.48547,0.61499
332.373,104.874,-2.79005,0.49319,0.61435
335.073,105.73,-3.06844,0.47711,0.61371
337.773,106.587,-3.33031,0.41857,0.61304
340.473,107.4422,-3.55439,0.33078,0.61236
343.173,108.296,-3.7273,0.22622,0.61167
345.873,109.15,-3.85068,0.13859,0.61096
348.573,110.005,-3.9392,0.07389364,0.61023
351.273,110.863,-3.9985,0.02677084,0.60949
353.973,111.724,-4.0355,-0.00700193,0.60874
356.673,112.5818,-4.05774,-0.03155477,0.60797
359.373,113.445,-4.0589,-0.03932904,0.60719
362.073,114.306,-4.08221,-0.04611659,0.60639
364.773,115.167,-4.08832,-0.05044742,0.60558
367.473,116.031,-4.0949,-0.05247873,0.60475
370.173,116.895,-4.10061,-0.05533794,0.60391
372.873,117.762,-4.10574,-0.05502532,0.60306
375.573,118.631,-4.11135,-0.0585561,0.60219
378.273,119.5,-4.11432,-0.06253774,0.60131
380.973,120.367,-4.1186,-0.06264324,0.60041
383.673,121.234,-4.12244,-0.06117003,0.5995
386.373,122.105,-4.12802,-0.06725842,0.59858
389.073,122.976,-4.13192,-0.06928382,0.59765
391.773,123.844,-4.13456,-0.06859856,0.5967
394.473,124.714,-4.13771,-0.0660983,0.59573
397.173,125.587,-4.14294,-0.06542554,0.59476
399.873,126.462,-4.14397,-0.06740774,0.59377
402.573,127.337,-4.14551,-0.0653629,0.59277
405.273,128.211,-4.15037,-0.06538048,0.59175
407.973,129.086,-4.15018,-0.06148385,0.59073
410.673,129.962,-4.15291,-0.05001427,0.58969
413.373,130.837,-4.14628,-0.02193863,0.58863
416.073,131.714,-4.15754,-0.01367038,0.58757
418.773,132.59,-4.16049,-0.006907438,0.58649
421.473,133.465,-4.16441,-0.002313012,0.5854
424.173,134.344,-4.16645,0.009137648,0.5843
426.873,135.224,-4.17005,0.008952476,0.58319
429.573,136.103,-4.16426,0.007501321,0.58207
432.273,136.985,-4.17421,0.00928469,0.58093
434.973,137.866,-4.17715,-0.0004321255,0.57978
437.673,138.748,-4.18016,-0.001254922,0.57863
440.373,139.63,-4.18056,0.0001519538,0.57746
443.073,140.517,-4.18408,0.00717689,0.57627
445.773,141.4039,-4.18681,0.01158736,0.57508
448.473,142.287,-4.1907,0.02134658,0.57388
451.173,143.171,-4.1923,0.02315162,0.57266
453.873,144.059,-4.19626,0.03060304,0.57144
456.573,144.945,-4.19739,0.036686,0.5702
459.273,145.831,-4.19932,0.03983816,0.56896
461.973,146.719,-4.20196,0.03586844,0.5677
464.673,147.603,-4.20728,0.03812889,0.56643
467.373,148.489,-4.20623,0.04381514,0.56516
470.073,149.377,-4.20618,0.04805022,0.56387
472.773,150.268,-4.21156,0.04967831,0.56257
475.473,151.1583,-4.2128,0.04846781,0.56127
478.173,152.049,-4.21313,0.05527892,0.55995
480.873,152.938,-4.21446,0.05548798,0.55862
483.573,153.83,-4.21757,0.05434772,0.55729
486.273,154.725,-4.21823,0.05379457,0.55594
488.973,155.613,-4.22258,0.05052056,0.55459
491.673,156.504,-4.22343,0.05543588,0.55322
494.373,157.397,-4.22397,0.05672982,0.55185
497.073,158.294,-4.23156,0.05501469,0.55047
499.773,159.191,-4.22655,0.05878242,0.54908
502.473,160.084,-4.22883,0.06038659,0.54768
505.173,160.976,-4.23122,0.06450768,0.54628
507.873,161.874,-4.23109,0.06644155,0.54486
510.573,162.77,-4.23326,0.06761143,0.54344
513.273,163.668,-4.23481,0.07006217,0.542
515.973,164.568,-4.23634,0.07262369,0.54056
518.673,165.464,-4.23791,0.07077151,0.53912
521.373,166.364,-4.23826,0.07583201,0.53766
524.073,167.259,-4.23732,0.08184398,0.5362
526.773,168.161,-4.24056,0.08764479,0.53472
529.473,169.0633,-4.24262,0.08767692,0.53325
532.173,169.966,-4.24257,0.08749381,0.53176
534.873,170.866,-4.24313,0.09172951,0.53027
537.573,171.768,-4.24404,0.09065738,0.52877
540.273,172.674,-4.24704,0.09722968,0.52726
542.973,173.574,-4.24836,0.09108761,0.52574
545.673,174.478,-4.24634,0.09616599,0.52422
548.373,175.3828,-4.24824,0.10395,0.52269
551.073,176.288,-4.24927,0.10103,0.52116
553.773,177.195,-4.25029,0.10554,0.51962
556.473,178.103,-4.25253,0.10739,0.51807
559.173,179.011,-4.25285,0.10873,0.51652
561.873,179.915,-4.25384,0.1051,0.51496
564.573,180.823,-4.25443,0.11204,0.51339
567.273,181.735,-4.2569,0.11364,0.51182
569.973,182.642,-4.25647,0.11948,0.51024
572.673,183.554,-4.25809,0.11669,0.50866
575.373,184.46,-4.25824,0.12092,0.50707
578.073,185.372,-4.2589,0.13185,0.50548
580.773,186.2881,-4.25983,0.13247,0.50388
583.473,187.198,-4.25921,0.13824,0.50227
586.173,188.111,-4.25898,0.14412,0.50066
588.873,189.025,-4.26042,0.14963,0.49905
591.573,189.936,-4.26174,0.15716,0.49743
594.273,190.8482,-4.26174,0.16002,0.49581
596.973,191.765,-4.26151,0.16507,0.49418
599.673,192.682,-4.26458,0.17537,0.49254
602.373,193.595,-4.26239,0.18308,0.49091
605.073,194.515,-4.26303,0.19175,0.48926
607.773,195.428,-4.26226,0.19585,0.48762
610.473,196.348,-4.26404,0.20129,0.48597
613.173,197.266,-4.26272,0.20473,0.48431
615.873,198.179,-4.26437,0.20763,0.48265
618.573,199.103,-4.26565,0.21649,0.48099
621.273,200.023,-4.26612,0.22367,0.47933
623.973,200.937,-4.26547,0.22779,0.47766
626.673,201.858,-4.26616,0.23176,0.47598
629.373,202.778,-4.26536,0.23742,0.47431
632.073,203.695,-4.26774,0.23799,0.47263
634.773,204.616,-4.26646,0.2398,0.47095
637.473,205.536,-4.26434,0.24359,0.46926
640.173,206.456,-4.26729,0.24826,0.46757
642.873,207.378,-4.26678,0.24994,0.46588
645.573,208.303,-4.26612,0.25114,0.46419
648.273,209.226,-4.26546,0.24936,0.46249
650.473,209.976,-4.26538,0.24967,0.46111