Folder: fsri_materials_database/01_Data/Polyisocyanurate_Foam_Board/Cone

Note: 01_Data/README.md
# Materials and Products Database
## 01_Data

Raw data generated from each apparatus are included here in plain-text format. The data is organized first by material, next by the short name of test apparatus used, and where applicable additional filtering by test settings.

### material.json

Each material directory contains a json file of the same name as the material. This file links the data stored in the repository as well as data and graphs produced by the accompanying scripts (__02_Scripts__) to the respective landing page for the material on the front-end website.

File: Polyisocyanurate_Foam_Board_Cone_HF25Scalar_220922_R1.csv
LABORATORY,FSRI
TEST IDENT,Polyiso_Foam_HF25_R1
OPERATOR,Dow
MATERIAL,Polyisocyanurate Foam Board
ORIENTATION,Horizontal
HEAT FLUX,25
SURF AREA,0.01
C FACTOR,0.040033
SPEC HOLDER DIFF,-566
SPECIMEN MASS,7.92
SCAN TIME,0.25
O2 DELAY TIME,11
CO DELAY TIME,11
CO2 DELAY TIME,8
FLOW FACTOR,1
SCAN COUNT,8311
TIME TO IGN,0
END OF TEST SCAN,7831
END OF TEST TIME,1957.75
TEST STATUS,1
PRE TEST CMT,Dimensions: 101.19 x 100.56 x 22.61 mm; with tie wires
POST TEST CMT,No ignition

File: Polyisocyanurate_Foam_Board_Cone_HF25Scalar_220922_R2.csv
LABORATORY,FSRI
TEST IDENT,Polyiso_Foam_HF25_R2
OPERATOR,Dow
MATERIAL,Polyisocyanurate Foam Board
ORIENTATION,Horizontal
HEAT FLUX,25
SURF AREA,0.01
C FACTOR,0.040033
SPEC HOLDER DIFF,-566
SPECIMEN MASS,7.14
SCAN TIME,0.25
O2 DELAY TIME,11
CO DELAY TIME,11
CO2 DELAY TIME,8
FLOW FACTOR,1
SCAN COUNT,745
TIME TO IGN,3
END OF TEST SCAN,265
END OF TEST TIME,66.25
TEST STATUS,1
PRE TEST CMT,Dimensions: 101.79 x 101.47 x 23.70 mm; with tie wires; top foil layer of sample removed

File: Polyisocyanurate_Foam_Board_Cone_HF25Scalar_220922_R3.csv
LABORATORY,FSRI
TEST IDENT,Polyiso_Foam_HF25_R3
OPERATOR,Dow
MATERIAL,Polyisocyanurate Foam Board
ORIENTATION,Horizontal
HEAT FLUX,25
SURF AREA,0.01
C FACTOR,0.0400421
SPEC HOLDER DIFF,-566
SPECIMEN MASS,6.94
SCAN TIME,0.25
O2 DELAY TIME,11
CO DELAY TIME,11
CO2 DELAY TIME,8
FLOW FACTOR,1
SCAN COUNT,1211
TIME TO IGN,2.25
END OF TEST SCAN,731
END OF TEST TIME,182.75
TEST STATUS,1
PRE TEST CMT,Dimensions: 102.05 x 101.58 x 23.15 mm; with tie wires; top foil layer of sample removed
POST TEST CMT,After peak burning there remained small flames between one edge of the sample and the foil pan.

File: Polyisocyanurate_Foam_Board_Cone_HF25Scalar_220922_R4.csv
LABORATORY,FSRI
TEST IDENT,Polyiso_Foam_HF25_R4
OPERATOR,Dow
MATERIAL,Polyisocyanurate Foam Board
ORIENTATION,Horizontal
HEAT FLUX,25
SURF AREA,0.01
C FACTOR,0.0400421
SPEC HOLDER DIFF,-566
SPECIMEN MASS,7.33
SCAN TIME,0.25
O2 DELAY TIME,11
CO DELAY TIME,11
CO2 DELAY TIME,8
FLOW FACTOR,1
SCAN COUNT,749
TIME TO IGN,1.75
END OF TEST SCAN,269
END OF TEST TIME,67.25
TEST STATUS,1
PRE TEST CMT,Dimensions: 101.58 x 101.54 x 23.70 mm; with tie wires; top foil layer of sample removed

File: Polyisocyanurate_Foam_Board_Cone_HF25Scan_220922_R1.csv
Names,Time,Stack TC,Smoke TC,Exh Press,Smoke Comp,Smoke Meas,CO Meter,CO2 Meter,O2 Meter,Sample Mass,Ext Coeff,Start Test,Flame Verif
Chan Gain,,500,500,1,1,1,1,1,1,1,1,1.0,1.0
Offset,,0,0,0.137569,0,0,0,0,0,0,0,0.0,0.0
Gain,,1,1,25.011,13.0852,15.0251,1,1,1,1.00088,1.05531,1.0,1.0
Units,sec,C,C,Pa,%,%,%,%,%,g,/m,,
Baseline,,37.7022,38.3186,167.201,98.6698,95.9858,0.0015105,0.0796596,20.9425,-447.407,0.255332,,
87,21.5,35.5026,36.2694,165.08,98.7948,96.0612,0.00150905,0.0809678,20.9433,84.6244,0.259752,0.0,0.0
174,43.25,35.8621,36.5453,166.863,98.8898,96.2372,0.0016202,0.0851801,20.9377,84.5143,0.251702,0.0,0.0
261,65,35.8578,35.9563,167.747,98.6251,95.8048,0.00159976,0.0799018,20.9439,84.4442,0.26857,0.0,0.0
348,86.75,36.1321,36.6169,165.916,97.7518,95.1093,0.00128658,0.0826563,20.9424,84.3241,0.253689,0.0,0.0
435,108.5,36.2438,37.0253,165.341,98.5872,96.0415,0.00155191,0.0854313,20.9384,84.2641,0.242175,0.0,0.0
522,130.25,35.93,36.6239,166.162,99.6094,97.0016,0.00139599,0.0830788,20.9395,84.144,0.245583,0.0,0.0
609,152,35.7146,36.9114,168.159,99.1402,96.6027,0.00138804,0.0848711,20.9404,84.0439,0.240024,0.0,0.0
696,173.75,36.1009,36.6797,166.06,99.2257,96.4307,0.00131638,0.0889994,20.933,83.8637,0.264492,0.0,0.0
783,195.5,36.6017,37.1195,165.674,98.4107,96.1579,0.00162904,0.0894597,20.9345,83.7937,0.214367,0.0,0.0
870,217.25,35.5901,36.6944,167.015,98.826,96.2886,0.0010832,0.0844771,20.9401,83.7036,0.24078,0.0,0.0
957,239,36.3325,37.0519,166.056,98.7796,96.3289,0.00156603,0.0831307,20.9434,83.6736,0.232562,0.0,0.0
1044,260.75,35.6636,37.1012,165.562,97.9778,95.9328,0.0012877,0.0826209,20.9458,83.6235,0.19526,0.0,0.0
1131,282.5,35.8894,36.5287,166.373,97.7574,95.5861,0.00124068,0.0799967,20.9497,83.5935,0.20792,0.0,0.0
1218,304.25,35.9303,36.6803,168.485,98.7361,96.8847,0.00127441,0.0789686,20.9503,83.5735,0.175229,0.0,0.0
1305,326,35.8434,36.9688,171.822,99.5467,97.6931,0.00151835,0.0788956,20.9511,83.5334,0.174002,0.0,0.0
1392,347.75,35.8059,36.4968,164.995,99.3567,97.1836,0.00133352,0.0792058,20.9494,83.5234,0.204708,0.0,0.0
1479,369.5,35.8138,36.7864,166.233,98.7449,96.7393,0.00129709,0.079009,20.9469,83.5234,0.189951,0.0,0.0
1566,391.25,35.8185,36.8926,168.991,99.2369,97.3923,0.00126894,0.0793916,20.9485,83.4534,0.173687,0.0,0.0
1653,413,35.7425,36.5652,166.82,98.3875,96.7778,0.00134713,0.0777108,20.9532,83.4834,0.1527,0.0,0.0
1740,434.75,35.4176,36.1299,169.395,98.7165,96.8232,0.00131696,0.0763583,20.9546,83.4333,0.179267,0.0,0.0
1827,456.5,35.6229,36.4093,167.141,98.8787,97.384,0.00129577,0.076491,20.9537,83.4333,0.140998,0.0,0.0
1914,478.25,35.8799,36.6146,164.329,98.4234,96.7274,0.00121949,0.080148,20.9486,83.4133,0.160907,0.0,0.0
2001,500,35.0553,36.4132,169.037,97.751,96.2634,0.00141889,0.0797192,20.9481,83.3533,0.141958,0.0,0.0
2088,521.75,35.3406,36.5497,166.394,97.7082,96.1355,0.00121202,0.0805514,20.9481,83.3633,0.150221,0.0,0.0
2175,543.5,34.88,36.3911,164.932,98.5444,96.6403,0.00131978,0.0791334,20.9492,83.3232,0.180622,0.0,0.0
2262,565.25,35.2808,36.1764,168.521,99.3487,98.0232,0.00155519,0.0773339,20.9527,83.2832,0.124335,0.0,0.0
2349,587,35.1385,36.1464,167.929,99.5196,98.0251,0.00144784,0.0775643,20.9522,83.2832,0.140073,0.0,0.0
2436,608.75,35.2754,35.9604,167.977,99.0679,97.6559,0.00114586,0.0772374,20.9533,83.2832,0.13289,0.0,0.0
2523,630.5,35.0007,35.6616,166.048,98.9026,97.6802,0.00119295,0.0768293,20.9532,83.2532,0.115126,0.0,0.0
2610,652.25,35.4366,35.4488,167.405,99.1822,97.7371,0.00129065,0.0772571,20.9527,83.1931,0.135865,0.0,0.0
2697,674,35.2495,35.777,166.918,98.6954,97.1694,0.00120542,0.0771375,20.9523,83.2031,0.144243,0.0,0.0
2784,695.75,34.9649,35.679,166.428,98.4142,96.9755,0.000976917,0.0769198,20.9545,83.1531,0.136333,0.0,0.0
2871,717.5,35.3265,35.9266,169.504,98.6686,97.4042,0.00130338,0.0768401,20.9547,83.1431,0.119393,0.0,0.0
2958,739.25,35.2697,36.3608,166.061,98.7892,97.8105,0.00113791,0.077023,20.9536,83.1031,0.092172,0.0,0.0
3045,761,35.3684,35.8109,167.462,98.6698,97.688,0.00118277,0.0769764,20.9549,83.053,0.0925708,0.0,0.0
3132,782.75,35.1101,35.4012,169.682,98.4474,96.7572,0.00104927,0.0769547,20.9549,83.063,0.160308,0.0,0.0
3219,804.5,34.859,35.6505,163.15,98.0988,96.9856,0.00151101,0.0774751,20.9553,83.033,0.105649,0.0,0.0
3306,826.25,34.5239,35.5291,169.673,97.7302,96.4285,0.00126562,0.0772957,20.9521,83.063,0.124131,0.0,0.0
3393,848,34.7229,36.0781,167.351,97.5409,96.3592,0.0010447,0.077006,20.9529,83.043,0.112834,0.0,0.0
3480,869.75,34.7876,35.6973,162.718,97.487,96.2244,0.000931568,0.077053,20.9529,83.033,0.120677,0.0,0.0
3567,891.5,34.6982,35.5321,170.35,97.6943,96.3331,0.0013224,0.0772346,20.9547,83.013,0.129887,0.0,0.0
3654,913.25,35.2265,35.8509,164.793,98.2665,96.6811,0.00139221,0.0768957,20.951,82.9529,0.150568,0.0,0.0
3741,935,35.0403,35.7603,166.182,98.7661,97.6151,0.00114693,0.07651,20.9526,82.9529,0.108507,0.0,0.0
3828,956.75,34.5152,35.8235,165,99.2433,98.23,0.00125824,0.0758104,20.9578,82.9229,0.094997,0.0,0.0
3915,978.5,35.1753,35.8815,171.711,99.4345,98.4341,0.00117957,0.0760261,20.9575,82.8929,0.0936131,0.0,0.0
4002,1000.25,34.9025,35.818,166.515,99.409,98.3112,0.00107397,0.0763988,20.9543,82.8628,0.102797,0.0,0.0
4089,1022,34.6183,36.1053,162.883,99.1119,98.6872,0.00128289,0.0758237,20.9586,82.8729,0.039753,0.0,0.0
4176,1043.75,34.7424,35.8778,166.966,98.7553,97.9072,0.00125231,0.0774951,20.9565,82.8328,0.0798382,0.0,0.0
4263,1065.5,34.6646,35.553,166.541,98.7325,98.0296,0.00125799,0.0771145,20.9565,82.8428,0.066136,0.0,0.0
4350,1087.25,34.2887,35.2409,170.419,99.042,98.556,0.00132124,0.0774383,20.9563,82.8128,0.0455331,0.0,0.0
4437,1109,34.8427,36.0613,170.51,99.1155,98.2085,0.00128818,0.0761159,20.9569,82.7728,0.0851013,0.0,0.0
4524,1130.75,33.7631,35.3148,169.255,98.913,97.7774,0.00134754,0.0758918,20.9582,82.7527,0.106891,0.0,0.0
4611,1152.5,34.4465,34.9727,168.841,98.5828,98.0966,0.00129732,0.0757611,20.9589,82.7527,0.0457659,0.0,0.0
4698,1174.25,34.748,35.4561,170.12,98.308,97.4533,0.00121931,0.0762188,20.9551,82.7327,0.0808403,0.0,0.0
4785,1196,35.2626,35.5991,168.436,98.429,97.4161,0.00119014,0.0761017,20.9567,82.6927,0.095755,0.0,0.0
4872,1217.75,34.3785,35.6781,166.989,98.5181,98.1291,0.00103333,0.0762387,20.9534,82.6527,0.0366176,0.0,0.0
4959,1239.5,34.7154,34.9095,169.366,98.3627,97.9521,0.00127846,0.0763479,20.9554,82.6727,0.0387212,0.0,0.0
5046,1261.25,34.6081,35.4767,167.995,98.8551,97.8916,0.00113661,0.0759853,20.9562,82.6126,0.0906663,0.0,0.0
5133,1283,35.1433,35.8253,167.495,98.6922,98.1626,0.00135277,0.0758428,20.9542,82.5926,0.049806,0.0,0.0
5220,1304.75,34.5782,36.265,167.708,99.3619,98.9632,0.00121661,0.0758467,20.9552,82.6326,0.0372155,0.0,0.0
5307,1326.5,35.116,36.2265,164.365,98.0932,97.7435,0.000951887,0.0750354,20.9566,82.5826,0.0330578,0.0,0.0
5394,1348.25,35.1253,36.2618,170.441,98.0089,97.1245,0.00126354,0.0748896,20.9584,82.6527,0.0839149,0.0,0.0
5481,1370,35.4627,36.1641,172.184,98.3512,97.8325,0.00105171,0.0751889,20.9588,82.5826,0.0489487,0.0,0.0
5568,1391.75,35.3289,36.3076,165.409,98.6574,97.948,0.00123829,0.0751956,20.9599,82.5826,0.0668055,0.0,0.0
5655,1413.5,35.5573,35.8573,169.089,98.4582,97.4611,0.00137345,0.0753447,20.9597,82.5526,0.094227,0.0,0.0
5742,1435.25,35.227,35.9998,163.566,98.5904,97.4037,0.00101007,0.0756172,20.9572,82.5526,0.112092,0.0,0.0
5829,1457,35.1599,36.4264,167.861,98.9434,97.6468,0.00130282,0.0753952,20.9588,82.5426,0.12211,0.0,0.0
5916,1478.75,35.1753,35.9619,168.897,98.2114,96.638,0.0014301,0.0752048,20.9567,82.5025,0.149503,0.0,0.0
6003,1500.5,34.5369,35.8011,170.596,98.7213,97.5124,0.00126943,0.0749846,20.9608,82.5426,0.114059,0.0,0.0
6090,1522.25,35.0721,36.1451,167.122,98.6786,96.9113,0.00116099,0.0742213,20.9603,82.5526,0.167296,0.0,0.0
6177,1544,34.7906,35.8439,169.669,98.3304,96.6174,0.00106799,0.0747116,20.9591,82.5025,0.16269,0.0,0.0
6264,1565.75,35.3495,36.1797,166.6,98.1922,96.6233,0.00109846,0.0755407,20.9585,82.4825,0.149102,0.0,0.0
6351,1587.5,34.4682,35.6021,165.619,98.4833,96.6261,0.00110107,0.0758218,20.9585,82.4425,0.176242,0.0,0.0
6438,1609.25,34.7557,36.0956,165.657,98.9422,96.8416,0.00116493,0.0757153,20.9581,82.4425,0.198647,0.0,0.0
6525,1631,34.955,35.922,169.335,98.588,96.9315,0.00104553,0.0757319,20.9585,82.4225,0.156861,0.0,0.0
6612,1652.75,34.4186,36.1088,167.018,99.2492,97.451,0.00133108,0.0766969,20.9562,82.4124,0.169265,0.0,0.0
6699,1674.5,34.4799,35.7517,164.563,99.3251,97.5216,0.0012452,0.0764218,20.955,82.4124,0.169633,0.0,0.0
6786,1696.25,34.5457,35.4449,166.133,98.7517,97.1859,0.00106983,0.0767037,20.9565,82.3824,0.147949,0.0,0.0
6873,1718,34.8479,35.3771,170.414,97.9514,96.118,0.00131167,0.0768241,20.9548,82.3924,0.174911,0.0,0.0
6960,1739.75,34.2252,35.2701,165.033,97.634,95.9062,0.0012601,0.077308,20.9524,82.3424,0.165284,0.0,0.0
7047,1761.5,34.3705,35.82,167.188,97.5856,95.6893,0.00102965,0.0768664,20.9533,82.3324,0.18166,0.0,0.0
7134,1783.25,34.4655,35.0372,171.832,97.6284,95.7957,0.00100468,0.0771893,20.9533,82.3024,0.175426,0.0,0.0
7221,1805,34.3249,35.6363,165.781,97.7522,96.3468,0.00130742,0.0775413,20.9533,82.3124,0.134049,0.0,0.0
7308,1826.75,34.4939,35.3885,165.18,98.096,96.2405,0.00139779,0.0776573,20.9527,82.3324,0.176779,0.0,0.0
7395,1848.5,34.7231,34.9157,168.576,98.56,96.7889,0.00106976,0.0774224,20.9534,82.3624,0.167865,0.0,0.0
7482,1870.25,35.101,34.8508,168.508,99.0428,97.0332,0.00119789,0.077177,20.9586,82.3524,0.189755,0.0,0.0
7569,1892,34.6119,35.0608,166.786,99.3958,97.9013,0.000875307,0.0773804,20.9529,82.3424,0.140249,0.0,0.0
7656,1913.75,34.6359,35.579,168.871,99.3044,97.4354,0.000950221,0.0775974,20.9535,82.3524,0.175884,0.0,0.0
7743,1935.5,34.0723,35.0202,165.514,98.9318,97.3932,0.00105679,0.0776242,20.9552,82.3324,0.145097,0.0,0.0
7830,1957.25,33.9348,34.9509,170.973,98.6295,97.0919,0.00111992,0.0774407,20.9543,82.3224,0.145446,0.0,0.0
7917,1979,33.0016,34.0038,167.593,98.9162,97.0094,0.000963075,0.0781627,20.9507,82.2923,0.18019,0.0,0.0
8004,2000.75,32.6231,33.9274,166.026,98.9685,97.5523,0.00119403,0.0790347,20.951,82.3024,0.133423,0.0,0.0
8091,2022.5,33.1291,33.3354,166.225,98.1874,96.328,0.00128858,0.0785438,20.9526,82.2923,0.176984,0.0,0.0
8178,2044.25,32.9494,33.838,162.771,98.6167,96.8847,0.001404,0.0774507,20.9547,82.2923,0.164028,0.0,0.0
8265,2066,32.9636,33.7129,165.777,98.6487,97.08,0.00132979,0.0759764,20.9568,82.2623,0.148381,0.0,0.0
8311,2077.5,32.6156,33.9533,169.662,98.1978,96.4381,,,,81.952,0.167393,0.0,0.0

File: Polyisocyanurate_Foam_Board_Cone_HF25Scan_220922_R2.csv
Names,Time,Stack TC,Smoke TC,Exh Press,Smoke Comp,Smoke Meas,CO Meter,CO2 Meter,O2 Meter,Sample Mass,Ext Coeff,Start Test,Flame Verif
Chan Gain,,500,500,1,1,1,1,1,1,1,1,1.0,1.0
Offset,,0,0,0.137569,0,0,0,0,0,0,0,0.0,0.0
Gain,,1,1,25.011,13.0852,15.0251,1,1,1,1.00088,1.05531,1.0,1.0
Units,sec,C,C,Pa,%,%,%,%,%,g,/m,,
Baseline,,34.0019,34.7521,168.679,98.834,97.611,0.00153664,0.0780236,20.9468,-447.481,0.11528,,
8,1.75,32.2691,33.1882,164.8,98.2166,91.3424,0.0036491,0.0978862,20.9125,80.0203,0.67169,0.0,0.0
16,3.75,32.6005,33.6621,157.757,98.2329,84.2815,0.00661618,0.153564,20.8356,79.9303,1.41799,0.0,1.0
24,5.75,34.3489,34.2184,153.035,98.2541,81.0594,0.00919085,0.215325,20.7318,79.7101,1.78083,0.0,1.0
32,7.75,34.5559,33.9284,154.98,98.2529,78.8626,0.010756,0.267039,20.66,79.5399,2.03505,0.0,1.0
40,9.75,35.3288,34.9593,154.167,98.2701,74.1764,0.0112965,0.297101,20.623,79.3998,2.60377,0.0,0.0
48,11.75,36.2774,35.7691,156.275,98.2873,76.8277,0.0111253,0.308259,20.6084,79.2397,2.28029,0.0,0.0
56,13.75,37.3995,36.6348,155.673,98.2976,79.3179,0.0106257,0.307202,20.6138,79.1496,1.98597,0.0,0.0
64,15.75,38.261,37.6765,160.757,98.3168,81.5982,0.00987392,0.298048,20.6266,78.9894,1.72541,0.0,0.0
72,17.75,38.8224,38.045,155.374,98.3216,84.4402,0.00900055,0.285785,20.6436,78.8894,1.40893,0.0,0.0
80,19.75,38.8839,38.3465,160.028,98.3472,85.8667,0.00813245,0.272932,20.6604,78.7492,1.25626,0.0,0.0
88,21.75,40.125,39.2519,163.287,98.3687,86.6021,0.00727523,0.260567,20.6798,78.7192,1.17933,0.0,0.0
96,23.75,39.832,39.7205,157.53,98.3755,89.186,0.00659118,0.247871,20.7003,78.5991,0.907824,0.0,0.0
104,25.75,40.0611,39.9149,160.047,98.3911,90.5116,0.00592371,0.237334,20.7193,78.5491,0.77271,0.0,0.0
112,27.75,40.4894,40.2996,163.091,98.4011,91.4442,0.00539052,0.228964,20.7324,78.499,0.678751,0.0,0.0
120,29.75,40.5196,40.3644,163.033,98.415,91.9802,0.00514615,0.222485,20.7395,78.439,0.625961,0.0,0.0
128,31.75,40.5893,40.1207,159.586,98.425,93.5507,0.00500199,0.218362,20.7472,78.3589,0.47018,0.0,0.0
136,33.75,40.7937,40.9112,166.964,98.4454,92.9757,0.00478846,0.21391,20.7543,78.2688,0.529169,0.0,0.0
144,35.75,40.8482,41.0033,162.337,98.4502,92.7914,0.00462519,0.209489,20.7598,78.1887,0.54799,0.0,0.0
152,37.75,40.4482,41.2885,161.918,98.4586,92.5204,0.00461197,0.205488,20.7655,78.1387,0.575852,0.0,0.0
160,39.75,40.9307,41.5826,162.789,98.469,93.962,0.00457778,0.200573,20.7744,78.0686,0.4337,0.0,0.0
168,41.75,40.6607,41.5868,161.998,98.4737,94.5265,0.00442639,0.194187,20.7827,77.9886,0.378707,0.0,0.0
176,43.75,40.9677,41.6466,162.678,98.4953,94.8309,0.00424785,0.187013,20.7926,77.9786,0.350965,0.0,0.0
184,45.75,41.1154,41.9478,161.663,98.4985,95.3449,0.00399037,0.180406,20.8026,77.9085,0.301226,0.0,0.0
192,47.75,40.5795,41.653,159.362,98.5061,95.9915,0.00372637,0.173107,20.8153,77.8785,0.23938,0.0,0.0
200,49.75,40.6123,41.597,166.367,98.5185,96.0887,0.00356298,0.166112,20.828,77.8084,0.231173,0.0,0.0
208,51.75,40.7453,41.7028,161.261,98.5181,96.8929,0.00353579,0.159599,20.8375,77.7484,0.153976,0.0,0.0
216,53.75,40.3485,41.5368,165.778,98.5273,96.787,0.00356542,0.152389,20.8461,77.7383,0.164964,0.0,0.0
224,55.75,40.1969,41.4532,166.091,98.5384,97.1754,0.00355935,0.14355,20.8589,77.7183,0.128942,0.0,0.0
232,57.75,39.7384,41.5613,167.139,98.5352,96.483,0.00355108,0.13324,20.8739,77.6883,0.194837,0.0,0.0
240,59.75,40.014,41.4209,163.436,98.536,97.5147,0.00355984,0.123976,20.8887,77.6983,0.0964507,0.0,0.0
248,61.75,38.9499,40.7139,165.682,98.5352,97.1841,0.00353675,0.114579,20.901,77.6783,0.127814,0.0,0.0
256,63.75,39.3341,40.8595,165.993,98.538,97.3409,0.00343618,0.107121,20.9113,77.6783,0.11315,0.0,0.0
264,65.75,38.0476,39.9155,166.302,98.5376,97.2497,0.00327567,0.101546,20.9177,77.6383,0.121795,0.0,0.0
272,67.75,36.4768,38.3479,163.775,98.5472,97.2286,0.00315857,0.098281,20.92,77.6182,0.124704,0.0,0.0
280,69.75,36.2535,38.6799,166.657,98.554,97.1066,0.00305972,0.0966888,20.9221,77.5782,0.136962,0.0,0.0
288,71.75,36.4843,37.9288,167.841,98.5568,97.4225,0.00290762,0.0954603,20.9244,77.5482,0.107155,0.0,0.0
296,73.75,35.7452,37.9059,168.895,98.578,97.1066,0.00273569,0.0937404,20.9263,77.5482,0.139211,0.0,0.0
304,75.75,35.6233,37.6921,164.332,98.5596,97.0397,0.00266205,0.0920262,20.9295,77.5782,0.143869,0.0,0.0
312,77.75,35.5732,37.5168,166.308,98.5596,97.1905,0.0026451,0.0908403,20.9316,77.5181,0.12949,0.0,0.0
320,79.75,35.1845,37.0908,162.797,98.5616,97.0823,0.00265928,0.0896163,20.9331,77.5282,0.13999,0.0,0.0
328,81.75,34.8427,36.6199,169.338,98.5664,96.7118,0.00269852,0.0882821,20.9342,77.4881,0.175835,0.0,0.0
336,83.75,34.9675,36.8801,162.703,98.5652,97.1823,0.00268526,0.0870126,20.9368,77.4781,0.130801,0.0,0.0
344,85.75,35.0574,37.2025,165.554,98.568,96.9576,0.00264342,0.0858284,20.9375,77.4881,0.15249,0.0,0.0
352,87.75,34.3568,36.4667,166.025,98.5616,96.6774,0.0025804,0.0850655,20.9377,77.4781,0.178678,0.0,0.0
360,89.75,34.2232,36.4322,163.792,98.5572,96.3844,0.00242679,0.0845237,20.9396,77.4781,0.206363,0.0,0.0
368,91.75,33.6789,36.0941,171.884,98.55,96.4427,0.00220146,0.0840624,20.9411,77.4781,0.200096,0.0,0.0
376,93.75,34.3209,36.2878,169.443,98.564,97.1112,0.00210334,0.083838,20.9427,77.4781,0.137462,0.0,0.0
384,95.75,33.7942,36.3121,165.88,98.5468,96.5545,0.00207315,0.0836923,20.9437,77.4481,0.189064,0.0,0.0
392,97.75,33.7087,35.9217,170.159,98.5336,96.6458,0.00203973,0.08367,20.9441,77.4981,0.179082,0.0,0.0
400,99.75,34.0923,35.7394,167.33,98.5265,96.9154,0.00206527,0.0837303,20.9431,77.4681,0.152618,0.0,0.0
408,101.75,34.1969,35.652,165.503,98.5241,96.5697,0.0021804,0.084064,20.9414,77.4581,0.185474,0.0,0.0
416,103.75,33.4976,35.15,166.657,98.5332,96.5073,0.00228212,0.0852704,20.9392,77.4481,0.192318,0.0,0.0
424,105.75,33.6683,35.4732,166.482,98.5045,96.572,0.00238724,0.08717,20.9371,77.4381,0.183417,0.0,0.0
432,107.75,33.7485,35.446,169.701,98.4853,97.0704,0.00247188,0.0884855,20.9361,77.4281,0.13396,0.0,0.0
440,109.75,33.2564,35.3431,165.966,98.4734,96.9548,0.00252188,0.0885915,20.9356,77.4281,0.143861,0.0,0.0
448,111.75,33.325,34.8172,167.215,98.4562,96.7004,0.00255552,0.0880489,20.9368,77.388,0.166576,0.0,0.0
456,113.75,33.1352,34.7609,170.058,98.4446,96.5944,0.0025902,0.0871291,20.9372,77.388,0.175632,0.0,0.0
464,115.75,33.0633,34.7995,164.374,98.4326,96.815,0.0026217,0.0864898,20.9383,77.398,0.153393,0.0,0.0
472,117.75,33.0499,34.5246,166.194,98.4043,96.975,0.0026624,0.0859532,20.9389,77.358,0.135438,0.0,0.0
480,119.75,32.8593,34.788,172.15,98.3959,96.4573,0.00263233,0.0855891,20.9391,77.318,0.184199,0.0,0.0
488,121.75,32.9936,34.3837,170.665,98.3775,96.538,0.00246595,0.0854391,20.9392,77.308,0.174728,0.0,0.0
496,123.75,32.9015,34.8814,165.472,98.3611,96.9475,0.002313,0.0852816,20.9392,77.338,0.134006,0.0,0.0
504,125.75,33.3528,34.4746,166.87,98.3396,96.8668,0.00232549,0.0851223,20.9392,77.328,0.139685,0.0,0.0
512,127.75,32.8259,33.9118,167.591,98.3264,96.8796,0.00245395,0.0847964,20.9392,77.308,0.137218,0.0,0.0
520,129.75,32.7694,34.4322,167.513,98.3052,97.1754,0.00259056,0.0846381,20.9392,77.2879,0.107009,0.0,0.0
528,131.75,32.5013,34.1371,165.987,98.2845,96.8526,0.00259506,0.0843824,20.9392,77.2779,0.135855,0.0,0.0
536,133.75,32.3269,34.0961,166.986,98.2813,97.0741,0.00251444,0.0840904,20.9403,77.2279,0.114411,0.0,0.0
544,135.75,32.4845,34.3141,165.629,98.2505,96.8164,0.0024908,0.0838619,20.9413,77.2379,0.13612,0.0,0.0
552,137.75,32.4818,33.5833,169.094,98.2381,96.1987,0.00252688,0.0836067,20.9424,77.2079,0.194199,0.0,0.0
560,139.75,32.391,34.0604,173.523,98.227,96.9704,0.00255658,0.0833232,20.9429,77.2079,0.119181,0.0,0.0
568,141.75,32.2838,34.3076,165.333,98.2182,97.2877,0.00249288,0.0831832,20.9431,77.1778,0.0881121,0.0,0.0
576,143.75,32.3556,33.6721,166.858,98.1838,96.8191,0.0022808,0.0829925,20.9431,77.1678,0.129572,0.0,0.0
584,145.75,32.7098,33.7687,170.162,98.1902,96.7586,0.00219502,0.0828004,20.9432,77.1778,0.135963,0.0,0.0
592,147.75,32.3141,33.2203,170.672,98.1531,96.7306,0.00226591,0.0826251,20.9432,77.1478,0.135138,0.0,0.0
600,149.75,32.04,33.4886,166.154,98.1447,97.0585,0.00243282,0.0824523,20.9445,77.1478,0.103025,0.0,0.0
608,151.75,32.0877,33.6485,167.413,98.1223,97.3207,0.00250857,0.082391,20.9451,77.1478,0.0759338,0.0,0.0
616,153.75,32.6523,33.6734,175.38,98.1143,97.5574,0.00251774,0.0823216,20.9453,77.1478,0.0527021,0.0,0.0
624,155.75,32.8086,33.8523,167.925,98.0936,96.5756,0.00252797,0.081951,20.9454,77.1378,0.144369,0.0,0.0
632,157.75,32.4852,33.049,170.865,98.0804,96.7017,0.00255619,0.0817866,20.9455,77.1678,0.131046,0.0,0.0
640,159.75,32.6,33.4212,166.632,98.0756,97.0443,0.00256343,0.0817904,20.9444,77.1678,0.0978627,0.0,0.0
648,161.75,32.1701,33.0917,168.198,98.0417,97.1548,0.00257246,0.0818885,20.9438,77.1578,0.0841227,0.0,0.0
656,163.75,32.2535,33.4674,166.332,98.0321,97.2625,0.00259362,0.0819128,20.9421,77.1478,0.0729563,0.0,0.0
664,165.75,32.1605,32.9638,165.875,98.0153,96.8975,0.00250376,0.0820711,20.9414,77.1378,0.106176,0.0,0.0
672,167.75,31.7253,32.938,164.522,97.9946,96.809,0.00239681,0.0822578,20.9424,77.1478,0.112674,0.0,0.0
680,169.75,32.4338,33.2006,164.815,97.9778,96.6362,0.00241167,0.0822978,20.9425,77.1278,0.127634,0.0,0.0
688,171.75,31.8628,33.4572,164.463,97.9434,96.8553,0.00244491,0.0824512,20.9411,77.1578,0.103417,0.0,0.0
696,173.75,31.6029,32.9431,164.423,97.9319,97.2625,0.00239992,0.0826845,20.9405,77.1378,0.0634863,0.0,0.0
704,175.75,32.0972,32.9931,166.143,97.9219,96.9718,,0.0829227,,77.1378,0.0902532,0.0,0.0
712,177.75,31.7911,33.5674,166.346,97.9075,96.859,,0.0829941,,77.1178,0.0996686,0.0,0.0
720,179.75,32.5173,33.4629,167.098,97.9131,97.246,,,,77.1078,0.0632836,0.0,0.0
728,181.75,31.7594,33.1447,171.126,97.8883,96.4743,,,,77.1078,0.134696,0.0,0.0
736,183.75,32.1458,32.5778,167.554,97.8708,96.4294,,,,77.1078,0.137348,0.0,0.0
744,185.75,32.2827,33.2933,168.088,97.8496,97.1268,,,,77.0878,0.0686349,0.0,0.0
745,186,31.7523,33.0437,163.874,97.8456,96.9888,,,,77.0978,0.0814201,0.0,0.0