Folder: fsri_materials_database/01_Data/Polyisocyanurate_Foam_Board/Cone (part 3)

File: Polyisocyanurate_Foam_Board_Cone_HF50Scan_220913_R1.csv
Names,Time,Stack TC,Smoke TC,Exh Press,Smoke Comp,Smoke Meas,CO Meter,CO2 Meter,O2 Meter,Sample Mass,Ext Coeff,Start Test,Flame Verif
Chan Gain,,500,500,1,1,1,1,1,1,1,1,1.0,1.0
Offset,,0,0,0.13918,0,0,0,0,0,0,0,0.0,0.0
Gain,,1,1,25.011,14.0162,15.5607,1,1,1,1.0009,1.02981,1.0,1.0
Units,sec,C,C,Pa,%,%,%,%,%,g,/m,,
Baseline,,31.6119,33.0601,155.299,104.72,4.39574,0.000747645,0.0961288,20.945,-0.0990895,28.6421,,
20,4.75,31.0616,32.209,158.936,104.013,4.30902,0.000798656,0.110875,20.9236,528.637,28.7607,0.0,0.0
40,9.75,30.7782,32.3267,153.967,103.834,4.15659,0.00119914,0.108631,20.9283,528.477,29.0705,0.0,0.0
60,14.75,31.3215,32.9307,149.894,103.663,4.3038,0.00223566,0.11545,20.9166,528.287,28.7412,0.0,1.0
80,19.75,33.0604,33.9326,143.558,103.496,4.22544,0.00452094,0.205261,20.7851,527.896,28.8927,0.0,1.0
100,24.75,35.5459,35.9676,142.439,103.37,4.16181,0.00655879,0.296235,20.6583,527.456,29.0187,0.0,0.0
120,29.75,37.0186,37.5054,141.94,103.3,4.18983,0.00690343,0.312867,20.6385,527.166,28.952,0.0,0.0
140,34.75,39.4958,39.8922,145.215,103.309,4.24444,0.0071231,0.308143,20.6402,526.836,28.8358,0.0,0.0
160,39.75,40.7275,41.3854,149.979,103.365,4.32659,0.00725409,0.309519,20.6376,526.455,28.6675,0.0,0.0
180,44.75,41.8863,42.5867,148.008,103.457,4.20312,0.00730061,0.299932,20.6492,526.185,28.9371,0.0,0.0
200,49.75,43.022,43.7425,144.942,103.61,4.21215,0.00710169,0.292769,20.6583,525.925,28.931,0.0,0.0
220,54.75,43.2377,44.3961,145.875,103.755,4.21974,0.00598253,0.278968,20.6784,525.644,28.9274,0.0,0.0
240,59.75,43.5957,45.1247,148.423,103.925,4.2017,0.00520029,0.25793,20.7134,525.424,28.9809,0.0,0.0
260,64.75,43.7642,45.4903,150.03,104.098,4.34369,0.00451424,0.239529,20.7443,525.204,28.6957,0.0,0.0
280,69.75,41.4656,43.6179,150.413,104.294,4.37788,0.00387151,0.221795,20.7743,525.064,28.6419,0.0,0.0
300,74.75,43.2125,45.5862,151.26,104.48,4.36601,0.00394779,0.203214,20.8014,524.904,28.6825,0.0,0.0
320,79.75,42.7514,45.5977,149.505,104.657,4.39545,0.00413212,0.191762,20.8157,524.774,28.6371,0.0,0.0
340,84.75,42.5493,45.2387,151.59,104.832,4.36981,0.00426491,0.192499,20.815,524.553,28.705,0.0,0.0
360,89.75,42.0727,44.9442,149.06,104.982,4.42489,0.00422943,0.20465,20.8003,524.293,28.6048,0.0,0.0
380,94.75,42.6721,45.0734,152.595,105.112,4.42442,0.0043256,0.205159,20.8022,524.123,28.6169,0.0,0.0
400,99.75,42.5064,45.1915,149.508,105.209,4.43344,0.00410102,0.196405,20.8112,523.983,28.6069,0.0,0.0
420,104.75,41.8801,44.7871,145.421,105.245,4.41207,0.00406422,0.184681,20.8241,523.823,28.6536,0.0,0.0
440,109.75,41.8899,44.3432,153.562,105.22,4.4852,0.00401002,0.168422,20.8481,523.693,28.5029,0.0,0.0
460,114.75,40.6297,43.6843,152.879,105.157,4.4776,0.00360388,0.15782,20.8612,523.613,28.5128,0.0,0.0
480,119.75,40.852,44.0011,145.226,105.05,4.52366,0.00379114,0.155426,20.8626,523.543,28.4112,0.0,0.0
500,124.75,40.3699,43.3731,149.859,104.901,4.47048,0.00401438,0.153021,20.8652,523.503,28.5052,0.0,0.0
520,129.75,39.8529,43.2187,158.061,104.738,4.4947,0.00431772,0.148562,20.8723,523.442,28.4424,0.0,0.0
540,134.75,39.4701,42.6491,152.695,104.561,4.51797,0.00435006,0.142502,20.8824,523.412,28.3805,0.0,0.0
560,139.75,39.1469,42.3095,153.277,104.42,4.49327,0.0042873,0.13651,20.8881,523.392,28.4177,0.0,0.0
580,144.75,38.7951,41.8396,153.083,104.498,4.50087,0.00462968,0.132067,20.8937,523.342,28.4092,0.0,0.0
600,149.75,38.45,41.4538,149.292,104.758,4.48615,0.00449403,0.129252,20.8963,523.302,28.4613,0.0,0.0
620,154.75,38.8934,41.8277,154.536,104.841,4.50657,0.00457508,0.126254,20.9012,523.232,28.4274,0.0,0.0
640,159.75,38.1739,40.9328,157.839,104.783,4.52984,0.00479581,0.123569,20.9031,523.202,28.3759,0.0,0.0
660,164.75,37.4649,40.2449,155.502,104.621,4.49565,0.00547544,0.121484,20.9047,523.112,28.4304,0.0,0.0
680,169.75,37.4351,40.4966,149.858,104.294,4.47238,0.00605537,0.119145,20.9078,523.052,28.4489,0.0,0.0
700,174.75,36.975,39.8301,151.684,103.928,4.51939,0.00610304,0.117655,20.9112,523.012,28.3228,0.0,0.0
720,179.75,36.788,39.6904,150.694,104.031,4.53506,0.00644097,0.116581,20.9117,522.982,28.3004,0.0,0.0
740,184.75,36.9371,39.8375,152.304,104.169,4.52319,0.00705819,0.115018,20.9135,522.952,28.336,0.0,0.0
760,189.75,36.7304,39.4287,154.872,104.353,4.55548,0.00739855,0.114163,20.914,522.932,28.2877,0.0,0.0
780,194.75,36.3648,38.8417,148.863,104.509,4.51369,0.00758929,0.113216,20.914,522.922,28.3845,0.0,0.0
800,199.75,36.4299,39.4911,153.109,104.601,4.52651,0.00774346,0.112623,20.9135,522.902,28.3668,0.0,0.0
820,204.75,36.7469,38.8607,154.823,104.603,4.4681,0.00735141,0.114012,20.9135,522.952,28.4843,0.0,0.0
840,209.75,36.1293,38.3948,152.396,104.474,4.49422,0.0078644,0.113604,20.9135,522.922,28.4205,0.0,0.0
860,214.75,35.5578,38.0037,152.377,104.285,4.45671,0.00834127,0.111252,20.9159,522.912,28.4799,0.0,0.0
880,219.75,36.1796,38.4346,153.893,104.039,4.47618,0.00791366,0.110578,20.9182,522.912,28.4191,0.0,0.0
900,224.75,35.9982,38.2194,150.494,103.764,4.44721,0.0075829,0.110923,20.9187,522.882,28.4539,0.0,0.0
920,229.75,35.9035,37.8875,152.247,103.497,4.45291,0.00749315,0.111142,20.9187,522.802,28.4191,0.0,0.0
940,234.75,35.6439,38.0687,151.894,103.332,4.42347,0.00784854,0.111268,20.919,522.802,28.4646,0.0,0.0
960,239.75,35.6085,37.9871,155.182,103.277,4.42347,0.00793256,0.111261,20.917,522.732,28.4598,0.0,0.0
980,244.75,35.3488,37.4025,149.011,103.398,4.45053,0.00791828,0.111308,20.9171,522.652,28.4152,0.0,0.0
1000,249.75,35.5269,37.544,151.537,103.681,4.48567,0.00767823,0.111434,20.917,522.642,28.3689,0.0,0.0
1020,254.75,35.4983,37.3695,152.187,104.092,4.53364,0.00791783,0.111995,20.9165,522.602,28.3086,0.0,0.0
1040,259.75,35.6842,37.5327,150.881,104.453,4.54266,0.00867788,0.111287,20.9183,522.602,28.3219,0.0,0.0
1060,264.75,35.5123,37.388,154.021,104.8,4.51702,0.00830829,0.110947,20.919,522.602,28.403,0.0,0.0
1080,269.75,35.9811,37.3454,150.087,105.067,4.60914,0.00834657,0.11035,20.9199,522.582,28.2435,0.0,0.0
1100,274.75,35.2728,37.0709,153.897,105.232,4.50942,0.00848793,0.110359,20.9207,522.592,28.4553,0.0,0.0
1120,279.75,35.4925,37.4563,152.561,105.264,4.50372,0.00879999,0.110323,20.9209,522.622,28.4695,0.0,0.0
1140,284.75,35.1709,37.1816,152.755,105.18,4.49185,0.00882213,0.110263,20.9209,522.602,28.4861,0.0,0.0
1160,289.75,35.4027,37.2188,151.659,105.025,4.50894,0.00885094,0.110132,20.921,522.542,28.4385,0.0,0.0
1180,294.75,35.3116,37.1607,149.701,104.805,4.49042,0.00828173,0.110492,20.921,522.522,28.4567,0.0,0.0
1200,299.75,35.0044,36.6954,154.933,104.583,4.49565,0.00817433,0.110823,20.921,522.522,28.4271,0.0,0.0
1220,304.75,35.1796,36.914,152.369,104.397,4.47713,0.00836239,0.110893,20.921,522.502,28.4482,0.0,0.0
1240,309.75,35.3437,37.1734,153.445,104.531,4.48093,0.00832647,0.110631,20.9209,522.472,28.4522,0.0,0.0
1260,314.75,35.5446,36.9543,157.842,104.757,4.45481,0.00876471,0.110716,20.9202,522.372,28.5245,0.0,0.0
1280,319.75,35.0974,36.9499,149.264,104.848,4.49755,0.00889374,0.110506,20.9201,522.311,28.4461,0.0,0.0
1300,324.75,35.2413,36.7634,150.579,104.825,4.52461,0.00855237,0.111278,20.9188,522.301,28.3899,0.0,0.0
1320,329.75,35.4107,37.0969,152.594,104.657,4.53554,0.00858689,0.111605,20.9193,522.271,28.3536,0.0,0.0
1340,334.75,35.5546,37.003,153.027,104.362,4.52509,0.00862723,0.111412,20.9179,522.241,28.349,0.0,0.0
1360,339.75,35.1621,36.9843,152.371,103.961,4.47475,0.00852162,0.111061,20.9166,522.261,28.4152,0.0,0.0
1380,344.75,35.1049,36.699,152.084,104.002,4.50087,0.00842567,0.111127,20.9172,522.201,28.3663,0.0,0.0
1400,349.75,34.9309,36.6463,153.3,104.126,4.50087,0.00835033,0.111384,20.9158,522.181,28.377,0.0,0.0
1420,354.75,33.509,35.3239,148.875,104.225,4.52699,0.00820574,0.111615,20.9156,522.271,28.3333,0.0,0.0
1440,359.75,34.5583,36.4096,153.701,104.381,4.4871,0.00836065,0.111026,20.9175,522.241,28.4268,0.0,0.0
1460,364.75,35.0627,36.7459,155.681,104.498,4.4928,0.00826575,0.110955,20.9195,522.201,28.4254,0.0,0.0
1480,369.75,35.1651,36.2655,155.728,104.573,4.49755,0.00830425,0.110653,20.9208,522.221,28.4224,0.0,0.0
1500,374.75,34.4333,36.5268,151.926,104.588,4.54409,0.00820449,0.110993,20.9211,522.181,28.3307,0.0,0.0
1520,379.75,34.5946,36.2993,153.602,104.572,4.46383,0.00805519,0.110819,20.9192,522.161,28.4902,0.0,0.0
1540,384.75,34.5646,36.0169,153.554,104.487,4.50609,0.00802511,0.110668,20.9185,522.141,28.3978,0.0,0.0
1560,389.75,34.697,36.2014,148.834,104.358,4.49565,0.00800372,0.11042,20.9199,522.051,28.4076,0.0,0.0
1580,394.75,34.4638,36.1807,155.069,104.193,4.4966,0.00746271,0.11036,20.92,522.021,28.3914,0.0,0.0
1600,399.75,34.1789,36.1325,151.512,104.008,4.53886,0.0073566,0.110574,20.92,521.991,28.2908,0.0,0.0
1620,404.75,34.4288,36.1831,151.587,103.796,4.50847,0.0076405,0.110603,20.9205,521.931,28.3331,0.0,0.0
1640,409.75,34.1157,35.8856,155.401,103.566,4.489,0.00767731,0.110552,20.9223,521.941,28.3522,0.0,0.0
1660,414.75,34.0223,35.575,150.873,103.38,4.51369,0.00753643,0.110076,20.9223,521.911,28.2864,0.0,0.0
1680,419.75,34.3159,36.2663,154.673,103.268,4.50087,0.00720578,0.109829,20.9225,521.871,28.3023,0.0,0.0
1700,424.75,34.336,36.2758,156.169,103.235,4.52366,0.00724488,0.110149,20.9225,521.911,28.2538,0.0,0.0
1720,429.75,34.3857,35.8921,148.972,103.297,4.45956,0.00664202,0.110183,20.9207,521.941,28.3881,0.0,0.0
1740,434.75,34.3442,36.3498,155.868,103.438,4.4097,0.00667028,0.110464,20.9189,521.941,28.5021,0.0,0.0
1760,439.75,34.5959,36.3963,157.686,103.687,4.47713,0.00646315,0.110216,20.9204,521.911,28.3866,0.0,0.0
1780,444.75,33.6475,35.9974,154.131,103.938,4.52366,0.00641364,0.110148,20.9213,521.891,28.315,0.0,0.0
1800,449.75,34.3244,35.8129,149.575,104.246,4.44958,0.00637637,0.110017,20.9212,521.851,28.491,0.0,0.0
1820,454.75,34.3083,36.284,156.798,104.548,4.52841,0.00616497,0.11002,20.9211,521.841,28.3584,0.0,0.0
1840,459.75,34.4076,35.8556,149.588,104.814,4.5683,0.00638087,0.109608,20.9221,521.841,28.3021,0.0,0.0
1860,464.75,34.4759,35.8595,154.994,105.022,4.53221,0.00605858,0.109551,20.9215,521.741,28.3917,0.0,0.0
1880,469.75,34.2432,35.7123,150.901,105.161,4.53554,,,,521.721,28.397,0.0,0.0
1900,474.75,34.3433,36.0126,152.042,105.234,4.48662,,,,521.701,28.5013,0.0,0.0
1911,477.5,34.249,36.2966,154.642,105.241,4.57543,,,,521.731,28.3248,0.0,0.0

File: Polyisocyanurate_Foam_Board_Cone_HF50Scan_221129_R2.csv
Names,Time,Stack TC,Smoke TC,Exh Press,Smoke Comp,Smoke Meas,CO Meter,CO2 Meter,O2 Meter,Sample Mass,Ext Coeff,Start Test,Flame Verif
Chan Gain,,500,500,1,1,1,1,1,1,1,1,1.0,1.0
Offset,,0,0,0.13918,0,0,0,0,0,0,0,0.0,0.0
Gain,,1,1,25.011,14.0162,15.5607,1,1,1,1.0009,1.02981,1.0,1.0
Units,sec,C,C,Pa,%,%,%,%,%,g,/m,,
Baseline,,32.5758,33.9245,155.022,104.619,4.47959,0.000799104,0.0930733,20.9491,-0.515048,28.4626,,
16,3.75,33.6426,33.6111,138.868,104.289,4.19458,0.0118733,0.224809,20.7092,527.436,29.0278,0.0,1.0
32,7.75,37.9175,36.7406,138.412,104.766,3.94954,0.0194699,0.401044,20.4793,526.966,29.6128,0.0,0.0
48,11.75,40.4861,40.0155,141.102,104.744,4.13379,0.0197247,0.45364,20.4138,526.505,29.199,0.0,0.0
64,15.75,42.16,43.3448,143.076,104.325,4.14376,0.0155726,0.405188,20.4946,526.205,29.141,0.0,0.0
80,19.75,43.2731,43.6148,148.493,104.661,4.30475,0.0111636,0.34202,20.5815,525.955,28.8258,0.0,0.0
96,23.75,44.126,44.6516,149.536,105.034,4.43771,0.00858221,0.297511,20.658,525.745,28.5831,0.0,0.0
112,27.75,43.9131,45.3188,141.557,105.223,4.40067,0.00703604,0.270369,20.6976,525.504,28.6751,0.0,0.0
128,31.75,44.4648,45.4041,148.905,105.081,4.45338,0.00595138,0.256915,20.7184,525.334,28.5553,0.0,0.0
144,35.75,44.1943,45.6501,148.376,104.601,4.45766,0.00534457,0.250874,20.7268,525.094,28.5053,0.0,0.0
160,39.75,44.5982,46.353,149.188,103.945,4.50942,0.00469184,0.245927,20.7355,524.934,28.3442,0.0,0.0
176,43.75,44.5007,46.4025,147.908,103.407,4.46098,0.00418459,0.234819,20.7564,524.774,28.3948,0.0,0.0
192,47.75,44.2794,46.5728,144.778,103.28,4.51559,0.00445986,0.217323,20.7837,524.664,28.2738,0.0,0.0
208,51.75,43.7325,46.3589,145.371,103.602,4.50087,0.00522294,0.201306,20.8077,524.493,28.3314,0.0,0.0
224,55.75,43.7724,46.2046,147.029,104.086,4.49707,0.00598614,0.203081,20.8054,524.303,28.3811,0.0,0.0
240,59.75,43.8599,46.7425,149.133,104.469,4.50182,0.0065947,0.217988,20.7863,524.083,28.4048,0.0,0.0
256,63.75,44.0755,46.7799,148.824,104.542,4.43439,0.00639049,0.240852,20.758,523.833,28.5475,0.0,0.0
272,67.75,44.3337,47.0509,152.603,104.252,4.51844,0.0058777,0.254598,20.7448,523.593,28.3528,0.0,0.0
288,71.75,44.548,47.5195,144.075,103.934,4.53079,0.00555473,0.247994,20.7533,523.432,28.3005,0.0,0.0
304,75.75,44.7057,47.0058,147.906,104.345,4.64191,0.00530539,0.22369,20.7854,523.282,28.1173,0.0,0.0
320,79.75,44.3419,47.1731,151.11,104.745,4.63004,0.00527845,0.200647,20.8094,523.192,28.175,0.0,0.0
336,83.75,43.9057,47.0491,150.377,104.562,4.70792,0.00555022,0.18728,20.8249,523.082,28.0085,0.0,0.0
352,87.75,43.8553,46.4149,151.971,104.386,4.64381,0.00587443,0.180286,20.8304,523.062,28.1171,0.0,0.0
368,91.75,42.9708,46.5775,149.384,104.746,4.66138,0.00615166,0.1763,20.8349,523.042,28.1142,0.0,0.0
384,95.75,43.0612,46.0139,149.016,105.062,4.67135,0.00642559,0.171449,20.842,522.992,28.122,0.0,0.0
400,99.75,42.5091,46.0341,148.075,105.194,4.68322,0.00662426,0.164979,20.8497,522.922,28.1104,0.0,0.0
416,103.75,42.4039,46.0982,148.382,105.12,4.67895,0.00657953,0.159652,20.8574,522.872,28.1123,0.0,0.0
432,107.75,42.066,45.3965,149.219,104.857,4.65283,0.00665992,0.15478,20.8634,522.802,28.1403,0.0,0.0
448,111.75,41.8758,45.1324,155.62,104.497,4.58635,0.00692122,0.150019,20.8702,522.762,28.2392,0.0,0.0
464,115.75,41.7059,44.8221,152.632,104.11,4.55691,0.00684595,0.146705,20.8742,522.722,28.2639,0.0,0.0
480,119.75,41.1854,44.4455,150.704,104.06,4.52699,0.00702399,0.143732,20.8782,522.682,28.319,0.0,0.0
496,123.75,40.6482,44.1874,153.054,103.789,4.58113,0.00726827,0.141284,20.8807,522.682,28.1881,0.0,0.0
512,127.75,40.4576,43.8474,152.98,103.565,4.50657,0.00733454,0.1404,20.8812,522.632,28.3168,0.0,0.0
528,131.75,40.3999,43.353,154.96,103.689,4.52414,0.0074103,0.13835,20.8849,522.552,28.2925,0.0,0.0
544,135.75,39.8072,43.2062,151.876,103.517,4.51464,0.00769339,0.134738,20.8886,522.462,28.2964,0.0,0.0
560,139.75,39.6654,42.5504,153.387,103.391,4.52556,0.00838164,0.13105,20.8936,522.452,28.2636,0.0,0.0
576,143.75,39.4723,42.6702,153.352,103.335,4.46621,0.00893618,0.12769,20.8973,522.422,28.3779,0.0,0.0
592,147.75,38.934,42.6329,150.184,103.343,4.54361,0.00937793,0.125295,20.8995,522.391,28.2234,0.0,0.0
608,151.75,38.9976,41.9452,154.337,103.385,4.4928,0.00980882,0.124355,20.8998,522.351,28.3287,0.0,0.0
624,155.75,38.9359,41.8094,153.097,103.473,4.54693,0.0100956,0.123649,20.8996,522.331,28.2282,0.0,0.0
640,159.75,38.5393,41.4807,152.277,103.582,4.50847,0.0101907,0.123044,20.9009,522.311,28.3144,0.0,0.0
656,163.75,38.4933,41.2235,155.167,103.701,4.53934,0.0106427,0.123425,20.9027,522.372,28.2632,0.0,0.0
672,167.75,38.1629,40.9922,152.308,103.857,4.48378,0.0104773,0.124412,20.9014,522.361,28.388,0.0,0.0
688,171.75,38.0131,40.7266,150.483,103.976,4.50847,0.0104618,0.124573,20.9009,522.341,28.3488,0.0,0.0
704,175.75,37.7696,40.6817,152.326,104.091,4.59442,0.0107825,0.124314,20.9011,522.291,28.1882,0.0,0.0
720,179.75,37.5922,40.0088,151.922,104.19,4.57733,0.0108769,0.123596,20.9023,522.301,28.2304,0.0,0.0
736,183.75,37.4491,40.1312,148.727,104.302,4.58682,0.0106667,0.123623,20.9022,522.271,28.2214,0.0,0.0
752,187.75,38.1859,40.1558,154.154,104.39,4.51892,0.0106756,0.123684,20.9022,522.241,28.3637,0.0,0.0
768,191.75,37.7749,40.4264,152.008,104.471,4.52841,0.010347,0.123231,20.9031,522.211,28.3518,0.0,0.0
784,195.75,37.8488,39.8103,151.978,104.527,4.56213,0.0105195,0.123166,20.903,522.161,28.2896,0.0,0.0
800,199.75,37.305,39.7386,156.564,104.594,4.53839,0.010896,0.123528,20.9014,522.121,28.3425,0.0,0.0
816,203.75,37.2807,39.7516,150.689,104.625,4.54076,0.0107351,0.124397,20.901,522.001,28.3405,0.0,0.0
832,207.75,37.5377,39.5892,152.496,104.646,4.52936,0.0105529,0.124553,20.9015,522.001,28.3651,0.0,0.0
848,211.75,37.0045,39.3668,150.466,104.665,4.55643,0.0104522,0.12408,20.9012,521.961,28.3128,0.0,0.0
864,215.75,37.1648,39.5704,149.532,104.666,4.55311,0.0104973,0.123515,20.9018,521.951,28.3195,0.0,0.0
880,219.75,36.663,39.5766,155.909,104.647,4.52509,0.010432,0.123573,20.902,521.901,28.3737,0.0,0.0
896,223.75,36.9259,39.4826,154.703,104.628,4.53696,0.0107692,0.124571,20.9014,521.891,28.3484,0.0,0.0
912,227.75,37.3151,38.9793,153.376,104.591,4.53079,0.0106817,0.124551,20.9008,521.851,28.3574,0.0,0.0
928,231.75,37.224,39.051,153.89,104.566,4.52224,0.0101403,0.123158,20.9037,521.851,28.3723,0.0,0.0
944,235.75,36.8647,38.8966,150.183,104.522,4.53174,0.00971155,0.121675,20.9062,521.881,28.3496,0.0,0.0
960,239.75,36.5785,39.4506,155.343,104.483,4.53554,0.00950874,0.121039,20.9061,521.791,28.3386,0.0,0.0
976,243.75,36.9366,38.8117,153.76,104.433,4.574,0.00940326,0.121415,20.906,521.831,28.258,0.0,0.0
992,247.75,36.6966,38.7735,156.104,104.368,4.52651,0.00904631,0.121182,20.9059,521.891,28.3467,0.0,0.0
1008,251.75,36.909,38.6753,150.637,104.337,4.49042,0.00866296,0.120396,20.9067,521.811,28.4163,0.0,0.0
1024,255.75,37.0158,38.767,151.959,104.302,4.55548,0.00835093,0.119538,20.9085,521.831,28.2833,0.0,0.0
1040,259.75,36.8802,38.5182,155.966,104.292,4.51559,0.00797046,0.118259,20.9096,521.771,28.3619,0.0,0.0
1056,263.75,36.6073,38.48,150.943,104.285,4.48567,0.00783707,0.117663,20.9105,521.731,28.4213,0.0,0.0
1072,267.75,36.4202,38.3917,150.884,104.28,4.50704,0.00755291,0.11715,20.9111,521.741,28.378,0.0,0.0
1088,271.75,36.7543,38.7088,150.498,104.279,4.48615,0.00722275,0.116594,20.9125,521.671,28.4199,0.0,0.0
1104,275.75,36.2135,37.9325,151.084,104.274,4.56403,0.00725203,0.116343,20.914,521.641,28.264,0.0,0.0
1120,279.75,36.026,37.5706,151.429,104.273,4.56213,0.00704364,0.115995,20.9143,521.561,28.2676,0.0,0.0
1136,283.75,36.3489,37.7528,148.719,104.274,4.55596,0.00732204,0.115884,20.9144,521.521,28.28,0.0,0.0
1152,287.75,35.5953,37.6183,152.668,104.275,4.55738,0.00713073,0.115665,20.9152,521.531,28.2772,0.0,0.0
1168,291.75,35.952,37.8878,151.854,104.279,4.53221,0.00690111,0.115463,20.9164,521.491,28.3276,0.0,0.0
1184,295.75,35.6503,37.8672,156.172,104.281,4.56925,0.00639153,0.114944,20.9159,521.481,28.2543,0.0,0.0
1200,299.75,36.1259,37.4763,151.721,104.289,4.48805,0.00591366,0.114652,20.9169,521.441,28.4169,0.0,0.0
1216,303.75,35.8373,37.5583,155.673,104.309,4.55786,0.00585173,0.114825,20.9173,521.481,28.2792,0.0,0.0
1232,307.75,35.7879,37.6284,149.037,104.337,4.58635,0.00582257,0.114548,20.9173,521.461,28.2253,0.0,0.0
1248,311.75,35.6099,37.2234,154.482,104.348,4.50609,0.00556443,0.114283,20.9174,521.501,28.3858,0.0,0.0
1264,315.75,35.3674,36.9916,151.953,104.361,4.54931,0.0054496,0.11391,20.9174,521.521,28.3007,0.0,0.0
1280,319.75,35.8083,37.2322,155.049,104.385,4.55358,0.00557314,0.113661,20.9174,521.521,28.2943,0.0,0.0
1296,323.75,35.6491,37.5451,153.147,104.41,4.55121,0.00528257,0.113773,20.9174,521.481,28.3012,0.0,0.0
1312,327.75,35.8004,37.7215,153.387,104.436,4.51132,0.00503523,0.113495,20.9192,521.491,28.3829,0.0,0.0
1328,331.75,35.7961,37.8068,151.282,104.468,4.53316,0.00490801,0.112589,20.9196,521.451,28.342,0.0,0.0
1344,335.75,35.6022,37.3012,154.839,104.487,4.53269,0.00507365,0.11192,20.9203,521.441,28.3446,0.0,0.0
1360,339.75,35.7344,37.684,153.216,104.506,4.53506,0.00490615,0.111206,20.9223,521.421,28.3416,0.0,0.0
1376,343.75,35.7588,37.359,159.469,104.549,4.48805,0.00486595,0.110974,20.9217,521.431,28.4394,0.0,0.0
1392,347.75,35.8384,37.2803,153.456,104.56,4.53934,0.00511928,0.110531,20.923,521.371,28.3377,0.0,0.0
1408,351.75,35.5498,37.322,150.299,104.575,4.50325,0.00500508,0.109845,20.9234,521.291,28.4111,0.0,0.0
1424,355.75,35.2641,36.9592,151.225,104.595,4.49945,0.00468841,0.109231,20.9234,521.28,28.4205,0.0,0.0
1440,359.75,35.0236,37.0805,153.003,104.614,4.54836,0.00495661,0.108426,20.9234,521.27,28.3244,0.0,0.0
1456,363.75,35.3656,37.3741,154.161,104.64,4.50325,0.00489871,0.107707,20.9256,521.24,28.4167,0.0,0.0
1472,367.75,35.4202,37.5928,151.301,104.643,4.55833,0.00480762,0.107198,20.9264,521.27,28.3072,0.0,0.0
1488,371.75,35.4611,37.2484,157.096,104.664,4.55643,0.00487631,0.106558,20.9266,521.24,28.3127,0.0,0.0
1504,375.75,35.5659,37.2814,155.591,104.678,4.55786,0.00495763,0.105956,20.9266,521.25,28.3111,0.0,0.0
1520,379.75,35.3752,37.7449,152.147,104.685,4.55311,0.00492865,0.105302,20.9284,521.25,28.3211,0.0,0.0
1536,383.75,35.0148,37.1314,155.962,104.698,4.5023,,0.104946,,521.24,28.4237,0.0,0.0
1552,387.75,35.1175,37.0069,150.822,104.698,4.50942,,,,521.28,28.4093,0.0,0.0
1568,391.75,35.6111,37.1563,153.979,104.686,4.50515,,,,521.311,28.4169,0.0,0.0
1577,394,34.6923,36.7059,153.357,104.675,4.55073,,,,521.301,28.325,0.0,0.0