Folder: fsri_materials_database/01_Data/Polyisocyanurate_Foam_Board/Cone (part 6)

File: Polyisocyanurate_Foam_Board_Cone_HF75Scan_221202_R3.csv
Names,Time,Stack TC,Smoke TC,Exh Press,Smoke Comp,Smoke Meas,CO Meter,CO2 Meter,O2 Meter,Sample Mass,Ext Coeff,Start Test,Flame Verif
Chan Gain,,500,500,1,1,1,1,1,1,1,1,1.0,1.0
Offset,,0,0,0.13918,0,0,0,0,0,0,0,0.0,0.0
Gain,,1,1,25.011,14.0162,15.5607,1,1,1,1.0009,1.02981,1.0,1.0
Units,sec,C,C,Pa,%,%,%,%,%,g,/m,,
Baseline,,44.4693,46.4313,150.427,104.379,4.87849,0.000726437,0.0904232,20.9523,-2.14878,27.6713,,
11,2.5,43.4711,44.9783,133.823,104.216,4.27056,0.0134959,0.205409,20.7415,525.484,28.8593,0.0,1.0
22,5.25,46.7826,46.6417,126.808,104.168,3.97756,0.0257311,0.421675,20.4575,525.004,29.4972,0.0,1.0
33,8,51.1688,50.6205,123.475,104.122,3.73585,0.0315492,0.579832,20.2354,524.483,30.0596,0.0,0.0
44,10.75,53.8649,53.6185,134.045,104.253,4.14519,0.0286962,0.605585,20.1983,524.103,29.1317,0.0,0.0
55,13.5,55.3509,56.3383,141.709,104.378,4.41349,0.0225353,0.54091,20.2836,523.793,28.5759,0.0,0.0
66,16.25,56.6258,57.4212,141.347,104.528,4.5023,0.0169,0.461093,20.4062,523.492,28.409,0.0,0.0
77,19,56.8485,58.7449,138.571,104.681,4.64808,0.013051,0.398434,20.4985,523.442,28.1343,0.0,0.0
88,21.75,57.3196,58.8668,142.84,104.794,4.59015,0.0108956,0.359289,20.5546,523.212,28.2573,0.0,0.0
99,24.5,57.9948,59.3003,138.481,104.856,4.62006,0.00975215,0.338878,20.5844,522.892,28.2041,0.0,0.0
110,27.25,58.3229,60.0489,135.353,104.916,4.574,0.00890476,0.331176,20.5979,522.732,28.2997,0.0,0.0
121,30,58.8682,60.0879,138.077,104.946,4.62766,0.00806846,0.327852,20.6084,522.562,28.1969,0.0,0.0
132,32.75,58.7023,60.9603,140.973,104.971,4.63384,0.00770265,0.32613,20.6149,522.372,28.187,0.0,0.0
143,35.5,59.1123,61.6096,140.925,104.946,4.68655,0.00795532,0.325833,20.6196,522.131,28.0827,0.0,0.0
154,38.25,59.5802,61.9461,139.833,104.906,4.65568,0.00816043,0.326273,20.6226,521.871,28.139,0.0,0.0
165,41,59.6639,62.1973,136.421,104.846,4.78105,0.00796102,0.328115,20.6248,521.731,27.8938,0.0,0.0
176,43.75,60.0129,62.593,137.348,104.779,4.57258,0.00766971,0.329002,20.6274,521.511,28.2907,0.0,0.0
187,46.5,59.9101,62.7666,138.027,104.699,4.68702,0.00729746,0.33041,20.6278,521.341,28.0605,0.0,0.0
198,49.25,60.3653,63.139,135.297,104.587,4.72881,0.00664641,0.325997,20.6344,521.08,27.9707,0.0,0.0
209,52,60.5452,63.6831,141.074,104.504,4.84041,0.00622853,0.319286,20.6432,520.87,27.7528,0.0,0.0
220,54.75,60.6885,63.7014,138.364,104.552,4.86273,0.00555809,0.310998,20.6575,520.74,27.7154,0.0,0.0
231,57.5,60.5777,63.5878,138.41,104.61,4.83708,0.00490627,0.290201,20.6857,520.7,27.7681,0.0,0.0
242,60.25,59.7756,63.8472,143.73,104.663,4.91734,0.00425177,0.265741,20.7156,520.54,27.6241,0.0,0.0
253,63,59.6302,63.6462,143.819,104.686,4.90831,0.00376021,0.241777,20.7475,520.48,27.6427,0.0,0.0
264,65.75,59.0811,63.6782,141.857,104.732,4.9615,0.00356708,0.222847,20.771,520.44,27.5492,0.0,0.0
275,68.5,58.6327,62.6619,145.122,104.805,4.91639,0.00352995,0.208548,20.7887,520.42,27.638,0.0,0.0
286,71.25,58.1646,62.0036,142.282,104.864,4.99237,0.00356915,0.196319,20.8065,520.35,27.5046,0.0,0.0
297,74,57.8406,62.3313,145.084,104.935,4.97432,0.00368668,0.186003,20.8217,520.33,27.5434,0.0,0.0
308,76.75,57.2898,61.7447,143.813,104.986,4.971,0.00383007,0.175447,20.8362,520.23,27.5539,0.0,0.0
319,79.5,57.0023,61.4211,148.19,105.041,5.00899,0.00381006,0.167313,20.8475,520.24,27.4898,0.0,0.0
330,82.25,56.6041,60.9089,144.788,105.107,5.00994,0.00392064,0.161549,20.8563,520.21,27.4938,0.0,0.0
341,85,56.5342,60.7936,144.381,105.154,4.95913,0.00424675,0.156399,20.8623,520.22,27.5899,0.0,0.0
352,87.75,55.5518,60.1632,145.684,105.186,5.00186,0.00457378,0.152698,20.8672,520.109,27.5151,0.0,0.0
363,90.5,55.1766,59.6064,144.673,105.227,4.98524,0.00476726,0.150364,20.8713,520.069,27.5487,0.0,0.0
374,93.25,54.9067,59.1547,147.446,105.254,4.94868,0.00483861,0.148385,20.874,520.079,27.6175,0.0,0.0
385,96,54.2063,58.8767,145.887,105.286,5.02466,0.00483481,0.146543,20.8763,520.109,27.4827,0.0,0.0
396,98.75,54.046,58.5416,147.24,105.329,4.9482,0.00473461,0.145424,20.8775,520.099,27.6248,0.0,0.0
407,101.5,53.8264,58.0547,147.395,105.31,4.92921,0.00478596,0.144696,20.879,519.999,27.6579,0.0,0.0
418,104.25,53.4669,57.721,148.381,105.347,4.94535,0.0049926,0.143887,20.8795,519.949,27.6316,0.0,0.0
429,107,52.7307,57.6035,142.88,105.371,4.96198,0.00501185,0.143492,20.8796,519.949,27.6033,0.0,0.0
440,109.75,52.8975,57.3001,142.93,105.392,4.99807,0.00480362,0.143349,20.8797,520.029,27.5397,0.0,0.0
451,112.5,51.9109,56.9906,148.618,105.412,4.91876,0.00494082,0.143345,20.8797,519.919,27.6859,0.0,0.0
462,115.25,52.5117,56.6708,145.519,105.421,4.9539,0.00527028,0.143336,20.8797,519.909,27.6223,0.0,0.0
473,118,51.9751,56.573,147.86,105.43,4.98097,0.00519168,0.143292,20.881,519.879,27.5739,0.0,0.0
484,120.75,52.2776,56.4254,146.333,105.443,4.96387,0.00506179,0.143256,20.8817,519.849,27.6061,0.0,0.0
495,123.5,51.812,55.5837,146.442,105.463,4.90262,0.00519846,0.142901,20.8819,519.919,27.7199,0.0,0.0
506,126.25,51.6768,55.7038,148.268,105.453,4.97812,0.00519616,0.143077,20.882,519.769,27.581,0.0,0.0
517,129,51.4459,55.6694,147.832,105.454,4.98192,0.00512174,0.14237,20.882,519.769,27.5742,0.0,0.0
528,131.75,51.2079,55.093,144.768,105.462,4.95675,0.00517798,0.142027,20.8815,519.719,27.6207,0.0,0.0
539,134.5,51.1267,55.2685,151.297,105.457,4.90689,0.00523893,0.14189,20.8815,519.799,27.7116,0.0,0.0
550,137.25,51.2622,55.1589,146.172,105.469,4.91591,0.00516297,0.141322,20.885,519.819,27.696,0.0,0.0
561,140,50.6434,53.9728,150.722,105.457,4.94441,0.00498826,0.1408,20.8867,519.709,27.6427,0.0,0.0
572,142.75,50.4222,53.8036,142.997,105.471,4.94298,0.00472212,0.140552,20.8877,519.689,27.6465,0.0,0.0
583,145.5,50.3856,53.8675,143.231,105.483,4.99949,0.00450308,0.140445,20.888,519.649,27.5449,0.0,0.0
594,148.25,50.4949,53.6712,145.284,105.464,4.97717,0.00442053,0.140407,20.8881,519.699,27.5837,0.0,0.0
605,151,49.9608,53.6781,145.3,105.47,4.94156,0.00454888,0.140142,20.8896,519.659,27.6491,0.0,0.0
616,153.75,50.132,53.095,144.389,105.476,5.01659,0.00461957,0.139364,20.8902,519.569,27.5135,0.0,0.0
627,156.5,49.9882,53.4473,146.899,105.457,4.96577,0.00447047,0.138401,20.8912,519.539,27.6038,0.0,0.0
638,159.25,49.9134,53.4184,149.504,105.454,4.96862,0.00440679,0.137579,20.8917,519.529,27.5984,0.0,0.0
649,162,49.4085,53.1862,146.042,105.472,4.9615,0.00436789,0.136729,20.8926,519.599,27.6129,0.0,0.0
660,164.75,49.395,53.2539,145.155,105.466,4.97622,0.00453727,0.136353,20.8933,519.459,27.5856,0.0,0.0
671,167.5,49.9623,53.0258,145.542,105.457,4.91686,0.0046082,0.13624,20.8935,519.389,27.6932,0.0,0.0
682,170.25,49.1795,52.4789,143.565,105.458,4.97717,0.00451909,0.135705,20.8936,519.429,27.5832,0.0,0.0
693,173,49.1279,52.6937,146.314,105.454,4.94915,0.00434461,0.135138,20.8936,519.459,27.6338,0.0,0.0
704,175.75,49.4642,52.8315,149,105.458,4.90499,0.00448139,0.134571,20.894,519.509,27.7151,0.0,0.0
715,178.5,49.1832,52.3721,145.876,105.445,4.99617,0.0047639,0.134716,20.8953,519.329,27.5476,0.0,0.0
726,181.25,49.3211,52.3713,145.968,105.445,4.93253,0.00482378,0.134141,20.8957,519.349,27.6634,0.0,0.0
737,184,48.8456,51.9411,149.606,105.445,4.94773,0.00474028,0.133514,20.8954,519.279,27.6357,0.0,0.0
748,186.75,49.04,51.9253,148.886,105.447,4.93348,0.00460606,0.133037,20.8953,519.379,27.6619,0.0,0.0
759,189.5,49.1072,52.1607,147.701,105.442,4.9691,0.00460269,0.132484,20.8969,519.369,27.5965,0.0,0.0
770,192.25,49.02,52.3542,141.3,105.423,4.90452,0.00474693,0.131723,20.8974,519.259,27.713,0.0,0.0
781,195,49.0085,52.198,146.925,105.406,4.95865,0.00470449,0.130998,20.899,519.229,27.6124,0.0,0.0
792,197.75,48.174,51.9488,146.335,105.409,4.93918,0.00470525,0.130401,20.8996,519.209,27.6482,0.0,0.0
803,200.5,48.5875,52.0984,148.41,105.398,4.94108,0.00464079,0.130189,20.8998,519.279,27.6438,0.0,0.0
814,203.25,48.1397,51.5024,151.397,105.382,5.00092,0.00469927,0.130028,20.8999,519.179,27.5336,0.0,0.0
825,206,48.617,51.2992,145.557,105.343,4.94061,0.0048351,0.129571,20.9009,519.149,27.6399,0.0,0.0
836,208.75,48.9058,51.7278,149.055,105.311,4.94915,0.00477484,0.129154,20.9028,519.119,27.6216,0.0,0.0
847,211.5,48.6348,51.6479,145.998,105.294,4.88932,0.00453079,0.128454,20.9053,519.159,27.7299,0.0,0.0
858,214.25,48.9041,51.506,148.581,105.254,4.91734,0.00426875,0.127516,20.9061,519.199,27.6749,0.0,0.0
869,217,48.222,51.1942,146.491,105.202,4.92493,0.00404149,0.126747,20.9064,519.078,27.6565,0.0,0.0
880,219.75,48.8898,51.7148,144.81,105.167,4.96435,0.00397554,0.126144,20.9081,518.998,27.5815,0.0,0.0
891,222.5,48.8555,51.3837,145.901,105.106,4.93823,0.00405767,0.125485,20.9095,519.008,27.6239,0.0,0.0
902,225.25,48.7014,51.6789,146.36,105.065,4.90452,0.00396761,0.124539,20.9106,519.129,27.6823,0.0,0.0
913,228,48.141,51.1979,150.14,105.02,4.95438,0.003809,0.123458,20.9114,519.109,27.587,0.0,0.0
924,230.75,48.2452,50.9178,145.103,104.956,4.93633,0.00381884,0.122512,20.9128,518.998,27.6145,0.0,0.0
935,233.5,48.7065,51.8819,145.965,104.901,4.92683,0.00386164,0.121849,20.9132,518.958,27.6271,0.0,0.0
946,236.25,47.9204,50.802,149.88,104.844,4.93348,0.00349777,0.121176,20.9134,518.978,27.6101,0.0,0.0
957,239,48.314,51.0973,145.903,104.802,4.91734,0.00316425,0.120321,20.915,519.068,27.6361,0.0,0.0
968,241.75,48.2766,50.7375,148.569,104.75,4.90024,0.00304462,0.119696,20.9155,518.948,27.663,0.0,0.0
979,244.5,48.4071,50.9552,145.598,104.698,4.86842,0.00303748,0.11906,20.9157,518.968,27.7174,0.0,0.0
990,247.25,48.0782,51.0304,146.209,104.659,4.91544,,0.118347,,518.918,27.6272,0.0,0.0
1001,250,48.0128,50.8292,147.809,104.623,4.93681,,,,518.928,27.5849,0.0,0.0
1012,252.75,48.2121,50.7591,149.009,104.597,4.96577,,,,519.018,27.5298,0.0,0.0
1023,255.5,48.1282,50.8675,144.922,104.548,4.86937,,,,518.868,27.7027,0.0,0.0
1031,257.5,48.3264,50.7934,144.262,104.532,4.87745,,,,518.878,27.6863,0.0,0.0

File: Polyisocyanurate_Foam_Board_Cone_HF75Scan_221202_R4.csv
Names,Time,Stack TC,Smoke TC,Exh Press,Smoke Comp,Smoke Meas,CO Meter,CO2 Meter,O2 Meter,Sample Mass,Ext Coeff,Start Test,Flame Verif
Chan Gain,,500,500,1,1,1,1,1,1,1,1,1.0,1.0
Offset,,0,0,0.13918,0,0,0,0,0,0,0,0.0,0.0
Gain,,1,1,25.011,14.0162,15.5607,1,1,1,1.0009,1.02981,1.0,1.0
Units,sec,C,C,Pa,%,%,%,%,%,g,/m,,
Baseline,,44.3436,46.182,150.489,105.145,4.82582,0.000780635,0.0913379,20.9499,-2.40258,27.8355,,
11,2.5,43.2174,44.211,127.689,104.209,4.07206,0.012781,0.198661,20.7746,525.094,29.2887,0.0,1.0
22,5.25,45.5757,45.7805,127.14,104.215,3.88116,0.0245461,0.396408,20.4791,524.654,29.7229,0.0,0.0
33,8,49.8429,49.874,125.188,104.257,4.00605,0.0297311,0.560538,20.2691,524.213,29.4405,0.0,0.0
44,10.75,52.7753,52.3338,136.981,104.314,4.2093,0.0267167,0.58389,20.2205,523.783,28.9983,0.0,0.0
55,13.5,54.4312,54.6613,137.804,104.411,4.3964,0.0205794,0.514471,20.3312,523.492,28.6139,0.0,0.0
66,16.25,55.3213,56.2484,137.21,104.508,4.45433,0.0156872,0.437962,20.4397,523.212,28.504,0.0,0.0
77,19,55.4612,56.6578,139.226,104.607,4.50799,0.01254,0.38121,20.5132,523.122,28.4044,0.0,0.0
88,21.75,55.8267,57.4444,137.643,104.713,4.56213,0.010451,0.345414,20.5629,522.912,28.3057,0.0,0.0
99,24.5,56.1633,57.9146,137.9,104.766,4.58967,0.00896054,0.326578,20.6003,522.662,28.2559,0.0,0.0
110,27.25,56.755,58.3718,139.182,104.811,4.65236,0.00808345,0.312457,20.6263,522.502,28.1373,0.0,0.0
121,30,57.033,58.6143,138.965,104.865,4.69984,0.0075624,0.302382,20.6433,522.391,28.0501,0.0,0.0
132,32.75,56.8848,59.311,140.37,104.892,4.66423,0.00714573,0.295796,20.6553,522.211,28.1212,0.0,0.0
143,35.5,57.128,59.1802,142,104.889,4.65568,0.00703561,0.292945,20.6635,521.991,28.1375,0.0,0.0
154,38.25,57.4935,59.2525,139.751,104.862,4.63906,0.00723921,0.295664,20.665,521.791,28.1674,0.0,0.0
165,41,57.5665,60.4331,142.195,104.81,4.73071,0.00738627,0.299483,20.6651,521.591,27.9863,0.0,0.0
176,43.75,58.6092,60.9071,135.237,104.749,4.57068,0.00744142,0.299073,20.6685,521.461,28.2918,0.0,0.0
187,46.5,58.2263,60.4289,140.667,104.681,4.52177,0.00779764,0.301589,20.667,521.23,28.3832,0.0,0.0
198,49.25,58.3686,60.8035,140.417,104.57,4.58397,0.00812361,0.31467,20.6491,521.02,28.2502,0.0,0.0
209,52,58.5816,61.5941,143.757,104.461,4.69177,0.00772852,0.32045,20.6459,520.84,28.0308,0.0,0.0
220,54.75,58.7175,62.0663,143.727,104.34,4.7573,0.00653411,0.306406,20.673,520.68,27.895,0.0,0.0
231,57.5,58.4968,61.8342,142.854,104.236,4.77582,0.00552216,0.278786,20.7023,520.58,27.8509,0.0,0.0
242,60.25,58.0554,61.536,138.708,104.118,4.73783,0.00463482,0.256721,20.7311,520.5,27.9128,0.0,0.0
253,63,58.1014,61.6157,140.331,103.991,4.90784,0.00413178,0.238159,20.7524,520.43,27.5833,0.0,0.0
264,65.75,57.2841,61.2644,142.75,103.9,4.82948,0.00386648,0.223831,20.7667,520.35,27.7208,0.0,0.0
275,68.5,57.5624,61.2804,143.411,103.797,4.83233,0.00367413,0.210024,20.7869,520.3,27.7065,0.0,0.0
286,71.25,56.6447,60.6245,142.291,103.74,4.84421,0.00365921,0.194495,20.8082,520.32,27.6794,0.0,0.0
297,74,56.2278,60.7055,148.058,103.661,4.88505,0.00391296,0.182273,20.8232,520.18,27.5967,0.0,0.0
308,76.75,56.0399,60.0077,145.954,103.609,4.88362,0.0043013,0.17302,20.8379,520.159,27.5948,0.0,0.0
319,79.5,55.7756,59.9057,147.439,103.592,4.84801,0.00453638,0.166951,20.8478,520.139,27.6594,0.0,0.0
330,82.25,54.6606,58.9196,147.95,103.6,4.84373,0.00463134,0.161434,20.8557,520.159,27.6681,0.0,0.0
341,85,54.4971,58.9242,151.339,103.644,4.8575,0.00450544,0.156887,20.8622,520.129,27.6463,0.0,0.0
352,87.75,54.3312,58.3465,144.142,103.689,4.97575,0.00452407,0.153754,20.865,520.009,27.4329,0.0,0.0
363,90.5,54.3739,58.5451,147.871,103.758,4.86605,0.00465909,0.151047,20.8688,519.989,27.6403,0.0,0.0
374,93.25,53.882,57.988,147.227,103.853,4.83471,0.00461781,0.148275,20.8718,519.959,27.7069,0.0,0.0
385,96,53.0799,57.8047,152.521,103.967,4.83376,0.00466615,0.146083,20.8737,520.039,27.7186,0.0,0.0
396,98.75,53.3127,57.361,143.764,104.087,4.92399,0.00474443,0.143952,20.878,519.979,27.562,0.0,0.0
407,101.5,52.7257,56.712,154.16,104.199,4.89882,0.00472944,0.143013,20.8797,519.929,27.618,0.0,0.0
418,104.25,52.7796,56.6421,143.683,104.341,4.86178,0.00482753,0.141949,20.8808,519.879,27.6988,0.0,0.0
429,107,52.5703,56.3801,147.098,104.488,4.96482,0.00502789,0.140806,20.8829,519.869,27.5221,0.0,0.0
440,109.75,51.786,56.252,147.316,104.643,4.9824,0.00531862,0.139419,20.8844,519.909,27.5036,0.0,0.0
451,112.5,52.1524,56.1725,141.966,104.791,4.93823,0.00540761,0.138631,20.8872,519.799,27.5968,0.0,0.0
462,115.25,51.4387,55.2643,147.437,104.917,4.9672,0.00533945,0.137875,20.8884,519.799,27.5548,0.0,0.0
473,118,51.247,55.9104,148.043,105.029,4.86178,0.00524151,0.137186,20.8904,519.749,27.7582,0.0,0.0
484,120.75,51.1022,55.3119,149.911,105.141,4.8841,0.00522021,0.136361,20.8915,519.809,27.7265,0.0,0.0
495,123.5,50.8193,54.9781,143.526,105.25,4.84563,0.00529621,0.136118,20.8919,519.809,27.8073,0.0,0.0
506,126.25,50.8914,54.8909,145.028,105.324,4.8727,0.00526819,0.135803,20.892,519.659,27.7633,0.0,0.0
517,129,50.8326,54.4605,148.047,105.39,4.92114,0.00538343,0.135479,20.8921,519.689,27.6796,0.0,0.0
528,131.75,50.6819,54.2939,148.754,105.442,4.84326,0.00559142,0.135638,20.8907,519.659,27.8281,0.0,0.0
539,134.5,50.357,54.3739,148.22,105.487,4.89834,0.00559399,0.13556,20.8902,519.719,27.7299,0.0,0.0
550,137.25,50.4361,53.9159,146.15,105.499,4.89502,0.00538113,0.135197,20.8908,519.719,27.737,0.0,0.0
561,140,49.6503,53.4202,144.946,105.498,4.82426,0.00528868,0.134902,20.8912,519.619,27.8685,0.0,0.0
572,142.75,49.7256,53.3831,144.814,105.472,4.94488,0.00524738,0.134685,20.8927,519.589,27.6432,0.0,0.0
583,145.5,49.5306,53.0808,146.763,105.471,4.97052,0.00515851,0.134044,20.8934,519.559,27.5964,0.0,0.0
594,148.25,49.1145,52.7971,148.879,105.442,4.90689,0.00493869,0.13341,20.8933,519.649,27.7103,0.0,0.0
605,151,49.0208,52.8837,146.299,105.395,4.94251,0.004714,0.13277,20.8936,519.609,27.6409,0.0,0.0
616,153.75,49.1693,52.3262,146.638,105.321,4.91686,0.00472751,0.132781,20.8947,519.509,27.6816,0.0,0.0
627,156.5,48.6798,52.2631,149.382,105.276,4.91354,0.0049146,0.13237,20.895,519.479,27.6838,0.0,0.0
638,159.25,48.6804,52.144,146.384,105.204,4.8746,0.0050407,0.131991,20.8958,519.449,27.7495,0.0,0.0
649,162,49.1694,51.7814,148.904,105.155,4.90452,0.00499316,0.131501,20.8978,519.509,27.69,0.0,0.0
660,164.75,48.6334,52.1488,149.806,105.06,4.92399,0.00470811,0.130895,20.8985,519.399,27.6461,0.0,0.0
671,167.5,48.9252,52.1579,147.582,104.978,4.90689,0.00444677,0.130597,20.8987,519.389,27.6705,0.0,0.0
682,170.25,48.9992,51.5524,147.967,104.894,4.95675,0.00434442,0.130285,20.8988,519.379,27.5718,0.0,0.0
693,173,48.4475,51.885,145.736,104.826,4.93776,0.00444588,0.129774,20.8994,519.369,27.6007,0.0,0.0
704,175.75,48.1221,51.597,148.247,104.749,4.93063,0.00453635,0.128936,20.9006,519.399,27.6071,0.0,0.0
715,178.5,48.2312,51.9395,147.86,104.661,4.93301,0.00462201,0.128533,20.901,519.329,27.5951,0.0,0.0
726,181.25,48.2773,51.3001,145.597,104.597,4.9691,0.00480971,0.128411,20.9008,519.319,27.5238,0.0,0.0
737,184,47.9689,51.6351,146.545,104.583,4.95913,0.00504079,0.128004,20.9008,519.269,27.5407,0.0,0.0
748,186.75,47.7559,51.6088,145.979,104.743,4.92161,0.0049327,0.127464,20.9017,519.339,27.6231,0.0,0.0
759,189.5,47.5988,51.1936,148.163,104.868,4.96198,0.00453824,0.126813,20.9032,519.329,27.5601,0.0,0.0
770,192.25,48.1002,51.0703,146.878,104.947,4.8841,0.0042341,0.126295,20.9035,519.249,27.7098,0.0,0.0
781,195,47.5856,50.9011,148.773,105.009,4.92066,0.00423143,0.125817,20.9036,519.229,27.6478,0.0,0.0
792,197.75,47.9316,50.8872,150.192,105.042,4.93063,0.00426683,0.125773,20.9036,519.239,27.6323,0.0,0.0
803,200.5,47.9933,50.8823,146.77,105.089,4.89169,0.00424166,0.12562,20.9053,519.279,27.708,0.0,0.0
814,203.25,47.7956,50.6791,145.558,105.034,4.95818,0.00419152,0.12512,20.9061,519.159,27.5813,0.0,0.0
825,206,47.9989,50.9795,145.042,104.977,4.91734,0.00423467,0.125017,20.9053,519.149,27.6511,0.0,0.0
836,208.75,48.0381,50.4229,148.355,104.899,4.90641,0.00433609,0.125075,20.9052,519.129,27.6645,0.0,0.0
847,211.5,47.5344,50.8145,145.134,104.807,4.93396,0.00434091,0.124842,20.9051,519.109,27.606,0.0,0.0
858,214.25,47.8067,50.4107,148.166,104.687,4.96198,0.00419532,0.124608,20.9051,519.179,27.5445,0.0,0.0
869,217,47.8205,50.5798,147.361,104.539,4.87507,0.00399298,0.123936,20.9067,519.089,27.6913,0.0,0.0
880,219.75,47.6441,50.8087,150.112,104.365,4.88362,0.00383917,0.123982,20.9072,519.059,27.6604,0.0,0.0
891,222.5,47.863,50.1861,146.38,104.229,4.89359,0.00378964,0.12376,20.9074,519.099,27.6302,0.0,0.0
902,225.25,47.7581,50.5825,148.463,104.193,4.83613,0.00369845,0.123161,20.9074,519.149,27.7339,0.0,0.0
913,228,47.6316,50.131,145.721,104.242,4.94108,0.00362071,0.122491,20.9095,519.129,27.5441,0.0,0.0
924,230.75,47.5521,50.34,145.819,104.293,4.85513,0.00365933,0.122339,20.9102,519.008,27.7071,0.0,0.0
935,233.5,47.4904,50.4987,147.966,104.346,4.89644,0.00381322,0.122368,20.9099,518.958,27.6351,0.0,0.0
946,236.25,47.6611,50.2063,147.473,104.412,4.93776,0.00396528,0.122045,20.9107,518.958,27.5649,0.0,0.0
957,239,47.511,50.2827,147.352,104.488,4.9501,0.00401303,0.121801,20.9117,519.059,27.549,0.0,0.0
968,241.75,47.2803,49.9016,148.791,104.567,4.89169,0.00389506,0.121361,20.9119,518.988,27.663,0.0,0.0
979,244.5,47.5955,49.8285,148.31,104.626,4.97907,0.00368104,0.120649,20.912,518.908,27.5082,0.0,0.0
990,247.25,47.4666,50.0654,143.569,104.685,4.87032,0.00326901,0.120078,20.9135,518.898,27.7127,0.0,0.0
1001,250,47.1821,50.2604,150.988,104.753,4.83898,,0.119293,,518.908,27.777,0.0,0.0
1012,252.75,47.2853,49.9021,150.888,104.817,4.94725,,,,518.978,27.5826,0.0,0.0
1023,255.5,47.4721,50.2424,143.615,104.848,4.96292,,,,518.858,27.5566,0.0,0.0
1034,258.25,47.7001,50.3398,146.041,104.862,4.95295,,,,518.868,27.576,0.0,0.0
1037,259,47.5972,50.2535,145.122,104.863,4.89692,,,,518.868,27.6789,0.0,0.0