Folder: fsri_materials_database/01_Data/Polyisocyanurate_Foam_Board/Cone (part 4)

File: Polyisocyanurate_Foam_Board_Cone_HF50Scan_221129_R3.csv
Names,Time,Stack TC,Smoke TC,Exh Press,Smoke Comp,Smoke Meas,CO Meter,CO2 Meter,O2 Meter,Sample Mass,Ext Coeff,Start Test,Flame Verif
Chan Gain,,500,500,1,1,1,1,1,1,1,1,1.0,1.0
Offset,,0,0,0.13918,0,0,0,0,0,0,0,0.0,0.0
Gain,,1,1,25.011,14.0162,15.5607,1,1,1,1.0009,1.02981,1.0,1.0
Units,sec,C,C,Pa,%,%,%,%,%,g,/m,,
Baseline,,32.6215,33.8718,155.268,104.066,4.41305,0.000975547,0.0966528,20.9418,-0.673776,28.5499,,
16,3.75,32.9491,33.3256,141.329,105.232,3.96094,0.012148,0.227653,20.7334,524.313,29.6269,0.0,1.0
32,7.75,37.0111,36.3595,137.262,105.308,3.86074,0.0200854,0.397325,20.4869,523.803,29.8648,0.0,0.0
48,11.75,40.2003,39.6072,143.42,105.325,3.83415,0.0195539,0.452145,20.414,523.342,29.9287,0.0,0.0
64,15.75,41.9525,42.1147,143.704,105.273,4.13997,0.0147713,0.413797,20.4837,522.972,29.2311,0.0,0.0
80,19.75,43.1644,43.0901,143.11,105.184,4.22164,0.0108968,0.348608,20.5745,522.742,29.0469,0.0,0.0
96,23.75,43.5872,43.9408,144.778,105.035,4.28718,0.00845757,0.304456,20.6399,522.502,28.895,0.0,0.0
112,27.75,43.7684,44.7485,147.72,104.885,4.34796,0.00717409,0.280766,20.6771,522.321,28.7549,0.0,0.0
128,31.75,44.0399,45.4352,147.887,104.717,4.36221,0.00605522,0.265612,20.7019,522.121,28.7108,0.0,0.0
144,35.75,44.1807,45.2895,146.254,104.584,4.34274,0.00557781,0.25894,20.7143,521.921,28.7397,0.0,0.0
160,39.75,44.3548,46.0315,145.887,104.462,4.44531,0.00517221,0.249527,20.7318,521.671,28.5184,0.0,0.0
176,43.75,44.2774,46.1485,148.188,104.468,4.48662,0.00521317,0.22347,20.7741,521.491,28.4353,0.0,0.0
192,47.75,43.8818,45.8825,148.728,104.695,4.55453,0.00564312,0.201977,20.802,521.331,28.3192,0.0,0.0
208,51.75,43.7341,45.5021,147.836,104.821,4.53411,0.00641584,0.203744,20.801,521.16,28.3706,0.0,0.0
224,55.75,43.9886,45.9698,144.4,104.886,4.48283,0.00647622,0.231643,20.7653,520.95,28.479,0.0,0.0
240,59.75,44.4136,46.4636,146.219,104.889,4.4078,0.00631558,0.266144,20.7209,520.71,28.6317,0.0,0.0
256,63.75,44.484,47.4333,142.293,104.825,4.42299,0.0061301,0.285,20.7025,520.42,28.5951,0.0,0.0
272,67.75,44.8111,47.5138,148.544,104.732,4.48805,0.00527108,0.272814,20.7145,520.189,28.4552,0.0,0.0
288,71.75,44.9603,47.4687,150.124,104.549,4.56355,0.00478263,0.247026,20.743,520.119,28.2887,0.0,0.0
304,75.75,44.8415,47.5504,150.327,104.312,4.52034,0.00502087,0.220792,20.7775,520.059,28.3542,0.0,0.0
320,79.75,43.8116,47.8991,148.713,104.069,4.51987,0.00505274,0.203529,20.7988,519.959,28.334,0.0,0.0
336,83.75,44.1693,46.939,148.798,104.045,4.56213,0.00510687,0.195022,20.8071,519.879,28.2478,0.0,0.0
352,87.75,44.1844,46.5449,151.339,104.113,4.50657,0.00527912,0.18819,20.8161,519.829,28.3645,0.0,0.0
368,91.75,43.4163,46.6693,151.731,104.183,4.55881,0.00575211,0.178207,20.8295,519.789,28.2664,0.0,0.0
384,95.75,43.3264,45.8546,149.65,104.262,4.52509,0.00623098,0.169026,20.8408,519.719,28.3404,0.0,0.0
400,99.75,41.9272,46.1061,156.089,104.376,4.52129,0.00645905,0.161045,20.8522,519.669,28.3578,0.0,0.0
416,103.75,42.0613,44.9523,149.43,104.513,4.55833,0.00687234,0.153848,20.8621,519.639,28.2959,0.0,0.0
432,107.75,41.9674,44.5812,152.792,104.597,4.52556,0.00721524,0.148194,20.8704,519.609,28.3684,0.0,0.0
448,111.75,40.8866,44.7668,150.638,104.648,4.53554,0.00740349,0.144951,20.8755,519.559,28.3529,0.0,0.0
464,115.75,41.3936,44.046,148.631,104.671,4.57685,0.00770811,0.141777,20.8783,519.469,28.273,0.0,0.0
480,119.75,40.4147,44.6052,150.742,104.643,4.60724,0.00795441,0.139463,20.8811,519.399,28.2108,0.0,0.0
496,123.75,40.4048,43.8648,151.136,104.612,4.52224,0.00819479,0.137622,20.8853,519.349,28.3763,0.0,0.0
512,127.75,39.9676,43.2208,151.036,104.551,4.53221,0.00845575,0.135185,20.8864,519.349,28.3511,0.0,0.0
528,131.75,39.7769,42.8998,152.683,104.453,4.58492,0.0091057,0.13302,20.8882,519.269,28.2382,0.0,0.0
544,135.75,39.5589,41.9965,151.106,104.326,4.51749,0.00962476,0.131003,20.8918,519.229,28.3611,0.0,0.0
560,139.75,39.7027,41.6984,147.781,104.182,4.5004,0.00982744,0.128518,20.8945,519.259,28.3828,0.0,0.0
576,143.75,38.9799,41.9874,158.823,104.031,4.50562,0.00994339,0.126525,20.8964,519.249,28.3592,0.0,0.0
592,147.75,38.702,41.4677,153.369,103.892,4.58682,0.0105336,0.126809,20.8948,519.189,28.1858,0.0,0.0
608,151.75,38.2106,40.9596,154.38,103.745,4.51322,0.0106242,0.126835,20.8945,519.169,28.3191,0.0,0.0
624,155.75,38.466,41.2456,153.307,103.611,4.45386,0.0106188,0.126161,20.8968,519.189,28.4271,0.0,0.0
640,159.75,38.1495,40.5531,154.61,103.494,4.4795,0.0105416,0.125254,20.8971,519.169,28.365,0.0,0.0
656,163.75,37.9932,40.8008,151.345,103.412,4.51227,0.0105289,0.124996,20.8977,519.149,28.292,0.0,0.0
672,167.75,38.0241,40.6082,151.452,103.367,4.50515,0.0106164,0.124938,20.8981,519.139,28.3024,0.0,0.0
688,171.75,37.4749,40.6949,152.121,103.358,4.48283,0.0106304,0.12459,20.8982,519.089,28.3464,0.0,0.0
704,175.75,37.4446,40.547,154.754,103.394,4.47,0.0106052,0.124622,20.8987,519.078,28.3754,0.0,0.0
720,179.75,37.6799,39.7611,153.676,103.487,4.54598,0.0106198,0.124245,20.8995,519.078,28.2313,0.0,0.0
736,183.75,37.2248,40.0149,152.407,103.633,4.4795,0.010196,0.124816,20.8998,519.028,28.3771,0.0,0.0
752,187.75,37.1247,39.9985,151.891,103.805,4.53364,0.0103321,0.124534,20.9018,518.958,28.2836,0.0,0.0
768,191.75,37.5846,39.1307,151.636,104.042,4.51322,0.0102523,0.124767,20.9006,518.908,28.345,0.0,0.0
784,195.75,37.4125,39.4659,153.99,104.309,4.54836,0.0103432,0.125444,20.9001,518.858,28.2981,0.0,0.0
800,199.75,36.6232,39.6518,152.954,104.57,4.5778,0.0100334,0.125454,20.8999,518.808,28.2624,0.0,0.0
816,203.75,36.782,39.758,151.225,104.834,4.57305,0.00988661,0.12573,20.8999,518.738,28.2945,0.0,0.0
832,207.75,37.0335,39.2084,148.082,105.036,4.56403,0.00985476,0.127918,20.8982,518.778,28.3298,0.0,0.0
848,211.75,37.2017,38.978,151.994,105.192,4.55453,0.00973433,0.128115,20.8977,518.718,28.362,0.0,0.0
864,215.75,36.4852,39.2548,157.259,105.291,4.53221,0.00967809,0.127148,20.8997,518.708,28.4149,0.0,0.0
880,219.75,36.8723,38.7581,151.433,105.326,4.5816,0.00941557,0.125612,20.9022,518.728,28.32,0.0,0.0
896,223.75,36.7342,39.2586,150.535,105.261,4.56878,0.00925746,0.125217,20.9029,518.718,28.3397,0.0,0.0
912,227.75,37.1134,38.7482,148.649,105.171,4.56355,0.00899689,0.125503,20.9031,518.708,28.3423,0.0,0.0
928,231.75,36.4927,38.782,150.548,105.022,4.52034,0.00854601,0.125302,20.9014,518.668,28.4154,0.0,0.0
944,235.75,36.7772,38.5931,152.28,104.856,4.51179,0.0082289,0.124826,20.902,518.668,28.4182,0.0,0.0
960,239.75,36.7169,38.6849,152.06,104.684,4.53601,0.00812941,0.123615,20.9039,518.618,28.3551,0.0,0.0
976,243.75,36.2963,38.6755,155.266,104.524,4.55643,0.00799391,0.122758,20.9065,518.618,28.3006,0.0,0.0
992,247.75,36.932,38.9087,155.02,104.417,4.53174,0.00797537,0.122177,20.9078,518.578,28.3405,0.0,0.0
1008,251.75,36.717,38.224,154.629,104.638,4.55786,0.00777738,0.12097,20.9083,518.568,28.3077,0.0,0.0
1024,255.75,36.7035,38.503,152.729,104.825,4.57305,0.0076423,0.120044,20.9091,518.498,28.2937,0.0,0.0
1040,259.75,36.7625,38.2113,149.236,104.915,4.54124,0.00742701,0.119507,20.9097,518.488,28.3646,0.0,0.0
1056,263.75,36.5584,38.4806,151.415,104.897,4.59822,0.00709106,0.1189,20.9098,518.438,28.2503,0.0,0.0
1072,267.75,36.0738,38.1737,155.446,104.789,4.54266,0.00700513,0.117976,20.9114,518.388,28.3509,0.0,0.0
1088,271.75,35.9624,37.8755,151.523,104.596,4.60534,0.00711694,0.117074,20.9135,518.348,28.2105,0.0,0.0
1104,275.75,35.9978,37.8844,157.127,104.333,4.53839,0.00672779,0.11557,20.9152,518.298,28.32,0.0,0.0
1120,279.75,35.8435,37.5915,152.842,104.007,4.50752,0.0063883,0.114483,20.9165,518.338,28.3534,0.0,0.0
1136,283.75,35.7087,37.7242,155.685,104.07,4.4985,0.00611175,0.113179,20.919,518.308,28.3769,0.0,0.0
1152,287.75,35.7883,37.3154,153.899,104.163,4.4909,0.00597704,0.111676,20.9214,518.328,28.4003,0.0,0.0
1168,291.75,35.3742,37.2589,153.896,104.257,4.51227,0.00603916,0.110797,20.9236,518.308,28.3655,0.0,0.0
1184,295.75,35.8889,37.3831,151.797,104.325,4.57068,0.00605838,0.109879,20.9244,518.348,28.2553,0.0,0.0
1200,299.75,35.7752,37.0695,155.145,104.416,4.51987,0.0060064,0.10895,20.9241,518.368,28.3641,0.0,0.0
1216,303.75,35.9129,37.4533,154.794,104.484,4.57163,0.00587079,0.108463,20.9247,518.378,28.2671,0.0,0.0
1232,307.75,35.6255,37.2305,154.389,104.542,4.56071,0.00576802,0.107921,20.9246,518.368,28.2938,0.0,0.0
1248,311.75,35.48,37.5481,152.41,104.591,4.62291,0.00566067,0.107564,20.9248,518.358,28.1756,0.0,0.0
1264,315.75,35.6291,37.4641,150.946,104.607,4.51084,0.00543546,0.107253,20.9258,518.318,28.3987,0.0,0.0
1280,319.75,35.4075,37.3982,153.706,104.605,4.55073,0.00545485,0.106375,20.9274,518.298,28.319,0.0,0.0
1296,323.75,35.7104,37.1645,153.428,104.623,4.55263,0.00539239,0.10612,20.9279,518.288,28.3168,0.0,0.0
1312,327.75,35.818,37.0928,155.582,104.601,4.54598,0.00548981,0.105485,20.9276,518.278,28.3281,0.0,0.0
1328,331.75,35.5475,37.3811,156.982,104.611,4.55263,0.00548658,0.104874,20.9294,518.268,28.3157,0.0,0.0
1344,335.75,35.3929,37.0596,152.429,104.596,4.59252,0.00538912,0.10398,20.931,518.238,28.2356,0.0,0.0
1360,339.75,35.4982,37.6276,152.375,104.596,4.58113,0.005419,0.103366,20.9326,518.218,28.258,0.0,0.0
1376,343.75,35.5931,37.1982,151.255,104.573,4.56355,0.00537698,0.102836,20.9329,518.218,28.2908,0.0,0.0
1392,347.75,35.4451,37.3491,152.151,104.554,4.49992,0.00513954,0.10251,20.9338,518.178,28.4159,0.0,0.0
1408,351.75,35.3569,37.4328,157.559,104.51,4.59205,0.00505847,0.10253,20.9342,518.168,28.2291,0.0,0.0
1424,355.75,35.4104,37.816,150.94,104.465,4.57163,0.00494956,0.101972,20.9363,518.188,28.2655,0.0,0.0
1440,359.75,35.5912,37.6875,153.481,104.409,4.52366,0.00483489,0.101459,20.936,518.138,28.3559,0.0,0.0
1456,363.75,35.8596,37.5882,151.6,104.329,4.55311,0.00479197,0.101072,20.9363,518.128,28.2904,0.0,0.0
1472,367.75,35.5632,37.4595,153.723,104.288,4.53364,0.00464933,0.100209,20.9368,518.158,28.3255,0.0,0.0
1488,371.75,35.7583,37.4812,151.758,104.199,4.54931,0.00491095,0.0997181,20.9381,518.228,28.2867,0.0,0.0
1504,375.75,35.7303,37.2143,154.846,104.129,4.54503,,0.0994262,,518.208,28.2891,0.0,0.0
1520,379.75,35.9013,37.6582,149.094,104.073,4.5949,,,,518.178,28.1857,0.0,0.0
1536,383.75,35.4346,37.2311,150.385,104.027,4.53886,,,,518.268,28.2925,0.0,0.0
1542,385.25,35.7233,37.0877,150.8,103.992,4.5987,,,,518.158,28.1711,0.0,0.0

File: Polyisocyanurate_Foam_Board_Cone_HF50Scan_221129_R4.csv
Names,Time,Stack TC,Smoke TC,Exh Press,Smoke Comp,Smoke Meas,CO Meter,CO2 Meter,O2 Meter,Sample Mass,Ext Coeff,Start Test,Flame Verif
Chan Gain,,500,500,1,1,1,1,1,1,1,1,1.0,1.0
Offset,,0,0,0.13918,0,0,0,0,0,0,0,0.0,0.0
Gain,,1,1,25.011,14.0162,15.5607,1,1,1,1.0009,1.02981,1.0,1.0
Units,sec,C,C,Pa,%,%,%,%,%,g,/m,,
Baseline,,33.3525,34.6442,155.161,104.342,4.47287,0.000813785,0.0922597,20.9502,-0.773572,28.4522,,
15,3.5,33.0641,33.4001,142.068,103.965,3.96236,0.0116184,0.209901,20.7566,526.836,29.5142,0.0,1.0
30,7.25,37.1363,36.4503,134.446,104.077,3.72777,0.0203865,0.38982,20.4908,526.265,30.0753,0.0,0.0
45,11,40.7868,40.1493,136.162,104.258,3.89256,0.0215076,0.470848,20.3847,525.845,29.7001,0.0,0.0
60,14.75,42.3178,42.3163,139.787,104.474,4.04642,0.0172207,0.445375,20.4365,525.514,29.3687,0.0,0.0
75,18.5,43.6461,43.6402,147.884,104.632,4.2074,0.0129154,0.37693,20.5319,525.264,29.0299,0.0,0.0
90,22.25,44.264,44.7168,149.342,104.746,4.21357,0.010254,0.327411,20.6015,524.964,29.0265,0.0,0.0
105,26,45.1896,45.4196,145.556,104.802,4.29572,0.00906803,0.304177,20.6394,524.664,28.8569,0.0,0.0
120,29.75,44.8168,46.5627,145.883,104.814,4.30712,0.00849477,0.296086,20.6543,524.493,28.834,0.0,0.0
135,33.5,45.3198,47.1776,146.807,104.835,4.33229,0.00720944,0.285143,20.6726,524.313,28.7832,0.0,0.0
150,37.25,45.6851,47.3024,146.161,104.835,4.50135,0.00555116,0.264916,20.707,524.123,28.4374,0.0,0.0
165,41,45.1489,47.401,149.651,104.803,4.50657,0.00523293,0.234795,20.7514,523.933,28.4241,0.0,0.0
180,44.75,45.5111,47.4887,147.638,104.746,4.45101,0.00614236,0.21331,20.7823,523.773,28.5313,0.0,0.0
195,48.5,45.0248,46.84,143.302,104.669,4.44341,0.00691409,0.210732,20.7898,523.713,28.5401,0.0,0.0
210,52.25,44.8866,47.379,151.031,104.599,4.44769,0.00734044,0.224471,20.7759,523.492,28.5254,0.0,0.0
225,56,45.3974,46.5644,144.098,104.696,4.39402,0.00753165,0.24946,20.7427,523.302,28.6434,0.0,0.0
240,59.75,45.4666,47.9164,145.823,104.673,4.32802,0.00744232,0.277014,20.7092,522.972,28.7781,0.0,0.0
255,63.5,46.3495,48.5804,145.974,104.602,4.40637,0.00761698,0.283437,20.7025,522.702,28.6099,0.0,0.0
270,67.25,45.995,48.5566,147.087,104.513,4.47903,0.00759701,0.264056,20.7205,522.582,28.4545,0.0,0.0
285,71,45.9807,48.5601,151.348,104.426,4.42869,0.00729948,0.240736,20.7506,522.512,28.549,0.0,0.0
300,74.75,45.8634,48.181,145.002,104.398,4.57685,0.00690993,0.221323,20.7756,522.411,28.2494,0.0,0.0
315,78.5,45.09,48.5699,149.727,104.443,4.55358,0.0064891,0.202495,20.8019,522.231,28.2993,0.0,0.0
330,82.25,44.9206,48.0397,149.201,104.462,4.59347,0.00629839,0.189347,20.8162,522.131,28.2222,0.0,0.0
345,86,44.6609,47.5792,153.399,104.512,4.58255,0.00608163,0.181852,20.8257,522.151,28.248,0.0,0.0
360,89.75,43.8288,47.1683,152.097,104.563,4.59015,0.00608655,0.175922,20.8325,522.131,28.2374,0.0,0.0
375,93.5,43.8413,46.8266,150.354,104.603,4.5702,0.00600581,0.169397,20.8423,522.041,28.2802,0.0,0.0
390,97.25,43.7175,46.116,152.481,104.639,4.55073,0.00593179,0.163241,20.849,521.911,28.3219,0.0,0.0
405,101,42.8096,46.3061,150.349,104.693,4.55406,0.00623262,0.156877,20.8576,521.871,28.32,0.0,0.0
420,104.75,42.519,46.1067,152.484,104.742,4.5702,0.00637602,0.152061,20.8631,521.841,28.2922,0.0,0.0
435,108.5,42.3973,45.7287,149.339,104.786,4.55786,0.00671999,0.147662,20.8686,521.881,28.3204,0.0,0.0
450,112.25,42.0988,45.3257,152.964,104.804,4.53506,0.00739878,0.143663,20.8729,521.851,28.3673,0.0,0.0
465,116,41.3177,45.0796,152.096,104.814,4.53221,0.00786414,0.13973,20.8774,521.731,28.3739,0.0,0.0
480,119.75,41.1033,44.2898,149.045,104.825,4.59157,0.00852456,0.136516,20.8834,521.701,28.2572,0.0,0.0
495,123.5,40.6115,44.3206,152.29,104.825,4.57163,0.00913298,0.133379,20.8878,521.771,28.2966,0.0,0.0
510,127.25,40.5365,43.772,153.865,104.813,4.59157,0.0091357,0.130964,20.8908,521.791,28.2562,0.0,0.0
525,131,40.2559,43.2277,158.478,104.787,4.56973,0.00942991,0.128213,20.8935,521.721,28.297,0.0,0.0
540,134.75,39.8982,43.2024,153.612,104.762,4.5854,0.00991827,0.127372,20.8941,521.591,28.2639,0.0,0.0
555,138.5,39.7472,42.5507,154.149,104.726,4.52651,0.0102724,0.126982,20.894,521.571,28.3776,0.0,0.0
570,142.25,39.3805,41.7266,153.513,104.714,4.59015,0.0104592,0.126093,20.8955,521.591,28.2504,0.0,0.0
585,146,39.304,42.1116,155.205,104.706,4.54266,0.0105582,0.125247,20.8958,521.641,28.3437,0.0,0.0
600,149.75,38.6289,41.9109,150.82,104.681,4.49185,0.0105211,0.124951,20.8953,521.621,28.4432,0.0,0.0
615,153.5,38.6352,41.5481,151.764,104.65,4.53126,0.0107959,0.1244,20.8965,521.471,28.3616,0.0,0.0
630,157.25,38.6234,41.5781,150.337,104.619,4.60724,0.0108603,0.12404,20.8972,521.461,28.2087,0.0,0.0
645,161,38.2703,40.9744,150.934,104.598,4.53079,0.0106807,0.12422,20.8992,521.531,28.358,0.0,0.0
660,164.75,38.6036,40.7368,153.21,104.577,4.54646,0.0105185,0.124258,20.8998,521.501,28.325,0.0,0.0
675,168.5,37.8173,41.1154,159.567,104.555,4.52082,0.0104759,0.123658,20.8996,521.471,28.3742,0.0,0.0
690,172.25,37.8414,40.7196,157.933,104.525,4.55881,0.0104098,0.123027,20.9,521.331,28.296,0.0,0.0
705,176,38.3172,40.8799,149.211,104.51,4.47143,0.0105595,0.122693,20.9011,521.311,28.4696,0.0,0.0
720,179.75,37.2392,41.032,153.36,104.483,4.54029,0.0106922,0.122927,20.9015,521.341,28.3291,0.0,0.0
735,183.5,37.6049,40.1008,154.431,104.462,4.51844,0.0105235,0.123037,20.9019,521.381,28.3709,0.0,0.0
750,187.25,37.5609,39.9481,150.006,104.425,4.58113,0.0105174,0.123694,20.9004,521.371,28.2433,0.0,0.0
765,191,37.818,39.8931,153.265,104.385,4.59205,0.0106379,0.124172,20.9,521.24,28.2183,0.0,0.0
780,194.75,37.2584,39.7029,151.433,104.426,4.54836,0.010278,0.123721,20.8999,521.18,28.3082,0.0,0.0
795,198.5,37.6195,39.8097,151.978,104.505,4.55263,0.00981797,0.12321,20.9005,521.22,28.3065,0.0,0.0
810,202.25,37.1816,39.6427,154.073,104.6,4.53601,0.0094531,0.122985,20.9019,521.24,28.3478,0.0,0.0
825,206,37.4781,39.4942,152.468,104.669,4.55263,0.00935976,0.123828,20.9025,521.23,28.3207,0.0,0.0
840,209.75,37.2526,39.6911,150.504,104.708,4.5873,0.00912006,0.123034,20.9042,521.13,28.2556,0.0,0.0
855,213.5,37.3704,39.6014,153.439,104.755,4.45813,0.00912503,0.123031,20.9043,521.1,28.5177,0.0,0.0
870,217.25,36.8983,38.5932,150.703,104.812,4.52936,0.00899152,0.122562,20.9043,521.11,28.3793,0.0,0.0
885,221,36.793,39.2013,153.415,104.856,4.49707,0.00852582,0.12263,20.9047,521.14,28.4478,0.0,0.0
900,224.75,36.6923,39.1199,149.33,104.866,4.55691,0.00849394,0.12304,20.9051,521.12,28.3292,0.0,0.0
915,228.5,37.1314,38.7527,148.475,104.854,4.54551,0.00815904,0.123279,20.9041,521,28.3508,0.0,0.0
930,232.25,37.2891,37.7117,150.902,104.853,4.54978,0.00787461,0.123099,20.9031,520.96,28.3423,0.0,0.0
945,236,36.3234,40.0642,150.808,104.836,4.53031,0.00793218,0.122496,20.9037,521.02,28.3795,0.0,0.0
960,239.75,36.8461,39.0647,151.831,104.816,4.53886,0.00794062,0.12156,20.9051,521.03,28.3607,0.0,0.0
975,243.5,37.1598,38.6873,155.747,104.766,4.55358,0.00784894,0.120736,20.9064,520.99,28.3272,0.0,0.0
990,247.25,36.6584,38.8177,153.809,104.684,4.51037,0.00770715,0.11981,20.9079,520.91,28.4063,0.0,0.0
1005,251,36.3348,38.4791,156.053,104.591,4.49517,0.00733153,0.11862,20.9091,520.9,28.4287,0.0,0.0
1020,254.75,36.0813,38.1022,150.32,104.477,4.49612,0.00710733,0.117948,20.9103,520.88,28.417,0.0,0.0
1035,258.5,36.318,38.2624,154.705,104.345,4.50657,0.00691595,0.117592,20.9118,520.92,28.3846,0.0,0.0
1050,262.25,36.1623,38.1682,155.898,104.216,4.54836,0.00683133,0.117585,20.9127,520.9,28.29,0.0,0.0
1065,266,35.8375,38.0648,152.409,104.103,4.55643,0.00681665,0.117283,20.913,520.79,28.2642,0.0,0.0
1080,269.75,36.2562,38.2321,150.249,103.996,4.47333,0.00668505,0.116701,20.9148,520.77,28.4212,0.0,0.0
1095,273.5,36.513,37.9258,152.471,104.037,4.48805,0.00681506,0.115938,20.9152,520.83,28.3951,0.0,0.0
1110,277.25,36.2537,38.0266,151.971,104.098,4.55311,0.00674741,0.115161,20.9146,520.85,28.2704,0.0,0.0
1125,281,36.3474,37.7605,153.951,104.137,4.55168,0.00673126,0.113961,20.9163,520.8,28.2766,0.0,0.0
1140,284.75,36.185,37.8043,151.504,104.186,4.56308,0.00641269,0.112795,20.9185,520.71,28.2582,0.0,0.0
1155,288.5,36.314,37.8211,154.982,104.249,4.50372,0.0065265,0.111811,20.919,520.66,28.3819,0.0,0.0
1170,292.25,35.7952,37.8286,151.01,104.336,4.54646,0.00665473,0.110406,20.9206,520.69,28.3042,0.0,0.0
1185,296,35.808,37.4876,150.074,104.421,4.52319,0.00659768,0.108861,20.9226,520.77,28.3579,0.0,0.0
1200,299.75,35.979,37.6822,152.996,104.479,4.53079,0.00672405,0.107866,20.9253,520.75,28.3477,0.0,0.0
1215,303.5,35.8111,37.9444,157.039,104.528,4.54788,0.0069236,0.106908,20.9275,520.63,28.318,0.0,0.0
1230,307.25,35.7632,37.4667,155.36,104.584,4.52414,0.00703318,0.105801,20.9306,520.64,28.3701,0.0,0.0
1245,311,36.2533,37.244,152.817,104.637,4.58777,0.00696543,0.10491,20.9314,520.7,28.2485,0.0,0.0
1260,314.75,35.7373,37.6006,155.718,104.694,4.55406,0.00636257,0.104109,20.9315,520.69,28.32,0.0,0.0
1275,318.5,35.5588,37.3627,155.29,104.723,4.56688,0.00621475,0.103884,20.9315,520.71,28.2971,0.0,0.0
1290,322.25,35.3105,37.1951,151.105,104.726,4.52366,0.0061115,0.10359,20.9301,520.62,28.3833,0.0,0.0
1305,326,35.4267,37.3723,148.669,104.713,4.53649,0.00593171,0.102924,20.9309,520.62,28.3566,0.0,0.0
1320,329.75,35.8813,37.3383,154.315,104.694,4.54788,0.00593807,0.10255,20.931,520.61,28.3323,0.0,0.0
1335,333.5,35.0719,37.1306,154.158,104.682,4.51844,0.00565836,0.102141,20.9327,520.66,28.3899,0.0,0.0
1350,337.25,35.7962,36.8275,155.991,104.596,4.52936,0.00563039,0.101651,20.9332,520.67,28.3607,0.0,0.0
1365,341,35.4156,37.2467,150.301,104.504,4.57828,0.00535164,0.101424,20.9333,520.55,28.2557,0.0,0.0
1380,344.75,35.4175,37.2634,154.524,104.382,4.55358,0.00512259,0.100996,20.935,520.58,28.294,0.0,0.0
1395,348.5,36.2271,37.2625,155.409,104.255,4.52509,0.00488217,0.100727,20.9363,520.61,28.3398,0.0,0.0
1410,352.25,35.4777,37.1458,155.495,104.143,4.51227,0.00490552,0.100526,20.9374,520.64,28.3557,0.0,0.0
1425,356,35.4594,37.2351,154.057,104.01,4.4738,0.00503078,0.100201,20.9376,520.62,28.4215,0.0,0.0
1440,359.75,35.5851,37.2336,149.911,103.856,4.51797,,0.100046,,520.52,28.3194,0.0,0.0
1455,363.5,35.0137,37.2457,155.253,103.731,4.50799,,,,520.5,28.3284,0.0,0.0
1470,367.25,35.5529,37.1612,155.383,103.613,4.50135,,,,520.54,28.3315,0.0,0.0
1473,368,35.8449,36.9076,152.274,103.607,4.50182,,,,520.6,28.33,0.0,0.0

File: Polyisocyanurate_Foam_Board_Cone_HF75Scalar_220913_R1.csv
LABORATORY,FSRI
TEST IDENT,Polyiso_Foam_HF75_1
OPERATOR,Dow
MATERIAL,Polyisocyanurate Foam Board
ORIENTATION,Horizontal
HEAT FLUX,75
SURF AREA,0.01
C FACTOR,0.0397745
SPEC HOLDER DIFF,-566
SPECIMEN MASS,7.89
SCAN TIME,0.25
O2 DELAY TIME,11
CO DELAY TIME,11
CO2 DELAY TIME,8
FLOW FACTOR,1
SCAN COUNT,1057
TIME TO IGN,10.25
END OF TEST SCAN,577
END OF TEST TIME,144.25
TEST STATUS,1
PRE TEST CMT,Dimensions: 100.98 x 100.60 x 22.65 mm; with tie wires

File: Polyisocyanurate_Foam_Board_Cone_HF75Scalar_221202_R2.csv
LABORATORY,FSRI
TEST IDENT,Polyiso_Foam_HF75_2
OPERATOR,Dow
MATERIAL,Polyisocyanurate Foam Board
ORIENTATION,Horizontal
HEAT FLUX,75
SURF AREA,0.01
C FACTOR,0.0397745
SPEC HOLDER DIFF,-566
SPECIMEN MASS,7.37
SCAN TIME,0.25
O2 DELAY TIME,11
CO DELAY TIME,11
CO2 DELAY TIME,8
FLOW FACTOR,1
SCAN COUNT,847
TIME TO IGN,0.25
END OF TEST SCAN,367
END OF TEST TIME,91.75
TEST STATUS,1
PRE TEST CMT,Dimensions: 100.96 x 101.32 x 23.13 mm; with tie wires; top foil layer of sample removed

File: Polyisocyanurate_Foam_Board_Cone_HF75Scalar_221202_R3.csv
LABORATORY,FSRI
TEST IDENT,Polyiso_Foam_HF75_3
OPERATOR,Dow
MATERIAL,Polyisocyanurate Foam Board
ORIENTATION,Horizontal
HEAT FLUX,75
SURF AREA,0.01
C FACTOR,0.0397745
SPEC HOLDER DIFF,-566
SPECIMEN MASS,7.24
SCAN TIME,0.25
O2 DELAY TIME,11
CO DELAY TIME,11
CO2 DELAY TIME,8
FLOW FACTOR,1
SCAN COUNT,1031
TIME TO IGN,0.25
END OF TEST SCAN,551
END OF TEST TIME,137.75
TEST STATUS,1
PRE TEST CMT,Dimensions: 101.11 x 101.41 x 23.16 mm; with tie wires; top foil layer of sample removed

File: Polyisocyanurate_Foam_Board_Cone_HF75Scalar_221202_R4.csv
LABORATORY,FSRI
TEST IDENT,Polyiso_Foam_HF75_4
OPERATOR,Dow
MATERIAL,Polyisocyanurate Foam Board
ORIENTATION,Horizontal
HEAT FLUX,75
SURF AREA,0.01
C FACTOR,0.0397745
SPEC HOLDER DIFF,-566
SPECIMEN MASS,7.05
SCAN TIME,0.25
O2 DELAY TIME,11
CO DELAY TIME,11
CO2 DELAY TIME,8
FLOW FACTOR,1
SCAN COUNT,1037
TIME TO IGN,0.5
END OF TEST SCAN,557
END OF TEST TIME,139.25
TEST STATUS,1
PRE TEST CMT,Dimensions: 101.56 x 101.42 x 22.72 mm; with tie wires; top foil layer of sample removed