Folder: fsri_materials_database/01_Data/Polyisocyanurate_Foam_Board/MCC

Note: 01_Data/README.md
# Materials and Products Database
## 01_Data

Raw data generated from each apparatus are included here in plain-text format. The data is organized first by material, next by the short name of test apparatus used, and where applicable additional filtering by test settings.

### material.json

Each material directory contains a json file of the same name as the material. This file links the data stored in the repository as well as data and graphs produced by the accompanying scripts (__02_Scripts__) to the respective landing page for the material on the front-end website.

File: Polyisocyanurate_Foam_Board_MCC_30K_min_220211_R1.txt
Sample ID:	C:\MCC\MCC Cal\Test\Polyisocyanurate_Foam_Board_MCC_30K_min_220211_R1.txt
Sample Weight (mg):	4.6
Heating Rate (C/s):	0.5
Combustor Temp (C):	900
N2 Flow Rate (cc/min):	80
O2 Flow Rate (cc/min):	20
Calibration File:	C:\MCC\MCC Cal\Coeff1 JN10440_30_210304.txt.txt
T Correction Coefficients:	0	1.024463	0
Time Shift (s):	14
*
Time (s)	Temperature (C)	N2 flow rate (cc/min)	O2 flow rate (cc/min)	Flow Rate (cc/min)	Oxygen (%)	HRR (W/g)	Heating rate (C/s)
0.000	112.568	80.009	19.995	103.644	19.865	0.085	0.000
7.500	112.578	80.008	19.995	103.621	19.852	1.001	-0.001
15.000	112.614	80.012	19.994	103.665	19.838	2.002	-0.000
22.500	112.791	80.009	19.995	103.785	19.827	2.754	0.052
30.000	113.444	80.007	19.994	103.813	19.816	3.520	0.078
37.500	114.584	80.007	19.995	103.854	19.815	3.605	0.191
45.000	116.107	80.009	19.995	103.877	19.816	3.559	0.159
52.500	118.014	80.009	19.993	103.882	19.814	3.655	0.270
60.001	120.201	80.008	19.994	103.886	19.810	3.981	0.309
67.501	122.716	80.008	19.994	103.906	19.813	3.721	0.376
75.001	125.413	80.011	19.993	103.918	19.811	3.891	0.370
82.500	128.403	80.008	19.993	103.912	19.812	3.796	0.414
90.000	131.557	80.009	19.995	103.922	19.812	3.777	0.421
97.500	134.902	80.011	19.993	103.913	19.810	3.918	0.454
105.000	138.356	80.010	19.993	103.905	19.806	4.260	0.457
112.500	141.910	80.009	19.996	103.909	19.807	4.149	0.477
120.000	145.584	80.008	19.994	103.907	19.799	4.694	0.500
127.500	149.321	80.007	19.993	103.903	19.796	4.962	0.521
135.000	153.104	80.007	19.994	103.902	19.800	4.647	0.517
142.500	156.880	80.008	19.995	103.899	19.796	4.919	0.512
150.000	160.646	80.008	19.993	103.901	19.789	5.421	0.502
157.500	164.495	80.010	19.994	103.886	19.786	5.608	0.539
165.000	168.312	80.010	19.993	103.883	19.786	5.630	0.539
172.500	172.069	80.011	19.993	103.870	19.777	6.290	0.498
180.000	175.861	80.012	19.993	103.873	19.774	6.456	0.518
187.500	179.590	80.009	19.993	103.856	19.768	6.875	0.517
195.000	183.305	80.008	19.992	103.863	19.758	7.601	0.493
202.500	187.085	80.007	19.993	103.867	19.755	7.817	0.502
210.000	190.717	80.008	19.993	103.861	19.750	8.209	0.463
217.500	194.431	80.008	19.993	103.864	19.742	8.765	0.487
225.000	198.082	80.009	19.995	103.859	19.738	9.052	0.506
232.500	201.771	80.007	19.994	103.863	19.732	9.432	0.505
240.000	205.463	80.009	19.993	103.872	19.737	9.102	0.519
247.500	209.169	80.010	19.994	103.860	19.734	9.281	0.505
255.000	212.925	80.010	19.993	103.863	19.735	9.245	0.490
262.500	216.651	80.011	19.993	103.862	19.736	9.151	0.493
270.000	220.373	80.010	19.994	103.862	19.735	9.207	0.501
277.500	224.120	80.009	19.993	103.867	19.737	9.089	0.502
285.000	227.862	80.008	19.993	103.869	19.737	9.095	0.492
292.500	231.586	80.008	19.993	103.809	19.732	9.446	0.483
300.000	235.337	80.008	19.995	103.894	19.731	9.549	0.492
307.500	239.007	80.008	19.994	103.867	19.734	9.285	0.465
315.000	242.722	80.009	19.994	103.880	19.723	10.070	0.522
322.500	246.481	80.011	19.996	103.872	19.721	10.225	0.509
330.000	250.290	80.009	19.996	103.893	19.713	10.821	0.532
337.500	254.037	80.009	19.994	103.890	19.706	11.309	0.452
345.000	257.842	80.011	19.993	103.895	19.691	12.338	0.510
352.500	261.598	80.010	19.992	103.903	19.679	13.177	0.480
360.000	265.387	80.008	19.993	103.900	19.670	13.821	0.509
367.500	269.237	80.009	19.994	103.912	19.652	15.066	0.545
375.000	273.074	80.009	19.993	103.935	19.629	16.737	0.539
382.500	276.812	80.011	19.994	103.939	19.612	17.924	0.513
390.000	280.602	80.008	19.993	103.956	19.585	19.814	0.487
397.500	284.344	80.008	19.993	103.980	19.569	20.985	0.524
405.000	288.090	80.010	19.993	103.982	19.531	23.642	0.488
412.500	291.931	80.008	19.994	104.014	19.489	26.589	0.506
420.000	295.738	80.010	19.993	104.023	19.433	30.521	0.519
427.500	299.449	80.011	19.994	104.017	19.361	35.606	0.509
435.000	303.220	80.011	19.993	104.008	19.288	40.784	0.518
442.500	307.068	80.010	19.994	103.979	19.222	45.421	0.515
450.000	310.845	80.010	19.994	103.968	19.195	47.339	0.516
457.500	314.723	80.010	19.992	103.947	19.191	47.584	0.535
465.000	318.611	80.008	19.992	103.937	19.212	46.133	0.539
472.500	322.431	80.008	19.994	103.936	19.243	43.923	0.513
480.000	326.279	80.009	19.992	103.924	19.275	41.632	0.536
487.500	330.094	80.010	19.993	103.900	19.307	39.357	0.546
495.000	333.889	80.009	19.995	103.871	19.353	36.115	0.478
502.500	337.711	80.009	19.992	103.862	19.396	33.116	0.522
510.000	341.445	80.011	19.994	103.857	19.434	30.406	0.515
517.500	345.146	80.010	19.996	103.827	19.460	28.598	0.486
525.000	348.905	80.007	19.995	103.823	19.470	27.861	0.468
532.500	352.658	80.007	19.993	103.838	19.469	27.975	0.479
540.000	356.448	80.009	19.993	103.841	19.457	28.823	0.481
547.500	360.239	80.010	19.992	103.844	19.457	28.838	0.509
555.000	363.992	80.009	19.993	103.829	19.458	28.767	0.513
562.500	367.796	80.010	19.994	103.837	19.461	28.544	0.537
570.000	371.577	80.011	19.992	103.835	19.465	28.248	0.468
577.500	375.396	80.011	19.993	103.827	19.471	27.853	0.513
585.000	379.176	80.010	19.994	103.836	19.481	27.098	0.494
592.500	382.967	80.011	19.993	103.824	19.486	26.767	0.510
600.000	386.830	80.010	19.994	103.828	19.485	26.863	0.537
607.500	390.606	80.008	19.993	103.824	19.487	26.670	0.512
615.000	394.419	80.007	19.994	103.824	19.489	26.531	0.477
622.500	398.196	80.008	19.994	103.819	19.497	25.999	0.469
630.000	402.026	80.008	19.994	103.819	19.495	26.111	0.508
637.500	405.775	80.008	19.994	103.817	19.506	25.385	0.498
645.000	409.550	80.009	19.993	103.822	19.513	24.870	0.499
652.500	413.353	80.010	19.994	103.800	19.521	24.265	0.498
660.000	417.087	80.010	19.994	103.795	19.529	23.741	0.486
667.500	420.944	80.011	19.993	103.792	19.538	23.114	0.508
675.000	424.688	80.011	19.991	103.803	19.541	22.921	0.489
682.500	428.547	80.010	19.993	103.811	19.542	22.828	0.508
690.000	432.363	80.008	19.995	103.800	19.553	22.055	0.532
697.500	436.371	80.009	19.994	103.787	19.555	21.888	0.502
705.000	439.946	80.009	19.994	103.789	19.558	21.702	0.485
712.500	443.784	80.008	19.995	103.803	19.556	21.797	0.528
720.000	447.579	80.009	19.995	103.798	19.553	22.017	0.519
727.500	451.351	80.007	19.993	103.802	19.544	22.707	0.520
735.000	455.185	80.012	19.994	103.788	19.534	23.369	0.514
742.500	458.951	80.009	19.993	103.805	19.523	24.134	0.499
750.000	462.768	80.009	19.993	103.819	19.516	24.653	0.490
757.500	466.580	80.012	19.994	103.821	19.507	25.299	0.508
765.000	470.445	80.010	19.993	103.785	19.497	25.986	0.518
772.500	474.268	80.009	19.993	103.800	19.495	26.100	0.509
780.000	478.158	80.009	19.994	103.801	19.498	25.917	0.490
787.500	482.093	80.008	19.995	103.819	19.500	25.811	0.506
795.000	486.010	80.008	19.992	103.820	19.509	25.110	0.530
802.500	489.872	80.008	19.993	103.800	19.518	24.528	0.526
810.000	493.782	80.008	19.995	103.807	19.530	23.642	0.514
817.500	497.683	80.009	19.994	103.813	19.546	22.508	0.504
825.000	501.534	80.010	19.993	103.794	19.559	21.587	0.506
832.500	505.438	80.009	19.994	103.808	19.576	20.425	0.551
840.000	509.219	80.012	19.994	103.786	19.593	19.201	0.497
847.500	513.026	80.010	19.993	103.784	19.609	18.077	0.452
855.001	517.051	80.011	19.995	103.783	19.619	17.397	0.521
862.500	520.895	80.010	19.993	103.782	19.629	16.692	0.507
870.000	524.703	80.009	19.994	103.783	19.639	15.975	0.495
877.500	528.470	80.008	19.994	103.785	19.645	15.548	0.504
885.000	532.344	80.008	19.994	103.785	19.657	14.711	0.520
892.500	536.220	80.010	19.994	103.770	19.661	14.427	0.507
900.000	540.019	80.011	19.995	103.770	19.663	14.278	0.460
907.500	543.944	80.010	19.994	103.775	19.666	14.085	0.506
915.000	547.803	80.010	19.994	103.777	19.666	14.055	0.522
922.500	551.692	80.012	19.993	103.760	19.664	14.237	0.519
930.000	555.573	80.011	19.993	103.777	19.666	14.107	0.537
937.500	559.427	80.009	19.994	103.775	19.667	13.979	0.516
945.000	563.349	80.010	19.994	103.779	19.669	13.877	0.509
952.500	567.238	80.010	19.994	103.773	19.674	13.547	0.523
960.000	571.089	80.012	19.993	103.781	19.680	13.087	0.540
967.500	575.023	80.009	19.993	103.771	19.678	13.228	0.499
975.000	578.846	80.011	19.995	103.765	19.680	13.071	0.484
982.500	582.632	80.010	19.994	103.753	19.689	12.496	0.521
990.000	586.404	80.010	19.993	103.769	19.691	12.314	0.480
997.500	590.247	80.009	19.993	103.758	19.695	12.032	0.507
1005.000	594.070	80.010	19.994	103.754	19.703	11.450	0.525
1012.500	597.949	80.011	19.993	103.757	19.711	10.893	0.517
1020.000	601.766	80.009	19.993	103.744	19.712	10.836	0.490
1027.500	605.581	80.009	19.993	103.744	19.718	10.397	0.477
1035.001	609.398	80.010	19.994	103.743	19.726	9.844	0.521
1042.500	613.217	80.010	19.993	103.742	19.737	9.107	0.519
1050.000	617.165	80.010	19.994	103.742	19.742	8.725	0.509
1057.500	621.047	80.009	19.994	103.742	19.751	8.089	0.520
1065.000	624.948	80.011	19.994	103.727	19.761	7.401	0.516
1072.500	628.825	80.010	19.994	103.733	19.766	7.072	0.522
1080.000	632.665	80.011	19.994	103.745	19.772	6.595	0.509
1087.500	636.567	80.011	19.995	103.742	19.779	6.126	0.548
1095.000	640.344	80.010	19.994	103.739	19.781	5.972	0.486
1102.500	644.121	80.008	19.994	103.731	19.782	5.937	0.505
1110.000	647.913	80.010	19.995	103.727	19.785	5.691	0.533
1117.500	651.740	80.009	19.993	103.707	19.783	5.822	0.507
1125.000	655.653	80.010	19.993	103.743	19.789	5.451	0.514
1132.500	659.472	80.009	19.993	103.719	19.783	5.837	0.478
1140.001	663.329	80.009	19.993	103.725	19.787	5.545	0.505
1147.500	667.157	80.011	19.992	103.722	19.786	5.607	0.525
1155.000	671.009	80.009	19.994	103.711	19.786	5.666	0.517
1162.500	674.862	80.010	19.994	103.720	19.790	5.346	0.551
1170.000	678.693	80.012	19.993	103.721	19.788	5.529	0.499
1177.500	682.494	80.011	19.993	103.719	19.785	5.713	0.527
1185.000	686.282	80.009	19.993	103.718	19.784	5.790	0.499
1192.500	690.082	80.007	19.993	103.732	19.786	5.604	0.485
1200.000	693.852	80.009	19.994	103.732	19.785	5.739	0.483
1207.501	697.610	80.008	19.993	103.725	19.784	5.798	0.481
1215.000	701.364	80.009	19.994	103.716	19.788	5.471	0.486
1222.500	705.163	80.009	19.994	103.738	19.788	5.486	0.512
1230.001	708.986	80.010	19.993	103.722	19.788	5.497	0.478
1237.501	712.829	80.011	19.993	103.721	19.791	5.260	0.519
1245.000	716.679	80.011	19.993	103.724	19.787	5.556	0.482
1252.500	720.522	80.011	19.993	103.715	19.786	5.661	0.498
1260.000	724.294	80.010	19.994	103.728	19.789	5.439	0.508
1267.500	728.040	80.009	19.993	103.718	19.788	5.528	0.518
1275.000	731.911	80.009	19.994	103.715	19.786	5.604	0.551
1282.500	735.718	80.008	19.994	103.731	19.790	5.371	0.508
1290.001	739.595	80.008	19.995	103.726	19.788	5.499	0.537
1297.500	743.425	80.009	19.995	103.714	19.785	5.703	0.516

File: Polyisocyanurate_Foam_Board_MCC_30K_min_220214_R2.txt
Sample ID:	C:\MCC\MCC Cal\Test\Polyisocyanurate_Foam_Board_MCC_30K_min_220214_R2.txt
Sample Weight (mg):	4.66
Heating Rate (C/s):	0.5
Combustor Temp (C):	900
N2 Flow Rate (cc/min):	80
O2 Flow Rate (cc/min):	20
Calibration File:	C:\MCC\MCC Cal\Coeff1 JN10440_30_210304.txt.txt
T Correction Coefficients:	0	1.024463	0
Time Shift (s):	14
*
Time (s)	Temperature (C)	N2 flow rate (cc/min)	O2 flow rate (cc/min)	Flow Rate (cc/min)	Oxygen (%)	HRR (W/g)	Heating rate (C/s)
0.000	113.717	80.001	19.992	103.645	20.099	-0.161	-0.031
8.000	113.664	80.001	19.994	103.645	20.097	-0.056	-0.028
16.000	113.659	80.003	19.994	103.675	20.101	-0.326	-0.014
24.000	113.744	80.003	19.993	103.721	20.088	0.599	0.017
32.000	114.144	80.002	19.993	103.831	20.069	1.914	0.063
40.000	115.020	80.005	19.993	103.836	20.067	2.045	0.131
48.000	116.310	80.003	19.994	103.851	20.061	2.511	0.166
56.000	118.034	80.002	19.993	103.878	20.060	2.546	0.225
64.001	120.129	80.002	19.994	103.910	20.049	3.280	0.278
72.000	122.580	80.002	19.994	103.918	20.052	3.103	0.323
80.000	125.372	80.001	19.996	103.913	20.048	3.411	0.368
88.000	128.421	80.001	19.994	103.910	20.045	3.559	0.403
96.000	131.700	80.004	19.994	103.914	20.046	3.530	0.437
104.001	135.166	80.003	19.993	103.912	20.046	3.553	0.403
112.000	138.889	80.002	19.993	103.914	20.046	3.499	0.482
120.000	142.640	80.005	19.993	103.914	20.045	3.622	0.485
128.000	146.575	80.003	19.992	103.913	20.037	4.149	0.500
136.000	150.588	80.002	19.994	103.914	20.038	4.046	0.499
144.000	154.585	80.002	19.994	103.904	20.033	4.408	0.524
152.000	158.614	80.002	19.994	103.896	20.033	4.397	0.502
160.000	162.637	80.002	19.994	103.885	20.027	4.849	0.519
168.000	166.697	80.001	19.996	103.876	20.025	4.965	0.513
176.000	170.735	80.002	19.994	103.877	20.017	5.567	0.508
184.000	174.716	80.004	19.993	103.877	20.013	5.820	0.469
192.000	178.734	80.003	19.994	103.879	20.003	6.531	0.519
200.000	182.705	80.003	19.993	103.867	19.997	6.915	0.491
208.000	186.739	80.005	19.993	103.868	19.991	7.355	0.504
216.000	190.715	80.004	19.994	103.864	19.984	7.853	0.516
224.000	194.640	80.002	19.993	103.859	19.979	8.191	0.507
232.000	198.559	80.002	19.994	103.854	19.975	8.450	0.494
240.000	202.542	80.003	19.994	103.857	19.968	8.958	0.511
248.000	206.490	80.001	19.994	103.863	19.971	8.733	0.509
256.000	210.445	80.002	19.993	103.870	19.965	9.155	0.499
264.000	214.440	80.003	19.994	103.845	19.969	8.853	0.493
272.000	218.366	80.003	19.995	103.861	19.970	8.833	0.513
280.000	222.322	80.004	19.994	103.861	19.971	8.743	0.514
288.000	226.259	80.006	19.994	103.870	19.973	8.578	0.474
296.001	230.233	80.004	19.993	103.862	19.976	8.418	0.468
304.000	234.254	80.003	19.993	103.867	19.983	7.911	0.500
312.000	238.225	80.003	19.993	103.859	19.980	8.105	0.478
320.000	242.217	80.003	19.993	103.867	19.974	8.523	0.522
328.000	246.247	80.002	19.993	103.869	19.974	8.547	0.522
336.000	250.226	80.003	19.996	103.874	19.960	9.486	0.516
344.000	254.192	80.005	19.993	103.851	19.957	9.742	0.515
352.000	258.148	80.004	19.993	103.873	19.951	10.098	0.518
360.000	262.102	80.003	19.994	103.875	19.935	11.228	0.470
368.000	266.098	80.006	19.994	103.886	19.916	12.586	0.482
376.000	270.086	80.005	19.994	103.908	19.902	13.506	0.510
384.000	274.115	80.003	19.993	103.913	19.886	14.673	0.494
392.000	278.087	80.003	19.994	103.927	19.866	16.035	0.480
400.000	282.099	80.003	19.993	103.952	19.843	17.620	0.486
408.000	286.086	80.002	19.994	103.953	19.817	19.451	0.485
416.000	290.115	80.004	19.995	103.965	19.786	21.627	0.490
424.000	294.153	80.004	19.994	103.991	19.746	24.384	0.514
432.000	298.179	80.005	19.994	104.013	19.696	27.939	0.488
440.000	302.220	80.005	19.994	104.029	19.628	32.610	0.516
448.000	306.278	80.003	19.995	104.013	19.557	37.599	0.519
456.000	310.346	80.002	19.996	103.995	19.483	42.678	0.503
464.000	314.491	80.003	19.994	103.962	19.437	45.880	0.496
472.000	318.617	80.003	19.995	103.947	19.431	46.319	0.492
480.000	322.690	80.005	19.993	103.918	19.447	45.164	0.497
488.000	326.817	80.003	19.994	103.915	19.481	42.787	0.520
496.000	330.937	80.004	19.993	103.858	19.515	40.434	0.530
504.000	335.041	80.005	19.993	103.884	19.555	37.647	0.532
512.000	339.056	80.005	19.994	103.869	19.600	34.536	0.500
520.000	343.095	80.004	19.994	103.851	19.635	32.121	0.479
528.000	347.078	80.007	19.996	103.840	19.667	29.880	0.505
536.000	351.084	80.005	19.993	103.837	19.685	28.589	0.502
544.000	355.139	80.004	19.996	103.828	19.694	27.957	0.507
552.000	359.107	80.002	19.995	103.834	19.687	28.507	0.480
560.000	363.125	80.004	19.995	103.822	19.692	28.151	0.481
568.000	367.172	80.003	19.993	103.828	19.690	28.264	0.513
576.000	371.211	80.002	19.995	103.839	19.694	28.014	0.493
584.000	375.282	80.004	19.994	103.835	19.696	27.850	0.487
592.000	379.302	80.006	19.995	103.834	19.700	27.555	0.491
600.000	383.364	80.005	19.994	103.832	19.706	27.169	0.511
608.000	387.415	80.005	19.994	103.838	19.717	26.358	0.496
616.000	391.574	80.007	19.995	103.860	19.713	26.650	0.517
624.000	395.633	80.004	19.995	103.802	19.720	26.209	0.507
632.000	399.723	80.003	19.995	103.800	19.720	26.191	0.527
640.000	403.786	80.003	19.996	103.803	19.729	25.555	0.524
648.000	407.821	80.002	19.993	103.801	19.737	24.983	0.486
656.000	411.845	80.002	19.992	103.803	19.749	24.192	0.511
664.000	415.839	80.004	19.995	103.798	19.762	23.265	0.508
672.000	419.851	80.006	19.994	103.776	19.769	22.739	0.487
680.000	423.950	80.004	19.994	103.797	19.782	21.881	0.505
688.000	427.965	80.006	19.993	103.791	19.783	21.819	0.503
696.000	431.937	80.007	19.997	103.800	19.787	21.500	0.477
704.000	436.013	80.002	19.993	103.789	19.794	21.037	0.478
712.000	440.043	80.004	19.993	103.801	19.799	20.689	0.494
720.000	444.135	80.003	19.993	103.797	19.802	20.470	0.508
728.000	448.231	80.003	19.995	103.794	19.797	20.839	0.528
736.000	452.388	80.002	19.995	103.795	19.787	21.488	0.523
744.000	456.501	80.004	19.993	103.786	19.788	21.422	0.501
752.000	460.651	80.006	19.994	103.795	19.765	23.072	0.519
760.000	464.723	80.006	19.995	103.790	19.755	23.753	0.502
768.000	468.886	80.004	19.994	103.798	19.746	24.396	0.525
776.000	472.990	80.006	19.992	103.800	19.736	25.063	0.536
784.000	477.203	80.003	19.993	103.800	19.734	25.225	0.542
792.000	481.317	80.003	19.994	103.796	19.739	24.860	0.501
800.000	485.431	80.003	19.995	103.798	19.742	24.662	0.545
808.000	489.559	80.004	19.994	103.797	19.751	24.023	0.492
816.001	493.697	80.004	19.996	103.795	19.767	22.894	0.494
824.000	497.900	80.002	19.995	103.798	19.781	21.912	0.514
832.000	502.004	80.004	19.995	103.796	19.801	20.536	0.509
840.000	506.104	80.004	19.994	103.799	19.816	19.526	0.504
848.000	510.226	80.004	19.994	103.796	19.835	18.206	0.527
856.000	514.295	80.006	19.993	103.772	19.850	17.123	0.527
864.000	518.450	80.005	19.994	103.777	19.870	15.737	0.508
872.000	522.616	80.005	19.993	103.768	19.882	14.909	0.530
880.000	526.721	80.004	19.994	103.771	19.894	14.081	0.497
888.000	530.872	80.005	19.993	103.759	19.904	13.362	0.518
896.000	534.889	80.003	19.995	103.761	19.910	12.982	0.528
904.000	539.007	80.003	19.994	103.763	19.915	12.608	0.498
912.000	543.032	80.005	19.993	103.760	19.918	12.417	0.500
920.000	547.118	80.004	19.995	103.755	19.922	12.098	0.545
928.000	551.205	80.004	19.994	103.760	19.925	11.943	0.508
936.000	555.378	80.005	19.993	103.758	19.925	11.901	0.501
944.000	559.487	80.008	19.994	103.757	19.926	11.853	0.522
952.000	563.694	80.003	19.993	103.758	19.922	12.164	0.539
960.000	567.852	80.003	19.993	103.759	19.919	12.306	0.522
968.000	572.021	80.005	19.993	103.764	19.926	11.877	0.552
976.000	576.312	80.004	19.993	103.763	19.920	12.303	0.524
984.000	580.494	80.003	19.995	103.759	19.926	11.859	0.551
992.000	584.658	80.005	19.993	103.750	19.934	11.330	0.498
1000.000	588.937	80.006	19.994	103.746	19.935	11.194	0.559
1008.000	593.042	80.006	19.996	103.747	19.948	10.298	0.508
1016.000	597.135	80.007	19.995	103.746	19.955	9.841	0.517
1024.000	600.716	80.005	19.994	103.746	19.954	9.890	0.045
1032.001	605.448	80.004	19.993	103.754	19.965	9.139	0.515
1040.000	609.499	80.004	19.992	103.747	19.977	8.320	0.503
1048.000	613.678	80.005	19.993	103.748	19.984	7.823	0.522
1056.000	617.796	80.004	19.995	103.748	19.990	7.394	0.510
1064.000	621.887	80.005	19.994	103.732	20.000	6.744	0.508
1072.000	625.969	80.004	19.993	103.739	20.007	6.237	0.493
1080.000	630.047	80.007	19.994	103.714	20.010	6.000	0.504
1088.000	634.141	80.005	19.993	103.721	20.019	5.420	0.522
1096.000	638.224	80.007	19.996	103.723	20.020	5.355	0.491
1104.000	642.298	80.004	19.993	103.725	20.026	4.891	0.508
1112.000	646.288	80.003	19.994	103.718	20.025	4.954	0.506
1120.000	650.389	80.004	19.995	103.717	20.032	4.505	0.527
1128.000	654.468	80.004	19.993	103.717	20.030	4.622	0.507
1136.000	658.623	80.003	19.994	103.711	20.038	4.095	0.512
1144.000	662.703	80.003	19.994	103.710	20.036	4.217	0.416
1152.000	666.826	80.004	19.993	103.712	20.035	4.265	0.499
1160.000	670.929	80.004	19.992	103.714	20.037	4.167	0.526
1168.000	674.999	80.004	19.995	103.706	20.038	4.085	0.512
1176.000	679.054	80.006	19.995	103.718	20.040	3.914	0.525
1184.000	683.145	80.008	19.993	103.704	20.037	4.160	0.497
1192.000	687.262	80.005	19.994	103.719	20.040	3.902	0.510
1200.000	691.339	80.003	19.996	103.716	20.038	4.043	0.498
1208.000	695.421	80.003	19.995	103.710	20.043	3.718	0.477
1216.000	699.486	80.002	19.994	103.711	20.043	3.750	0.474
1224.000	703.556	80.008	19.994	103.692	20.044	3.663	0.487
1232.000	707.644	80.004	19.993	103.703	20.043	3.693	0.522
1240.000	711.675	80.004	19.994	103.708	20.040	3.914	0.527
1248.000	715.769	80.008	19.992	103.705	20.044	3.663	0.521
1256.000	719.880	80.003	19.995	103.711	20.044	3.657	0.488
1264.000	723.934	80.009	19.994	103.691	20.044	3.676	0.505
1272.000	728.036	80.005	19.994	103.712	20.041	3.835	0.510
1280.000	732.126	80.003	19.995	103.688	20.037	4.131	0.490
1288.000	736.187	80.004	19.994	103.717	20.044	3.682	0.484
1296.000	740.206	80.002	19.995	103.698	20.043	3.743	0.484
1303.000	743.719	80.009	19.995	103.705	20.043	3.745	0.528