Folder: fsri_materials_database/01_Data/Polyisocyanurate_Foam_Board/MCC (part 2)

File: Polyisocyanurate_Foam_Board_MCC_30K_min_220214_R3.txt
Sample ID:	C:\MCC\MCC Cal\Test\Polyisocyanurate_Foam_Board_MCC_30K_min_220214_R3.txt
Sample Weight (mg):	4.58
Heating Rate (C/s):	0.5
Combustor Temp (C):	900
N2 Flow Rate (cc/min):	80
O2 Flow Rate (cc/min):	20
Calibration File:	C:\MCC\MCC Cal\Coeff1 JN10440_30_210304.txt.txt
T Correction Coefficients:	0	1.024463	0
Time Shift (s):	14
*
Time (s)	Temperature (C)	N2 flow rate (cc/min)	O2 flow rate (cc/min)	Flow Rate (cc/min)	Oxygen (%)	HRR (W/g)	Heating rate (C/s)
0.000	112.832	80.004	19.993	103.675	20.175	0.328	-0.011
8.000	112.826	80.003	19.994	103.683	20.177	0.230	-0.030
16.000	112.898	80.006	19.994	103.727	20.171	0.649	-0.003
24.000	113.144	80.006	19.993	103.807	20.157	1.598	0.056
32.000	113.770	80.004	19.994	103.860	20.148	2.250	0.069
40.001	114.854	80.003	19.995	103.874	20.142	2.715	0.164
48.000	116.264	80.005	19.994	103.873	20.139	2.899	0.164
56.001	118.082	80.008	19.994	103.910	20.142	2.686	0.237
64.000	120.175	80.003	19.993	103.905	20.136	3.100	0.297
72.000	122.591	80.005	19.993	103.930	20.132	3.376	0.294
80.000	125.319	80.004	19.994	103.940	20.132	3.364	0.320
88.000	128.236	80.003	19.992	103.938	20.129	3.613	0.373
96.000	131.428	80.003	19.993	103.954	20.132	3.425	0.395
104.000	134.791	80.002	19.995	103.954	20.126	3.818	0.427
112.000	138.309	80.004	19.994	103.953	20.125	3.923	0.442
120.001	141.970	80.003	19.994	103.945	20.125	3.917	0.454
128.000	145.777	79.996	19.995	103.950	20.120	4.236	0.483
136.000	149.653	80.005	19.994	103.946	20.119	4.316	0.481
144.000	153.518	80.008	19.993	103.936	20.112	4.803	0.505
152.000	157.433	80.002	19.995	103.938	20.115	4.628	0.506
160.000	161.357	80.001	19.995	103.924	20.106	5.256	0.461
168.000	165.398	80.005	19.993	103.927	20.105	5.301	0.515
176.000	169.418	80.001	19.995	103.928	20.102	5.551	0.476
184.000	173.427	80.003	19.994	103.916	20.095	5.984	0.512
192.000	177.441	79.997	19.995	103.917	20.086	6.681	0.496
200.000	181.432	80.004	19.994	103.909	20.082	6.954	0.499
208.001	185.422	80.009	19.994	103.917	20.078	7.222	0.495
216.000	189.423	80.005	19.994	103.910	20.068	7.912	0.473
224.000	193.402	80.005	19.994	103.912	20.064	8.195	0.478
232.000	197.375	80.005	19.993	103.905	20.060	8.465	0.511
240.000	201.304	80.002	19.993	103.905	20.058	8.628	0.510
248.000	205.200	80.004	19.993	103.898	20.055	8.848	0.488
256.000	209.149	80.014	19.993	103.909	20.056	8.764	0.514
264.000	213.037	80.001	19.993	103.900	20.055	8.837	0.512
272.000	216.927	80.008	19.995	103.903	20.056	8.745	0.460
280.000	220.828	80.005	19.994	103.900	20.059	8.587	0.470
288.000	224.814	80.015	19.992	103.914	20.063	8.267	0.471
296.000	228.814	80.019	19.993	103.911	20.063	8.307	0.504
304.000	232.849	80.007	19.993	103.910	20.068	7.929	0.540
312.000	236.857	80.005	19.992	103.917	20.066	8.069	0.498
320.000	240.879	80.002	19.995	103.910	20.064	8.221	0.513
328.000	244.888	79.999	19.996	103.916	20.059	8.569	0.518
336.000	248.918	79.991	19.994	103.906	20.055	8.872	0.503
344.000	252.956	80.005	19.994	103.910	20.044	9.617	0.513
352.000	256.949	80.006	19.992	103.936	20.033	10.418	0.507
360.000	260.934	79.999	19.995	103.940	20.022	11.177	0.522
368.000	264.925	80.000	19.993	103.940	20.005	12.361	0.491
376.000	268.928	80.001	19.993	103.959	19.987	13.679	0.524
384.000	272.998	80.014	19.994	103.957	19.972	14.736	0.505
392.000	276.941	80.000	19.997	103.969	19.946	16.556	0.465
400.000	280.981	80.002	19.996	103.982	19.925	18.074	0.471
408.000	285.013	80.007	19.992	103.999	19.899	19.910	0.486
416.000	288.979	80.004	19.995	104.031	19.871	21.903	0.485
424.000	293.075	80.001	19.994	104.032	19.831	24.753	0.543
432.000	297.077	80.008	19.989	104.065	19.778	28.477	0.485
440.000	301.126	80.011	19.989	104.070	19.705	33.657	0.529
448.000	305.138	80.005	19.992	104.059	19.626	39.228	0.498
456.000	309.191	80.013	19.992	104.021	19.558	44.036	0.488
464.000	313.306	80.009	19.992	103.993	19.518	46.869	0.500
472.000	317.387	79.999	19.993	103.986	19.522	46.578	0.521
480.000	321.415	80.011	19.994	103.980	19.556	44.151	0.463
488.000	325.494	79.999	19.992	103.952	19.583	42.271	0.517
496.000	329.549	80.008	19.992	103.943	19.613	40.153	0.506
504.000	333.520	79.999	19.995	103.929	19.650	37.488	0.476
512.000	337.606	80.012	19.994	103.904	19.691	34.615	0.523
520.000	341.659	80.014	19.993	103.908	19.731	31.758	0.505
528.000	345.632	80.004	19.994	103.893	19.768	29.176	0.485
536.000	349.683	80.007	19.993	103.892	19.784	27.998	0.491
544.000	353.749	80.012	19.993	103.875	19.784	28.041	0.517
552.000	357.818	80.009	19.996	103.874	19.781	28.265	0.530
560.000	361.829	80.008	19.993	103.871	19.776	28.565	0.486
568.000	365.812	80.009	19.992	103.883	19.777	28.481	0.468
576.000	369.864	79.999	19.998	103.878	19.781	28.232	0.492
584.000	373.936	80.009	19.991	103.874	19.792	27.489	0.503
592.000	377.977	80.006	19.994	103.880	19.800	26.888	0.496
600.000	382.054	79.999	19.998	103.873	19.811	26.104	0.515
608.000	386.181	80.010	19.992	103.873	19.812	26.055	0.540
616.000	390.214	80.005	19.990	103.870	19.812	26.005	0.511
624.000	394.284	80.001	19.996	103.864	19.815	25.816	0.508
632.000	398.377	80.009	19.992	103.870	19.816	25.736	0.509
640.000	402.435	80.008	19.994	103.852	19.820	25.442	0.486
648.000	406.473	80.000	19.996	103.846	19.830	24.755	0.493
656.000	410.564	80.004	19.994	103.863	19.843	23.865	0.531
664.000	414.563	80.008	19.993	103.850	19.854	23.060	0.502
672.000	418.585	79.995	20.009	103.850	19.863	22.423	0.482
680.000	422.636	80.008	19.993	103.834	19.871	21.860	0.503
688.000	426.648	80.005	19.998	103.842	19.880	21.211	0.515
696.000	430.708	80.004	19.993	103.836	19.886	20.760	0.506
704.000	434.846	80.008	19.994	103.834	19.890	20.519	0.544
712.000	438.947	80.008	19.989	103.839	19.897	20.050	0.517
720.000	443.028	80.009	19.990	103.837	19.899	19.907	0.501
728.000	447.079	80.002	19.995	103.840	19.891	20.415	0.501
736.000	451.189	80.002	19.994	103.853	19.886	20.766	0.500
744.000	455.308	80.008	19.992	103.840	19.873	21.742	0.523
752.000	459.414	80.005	19.990	103.860	19.864	22.323	0.516
760.000	463.523	80.007	19.992	103.841	19.851	23.239	0.518
768.000	467.624	80.001	19.989	103.853	19.841	23.977	0.538
776.000	471.697	80.007	19.995	103.851	19.840	24.070	0.526
784.000	475.792	80.004	19.993	103.855	19.833	24.554	0.493
792.000	479.885	80.008	19.995	103.835	19.837	24.290	0.518
800.000	483.909	80.002	19.996	103.842	19.844	23.783	0.512
808.000	488.024	80.004	19.993	103.849	19.850	23.324	0.522
816.000	492.180	80.001	19.999	103.852	19.864	22.370	0.514
824.000	496.311	80.006	19.996	103.851	19.879	21.310	0.522
832.000	500.451	80.003	19.996	103.840	19.893	20.330	0.533
840.000	504.578	80.002	19.990	103.835	19.914	18.804	0.520
848.000	508.713	80.008	19.991	103.836	19.928	17.833	0.512
856.000	512.866	80.004	19.997	103.831	19.942	16.850	0.474
864.000	517.039	80.007	19.993	103.835	19.962	15.408	0.507
872.000	521.211	80.007	19.995	103.836	19.976	14.411	0.530
880.000	525.305	80.003	19.998	103.831	19.986	13.734	0.518
888.000	529.418	80.000	20.001	103.822	20.000	12.758	0.506
896.000	533.480	80.008	19.990	103.826	20.005	12.345	0.499
904.000	537.585	80.003	19.990	103.826	20.014	11.768	0.539
912.000	541.697	80.006	19.994	103.814	20.017	11.551	0.514
920.000	545.806	80.004	19.995	103.803	20.020	11.320	0.540
928.000	549.981	80.006	19.992	103.818	20.020	11.299	0.536
936.000	554.030	80.005	19.999	103.821	20.022	11.169	0.479
944.000	558.163	80.004	20.000	103.808	20.020	11.283	0.472
952.000	562.301	80.006	19.994	103.810	20.019	11.408	0.509
960.000	566.451	80.007	19.993	103.820	20.023	11.113	0.503
968.000	570.571	80.004	19.997	103.799	20.022	11.154	0.541
976.000	574.749	80.003	19.995	103.798	20.015	11.676	0.542
984.000	579.004	80.005	19.996	103.806	20.027	10.792	0.781
992.000	583.180	80.006	19.994	103.805	20.029	10.679	0.756
1000.000	587.258	80.004	19.994	103.807	20.034	10.349	0.537
1008.000	591.372	80.004	19.995	103.796	20.038	10.060	0.473
1016.000	595.625	80.006	19.994	103.803	20.046	9.450	0.516
1024.000	599.801	80.003	19.996	103.794	20.052	9.046	0.512
1032.000	603.971	80.009	19.992	103.785	20.065	8.126	0.518
1040.000	608.066	80.006	19.995	103.789	20.075	7.452	0.532
1048.000	612.217	80.004	19.995	103.790	20.078	7.194	0.514
1056.000	616.359	80.006	19.994	103.789	20.087	6.591	0.507
1064.000	620.517	80.004	19.995	103.778	20.095	6.024	0.524
1072.000	624.626	80.003	19.994	103.782	20.104	5.368	0.494
1080.000	628.781	80.005	19.994	103.779	20.112	4.780	0.503
1088.000	632.886	80.007	19.993	103.780	20.119	4.275	0.488
1096.000	637.112	80.005	19.995	103.785	20.129	3.611	0.530
1104.000	641.126	80.007	19.993	103.776	20.130	3.557	0.513
1112.000	645.225	80.007	19.994	103.784	20.135	3.147	0.524
1120.000	649.268	80.007	19.993	103.774	20.135	3.165	0.506
1128.001	653.349	80.004	19.994	103.771	20.137	3.016	0.509
1136.000	657.476	80.006	19.996	103.783	20.138	2.966	0.502
1144.000	661.572	80.003	19.995	103.766	20.143	2.630	0.507
1152.000	665.775	80.004	19.994	103.766	20.143	2.643	0.813
1160.000	669.977	80.004	19.994	103.758	20.144	2.577	0.509
1168.000	674.186	80.005	19.994	103.772	20.142	2.720	0.556
1176.000	678.348	80.008	19.994	103.777	20.143	2.642	0.464
1184.000	682.538	80.007	19.994	103.771	20.145	2.470	0.535
1192.000	686.662	80.004	19.993	103.761	20.147	2.325	0.506
1200.000	690.708	80.007	19.993	103.761	20.142	2.673	0.497
1208.000	694.811	80.005	19.993	103.766	20.146	2.437	0.494
1216.000	698.867	80.005	19.994	103.758	20.146	2.413	0.509
1224.000	702.884	80.005	19.996	103.763	20.149	2.192	0.503
1232.000	706.940	80.005	19.994	103.761	20.146	2.429	0.502
1240.000	710.994	80.005	19.994	103.780	20.147	2.325	0.486
1248.000	715.088	80.005	19.994	103.771	20.148	2.247	0.485
1256.000	719.224	80.007	19.996	103.772	20.147	2.298	0.502
1264.000	723.440	80.004	19.995	103.755	20.146	2.370	0.537
1272.000	727.616	80.006	19.994	103.762	20.145	2.464	0.534
1280.000	731.772	80.008	19.994	103.759	20.149	2.206	0.531
1288.000	735.768	80.006	19.994	103.761	20.150	2.105	0.491
1296.001	739.906	80.006	19.994	103.771	20.148	2.288	0.513
1303.000	743.459	80.006	19.993	103.755	20.146	2.399	0.494