Folder: fsri_materials_database/01_Data/Hemp_Sheets/STA/N2/10K_min

Note: 01_Data/README.md
# Materials and Products Database
## 01_Data

Raw data generated from each apparatus are included here in plain-text format. The data is organized first by material, next by the short name of test apparatus used, and where applicable additional filtering by test settings.

### material.json

Each material directory contains a json file of the same name as the material. This file links the data stored in the repository as well as data and graphs produced by the accompanying scripts (__02_Scripts__) to the respective landing page for the material on the front-end website.

File: Hemp_Sheet_STA_N2_10KData_22274_R2.csv
##Temp./Â°C,Time/min,DSC(subtr.2)/(mW/mg),Mass loss(subtr.2)/mg,Sensit./(uV/mW)
49.647,10.01,0.01010002,0.00658,1.06053
52.547,11.27232,0.11779,0.00581336,1.05993
55.447,11.69572,0.17268,0.006816747,1.05931
58.347,12.05303,0.20948,0.00484826,1.05868
61.247,12.38658,0.23158,0.004941666,1.05803
64.147,12.70698,0.24577,0.001497933,1.05736
67.047,13.0219,0.25775,0.000881528,1.05669
69.947,13.3324,0.27218,0.001085711,1.05599
72.847,13.6397,0.28045,0.000548765,1.05528
75.747,13.94423,0.29497,-0.00207128,1.05455
78.647,14.24598,0.30328,-0.004756144,1.05381
81.547,14.54491,0.31121,-0.001356486,1.05306
84.447,14.84075,0.31524,-0.005298469,1.05228
87.347,15.1336,0.32244,-0.005597383,1.0515
90.247,15.42579,0.32314,-0.007785821,1.0507
93.147,15.71522,0.32381,-0.009257627,1.04988
96.047,16.0032,0.32168,-0.00861329,1.04905
98.947,16.289,0.31924,-0.01063906,1.0482
101.847,16.57391,0.31616,-0.00997495,1.04734
104.747,16.85913,0.31003,-0.01124452,1.04646
107.647,17.1429,0.30791,-0.00957484,1.04557
110.547,17.42631,0.30459,-0.01264973,1.04467
113.447,17.70917,0.30102,-0.01536925,1.04375
116.347,17.99144,0.29814,-0.01059913,1.04281
119.247,18.2734,0.29875,-0.01264771,1.04186
122.147,18.55518,0.29647,-0.01217849,1.0409
125.047,18.83659,0.29802,-0.008327505,1.03992
127.947,19.1186,0.29932,-0.01097003,1.03893
130.847,19.39854,0.29962,-0.00801003,1.03792
133.747,19.6797,0.30174,-0.01095657,1.0369
136.647,19.96049,0.30388,-0.01163597,1.03587
139.547,20.2405,0.30657,-0.01098375,1.03482
142.447,20.52006,0.30831,-0.01096801,1.03376
145.347,20.79891,0.31097,-0.009655041,1.03268
148.247,21.07679,0.31386,-0.00695892,1.03159
151.147,21.3551,0.31867,-0.006987655,1.03049
154.047,21.633,0.32119,-0.0112841,1.02937
156.947,21.91161,0.32322,-0.009985692,1.02824
159.847,22.18993,0.32367,-0.00734984,1.0271
162.747,22.46794,0.32533,-0.00997675,1.02594
165.647,22.74638,0.33117,-0.008990175,1.02477
168.547,23.0241,0.33303,-0.00802897,1.02358
171.447,23.30198,0.33555,-0.009214614,1.02238
174.347,23.57957,0.33992,-0.006106125,1.02117
177.247,23.85647,0.34439,-0.009979991,1.01995
180.147,24.13338,0.34522,-0.008120036,1.01871
183.047,24.41085,0.35026,-0.009428642,1.01746
185.947,24.68773,0.35128,-0.009409084,1.0162
188.847,24.96414,0.35308,-0.008120073,1.01492
191.747,25.2401,0.35579,-0.008121199,1.01363
194.647,25.51677,0.36009,-0.01075034,1.01233
197.547,25.79287,0.36169,-0.009445458,1.01102
200.447,26.06938,0.36192,-0.01240268,1.00969
203.347,26.34618,0.36672,-0.01338454,1.00835
206.247,26.62237,0.36701,-0.01207338,1.007
209.147,26.8987,0.36723,-0.008446415,1.00563
212.047,27.1749,0.3737,-0.01131182,1.00426
214.947,27.45102,0.37629,-0.01733001,1.00287
217.847,27.7275,0.37542,-0.01459105,1.00147
220.747,28.0039,0.3791,-0.01625821,1.00005
223.647,28.27996,0.38274,-0.01918999,0.99863
226.547,28.5564,0.38391,-0.02018055,0.99719
229.447,28.83235,0.38582,-0.01873485,0.99574
232.347,29.10868,0.38873,-0.02222116,0.99428
235.247,29.38461,0.39114,-0.02616942,0.99281
238.147,29.66055,0.39356,-0.02358853,0.99133
241.047,29.93703,0.39541,-0.02752889,0.98983
243.947,30.21371,0.39833,-0.02986176,0.98832
246.847,30.48971,0.40049,-0.03322985,0.98681
249.747,30.7667,0.40226,-0.03458373,0.98528
252.647,31.0432,0.40546,-0.03980642,0.98373
255.547,31.32,0.40925,-0.04245,0.98218
258.447,31.59635,0.41272,-0.04540991,0.98062
261.347,31.87245,0.41403,-0.04805078,0.97904
264.247,32.149,0.41749,-0.05487293,0.97746
267.147,32.4264,0.41956,-0.05693804,0.97586
270.047,32.7033,0.41956,-0.06299141,0.97426
272.947,32.9803,0.42117,-0.06900064,0.97264
275.847,33.2579,0.42412,-0.0770183,0.97101
278.747,33.5355,0.42303,-0.08178158,0.96937
281.647,33.81286,0.42711,-0.0887877,0.96772
284.547,34.09015,0.42988,-0.09884758,0.96606
287.447,34.36743,0.43381,-0.1094,0.96439
290.347,34.64503,0.44019,-0.12063,0.96271
293.247,34.9224,0.44622,-0.13374,0.96102
296.147,35.1999,0.4515,-0.14083,0.95931
299.047,35.47672,0.45732,-0.15626,0.9576
301.947,35.756,0.46729,-0.17117,0.95588
304.847,36.03456,0.4731,-0.18849,0.95415
307.747,36.31398,0.48563,-0.20941,0.95241
310.647,36.59243,0.50055,-0.23114,0.95066
313.547,36.87096,0.51666,-0.24898,0.9489
316.447,37.14913,0.53448,-0.28467,0.94713
319.347,37.42719,0.55598,-0.31408,0.94535
322.247,37.7059,0.57991,-0.3495,0.94356
325.147,37.98507,0.60959,-0.38624,0.94176
328.047,38.26433,0.63851,-0.43168,0.93995
330.947,38.5433,0.67735,-0.48142,0.93813
333.847,38.8227,0.72372,-0.53521,0.9363
336.747,39.10218,0.77525,-0.60408,0.93447
339.647,39.3818,0.83962,-0.68002,0.93262
342.547,39.6621,0.91235,-0.76327,0.93077
345.447,39.94247,0.99584,-0.86485,0.9289
348.347,40.22318,1.09882,-0.97829,0.92703
351.247,40.5051,1.222,-1.10882,0.92515
354.147,40.78675,1.35918,-1.26076,0.92326
357.047,41.0687,1.51217,-1.43418,0.92136
359.947,41.3506,1.66961,-1.63398,0.91946
362.847,41.63286,1.81398,-1.86253,0.91754
365.747,41.91547,1.91785,-2.09659,0.91562
368.647,42.19801,1.95178,-2.35827,0.91368
371.547,42.47954,1.88281,-2.60499,0.91174
374.447,42.76027,1.69427,-2.83254,0.90979
377.347,43.03969,1.37995,-3.03446,0.90784
380.247,43.3177,0.98704,-3.17676,0.90587
383.147,43.59513,0.59665,-3.27194,0.9039
386.047,43.8731,0.3088,-3.32314,0.90192
388.947,44.1514,0.15085,-3.3467,0.89993
391.847,44.4307,0.09210328,-3.35383,0.89794
394.747,44.71115,0.07489933,-3.36254,0.89593
397.647,44.99208,0.06899716,-3.36676,0.89392
400.547,45.27475,0.0649571,-3.36978,0.8919
403.447,45.5569,0.06215646,-3.37712,0.88987
406.347,45.84012,0.06010856,-3.37998,0.88784
409.247,46.12288,0.05986003,-3.38261,0.8858
412.147,46.40602,0.05828021,-3.38392,0.88375
415.047,46.68912,0.05817715,-3.39436,0.88169
417.947,46.9723,0.05509664,-3.39301,0.87963
420.847,47.2559,0.05314293,-3.39653,0.87756
423.747,47.5396,0.05048882,-3.39894,0.87548
426.647,47.82366,0.05216858,-3.40587,0.8734
429.547,48.10714,0.05347904,-3.40947,0.87131
432.447,48.39114,0.05105146,-3.40859,0.86921
435.347,48.67548,0.05402961,-3.41485,0.86711
438.247,48.95986,0.05542131,-3.4156,0.865
441.147,49.244,0.05211274,-3.41911,0.86288
444.047,49.52913,0.05371063,-3.42297,0.86076
446.947,49.81418,0.05254801,-3.42932,0.85863
449.847,50.0995,0.05438737,-3.43109,0.85649
452.747,50.38478,0.0520718,-3.43263,0.85435
455.647,50.66964,0.05575751,-3.43691,0.8522
458.547,50.95483,0.05712986,-3.43953,0.85004
461.447,51.23968,0.05847492,-3.44349,0.84788
464.347,51.52424,0.05961367,-3.44391,0.84572
467.247,51.80953,0.05810492,-3.44866,0.84354
470.147,52.0953,0.05448826,-3.45163,0.84137
473.047,52.3814,0.05836311,-3.45783,0.83918
475.947,52.6682,0.05799242,-3.4595,0.83699
478.847,52.9542,0.06129229,-3.45884,0.83479
481.747,53.24117,0.06274226,-3.4618,0.83259
484.647,53.52684,0.06731988,-3.4641,0.83039
487.547,53.814,0.07063948,-3.46673,0.82817
490.447,54.10089,0.07263041,-3.4721,0.82596
493.347,54.3878,0.06958913,-3.47211,0.82373
496.247,54.6747,0.07186339,-3.47607,0.82151
499.147,54.9618,0.06617041,-3.47508,0.81927
502.047,55.249,0.06708365,-3.47806,0.81703
504.947,55.5358,0.06455998,-3.48188,0.81479
507.847,55.8224,0.0615532,-3.48091,0.81254
510.747,56.1096,0.05941702,-3.4845,0.81029
513.647,56.39725,0.05279528,-3.48539,0.80803
516.547,56.6853,0.05388571,-3.48438,0.80577
519.447,56.97348,0.05306753,-3.48828,0.8035
522.347,57.26174,0.05091219,-3.48989,0.80123
525.247,57.5499,0.0494007,-3.49219,0.79895
528.147,57.83758,0.04399138,-3.49221,0.79667
531.047,58.1251,0.04759135,-3.49623,0.79439
533.947,58.41384,0.0446906,-3.49602,0.7921
536.847,58.7022,0.04404851,-3.49723,0.7898
539.747,58.9901,0.03699168,-3.50129,0.7875
542.647,59.27865,0.03924268,-3.50096,0.7852
545.547,59.5673,0.03855968,-3.50228,0.78289
548.447,59.85637,0.03686252,-3.50308,0.78058
551.347,60.1454,0.03566473,-3.50422,0.77827
554.247,60.4339,0.03505677,-3.50622,0.77595
557.147,60.7228,0.03033418,-3.50622,0.77363
560.047,61.0122,0.03166999,-3.50885,0.7713
562.947,61.30134,0.03080963,-3.51022,0.76897
565.847,61.5909,0.0285382,-3.50621,0.76664
568.747,61.88049,0.03106305,-3.51149,0.76431
571.647,62.17037,0.02602587,-3.51236,0.76197
574.547,62.4612,0.0266808,-3.51073,0.75962
577.447,62.75159,0.0278587,-3.51665,0.75728
580.347,63.0415,0.02606563,-3.51597,0.75493
583.247,63.3312,0.02795685,-3.51631,0.75257
586.147,63.62079,0.03079532,-3.51763,0.75022
589.047,63.91109,0.02339264,-3.51806,0.74786
591.947,64.20098,0.029576,-3.52158,0.74549
594.847,64.4905,0.02402749,-3.51763,0.74313
597.747,64.78147,0.02617364,-3.52124,0.74076
600.647,65.07169,0.02672476,-3.52125,0.73839
603.547,65.362,0.03070148,-3.5222,0.73602
606.447,65.6523,0.02566117,-3.5254,0.73364
609.347,65.9421,0.02999578,-3.52223,0.73126
612.247,66.2327,0.02911088,-3.51961,0.72888
615.147,66.52416,0.03222343,-3.52542,0.72649
618.047,66.81483,0.03601412,-3.52454,0.72411
620.947,67.10558,0.03577366,-3.52739,0.72172
623.847,67.39704,0.03651669,-3.53298,0.71933
626.747,67.68887,0.03705248,-3.52619,0.71693
629.647,67.98008,0.04076664,-3.52652,0.71454
632.547,68.27163,0.03650572,-3.52821,0.71214
635.447,68.56278,0.03852925,-3.52973,0.70974
638.347,68.85387,0.03969615,-3.52971,0.70734
641.247,69.14496,0.03874881,-3.53211,0.70493
644.147,69.43697,0.04286227,-3.53233,0.70253
647.047,69.72905,0.04825397,-3.53475,0.70012
649.947,70.0209,0.0445242,-3.53079,0.69771
652.847,70.3129,0.0484728,-3.53365,0.6953
655.747,70.60454,0.04759384,-3.53781,0.69289
658.647,70.8959,0.0468223,-3.53583,0.69047
661.547,71.18812,0.0489932,-3.53681,0.68806
664.447,71.48057,0.04731765,-3.53683,0.68564
667.347,71.77317,0.04936641,-3.5392,0.68322
670.247,72.06597,0.04560353,-3.53682,0.6808
673.147,72.35925,0.04720505,-3.53916,0.67838
676.047,72.65303,0.04776188,-3.5354,0.67596
678.947,72.946,0.05054486,-3.5355,0.67354
681.847,73.2393,0.05822411,-3.54034,0.67111
684.747,73.53233,0.06072286,-3.54034,0.66869
687.647,73.82502,0.06362657,-3.53971,0.66626
690.547,74.11848,0.06431342,-3.54133,0.66383
693.447,74.4102,0.06877735,-3.54245,0.66141
696.347,74.70302,0.07210442,-3.5441,0.65898
699.247,74.99585,0.07687148,-3.54846,0.65655

File: Hemp_Sheet_STA_N2_10KData_22274_R3.csv
##Temp./Â°C,Time/min,DSC(subtr.2)/(mW/mg),Mass loss(subtr.2)/mg,Sensit./(uV/mW)
49.721,10.01,0.02606296,-0.06219,1.06051
52.521,11.25496,0.12508,-0.06664049,1.05993
55.321,11.67068,0.17383,-0.06969816,1.05934
58.121,12.01878,0.2068,-0.06563485,1.05873
60.921,12.34414,0.22885,-0.0682215,1.0581
63.721,12.65666,0.24542,-0.07185521,1.05746
66.521,12.96146,0.25823,-0.07315927,1.05681
69.321,13.26397,0.26941,-0.07250003,1.05614
72.121,13.56166,0.28109,-0.08070275,1.05546
74.921,13.85735,0.29143,-0.07839711,1.05476
77.721,14.1498,0.29888,-0.08171363,1.05405
80.521,14.43896,0.30352,-0.0805099,1.05333
83.321,14.726,0.30802,-0.08201216,1.05259
86.121,15.011,0.3111,-0.08939972,1.05183
88.921,15.2935,0.3079,-0.08347428,1.05106
91.721,15.57298,0.30764,-0.09820829,1.05028
94.521,15.85155,0.30469,-0.0918099,1.04949
97.321,16.12868,0.30053,-0.09180994,1.04868
100.121,16.40423,0.29595,-0.09424376,1.04785
102.921,16.67938,0.28856,-0.10124,1.04702
105.721,16.95295,0.28522,-0.10246,1.04617
108.521,17.22664,0.279,-0.09319783,1.0453
111.321,17.50036,0.27534,-0.0969601,1.04442
114.121,17.77299,0.27195,-0.10235,1.04353
116.921,18.04557,0.27157,-0.09949305,1.04263
119.721,18.31881,0.26969,-0.10211,1.04171
122.521,18.59036,0.27017,-0.10015,1.04078
125.321,18.86178,0.26792,-0.10254,1.03983
128.121,19.13368,0.2663,-0.10382,1.03887
130.921,19.40505,0.2659,-0.10522,1.0379
133.721,19.67471,0.26767,-0.10146,1.03691
136.521,19.94642,0.2682,-0.10247,1.03592
139.321,20.21631,0.26993,-0.10378,1.0349
142.121,20.4861,0.27145,-0.10179,1.03388
144.921,20.75478,0.27361,-0.1077,1.03284
147.721,21.02358,0.27425,-0.10619,1.03179
150.521,21.2927,0.27629,-0.10341,1.03073
153.321,21.56126,0.27774,-0.10698,1.02965
156.121,21.8305,0.27747,-0.10453,1.02856
158.921,22.09845,0.27983,-0.10321,1.02746
161.721,22.36686,0.28194,-0.1087,1.02635
164.521,22.63589,0.28481,-0.10443,1.02522
167.321,22.9042,0.28674,-0.10445,1.02408
170.121,23.17336,0.28681,-0.10859,1.02293
172.921,23.44121,0.2886,-0.10332,1.02177
175.721,23.70929,0.29526,-0.11405,1.02059
178.521,23.9772,0.29545,-0.11309,1.01941
181.321,24.24544,0.29694,-0.10903,1.01821
184.121,24.51335,0.29797,-0.10804,1.01699
186.921,24.78081,0.29832,-0.1098,1.01577
189.721,25.04851,0.30082,-0.1066,1.01453
192.521,25.31561,0.30368,-0.11058,1.01329
195.321,25.58265,0.30592,-0.11144,1.01203
198.121,25.84941,0.30765,-0.1144,1.01075
200.921,26.1159,0.30866,-0.11568,1.00947
203.721,26.38267,0.30943,-0.11858,1.00818
206.521,26.64984,0.31209,-0.12208,1.00687
209.321,26.91593,0.31314,-0.11788,1.00555
212.121,27.1826,0.31348,-0.11778,1.00422
214.921,27.44916,0.3164,-0.11522,1.00288
217.721,27.71469,0.31613,-0.12048,1.00153
220.521,27.98159,0.31764,-0.12307,1.00016
223.321,28.24799,0.32006,-0.12591,0.99879
226.121,28.51378,0.31931,-0.12364,0.9974
228.921,28.78012,0.32105,-0.12986,0.99601
231.721,29.0455,0.32421,-0.12832,0.9946
234.521,29.313,0.32539,-0.13097,0.99318
237.321,29.57968,0.3275,-0.13381,0.99175
240.121,29.8467,0.32601,-0.14012,0.99031
242.921,30.11412,0.32707,-0.1379,0.98886
245.721,30.38131,0.33077,-0.14128,0.9874
248.521,30.64875,0.33055,-0.14034,0.98592
251.321,30.91582,0.33177,-0.14416,0.98444
254.121,31.18348,0.3362,-0.1481,0.98295
256.921,31.4507,0.33877,-0.1573,0.98144
259.721,31.7176,0.34307,-0.16245,0.97993
262.521,31.9842,0.34509,-0.16257,0.9784
265.321,32.25141,0.3443,-0.16947,0.97687
268.121,32.51831,0.34685,-0.17484,0.97532
270.921,32.78606,0.35006,-0.17812,0.97377
273.721,33.05335,0.34582,-0.18728,0.9722
276.521,33.321,0.34796,-0.18787,0.97063
279.321,33.5888,0.34966,-0.20534,0.96904
282.121,33.85669,0.3514,-0.20572,0.96745
284.921,34.1244,0.35217,-0.21731,0.96584
287.721,34.39273,0.35916,-0.22774,0.96423
290.521,34.66063,0.36197,-0.23666,0.96261
293.321,34.92901,0.36511,-0.25086,0.96097
296.121,35.1972,0.3725,-0.26222,0.95933
298.921,35.46445,0.38165,-0.27376,0.95768
301.721,35.73316,0.38994,-0.2919,0.95602
304.521,36.0011,0.39557,-0.30647,0.95434
307.321,36.26933,0.40805,-0.33077,0.95266
310.121,36.5375,0.4172,-0.35287,0.95098
312.921,36.80621,0.42968,-0.36959,0.94928
315.721,37.07535,0.44262,-0.39698,0.94757
318.521,37.34468,0.4607,-0.42472,0.94585
321.321,37.6139,0.48348,-0.46057,0.94413
324.121,37.8829,0.5085,-0.49694,0.94239
326.921,38.15256,0.53475,-0.53932,0.94065
329.721,38.4218,0.57213,-0.58035,0.9389
332.521,38.69233,0.61045,-0.63509,0.93714
335.321,38.9623,0.65496,-0.69615,0.93537
338.121,39.23238,0.71207,-0.76448,0.93359
340.921,39.5033,0.77872,-0.8469,0.93181
343.721,39.77415,0.85482,-0.93182,0.93001
346.521,40.0448,0.9468,-1.03237,0.92821
349.321,40.31661,1.05189,-1.15215,0.9264
352.121,40.5888,1.17725,-1.28944,0.92458
354.921,40.8608,1.31823,-1.43734,0.92275
357.721,41.133,1.47086,-1.62172,0.92092
360.521,41.40648,1.62558,-1.81496,0.91908
363.321,41.6795,1.76237,-2.03447,0.91723
366.121,41.95248,1.85607,-2.27154,0.91537
368.921,42.22472,1.88235,-2.51683,0.9135
371.721,42.49674,1.80852,-2.76146,0.91163
374.521,42.7677,1.61673,-2.99204,0.90975
377.321,43.03736,1.3114,-3.17314,0.90786
380.121,43.3062,0.92245,-3.31699,0.90596
382.921,43.5736,0.5363,-3.4123,0.90405
385.721,43.8421,0.24008,-3.46211,0.90214
388.521,44.11068,0.06413689,-3.48747,0.90022
391.321,44.38005,-0.005060182,-3.50305,0.8983
394.121,44.6507,-0.02807434,-3.506,0.89636
396.921,44.92075,-0.03622148,-3.50996,0.89442
399.721,45.19307,-0.04611057,-3.51039,0.89248
402.521,45.4653,-0.05182445,-3.51749,0.89052
405.321,45.73697,-0.0541817,-3.5241,0.88856
408.121,46.00998,-0.05722519,-3.52411,0.88659
410.921,46.2826,-0.06464328,-3.52728,0.88462
413.721,46.5557,-0.06364509,-3.53248,0.88264
416.521,46.82952,-0.06751025,-3.53749,0.88065
419.321,47.10282,-0.06904322,-3.5367,0.87865
422.121,47.37661,-0.07505201,-3.53963,0.87665
424.921,47.65011,-0.07358585,-3.54538,0.87464
427.721,47.92411,-0.07928707,-3.549,0.87263
430.521,48.19883,-0.08258927,-3.54867,0.87061
433.321,48.47298,-0.08110037,-3.55569,0.86858
436.121,48.74855,-0.0855794,-3.56173,0.86655
438.921,49.02304,-0.08863696,-3.55784,0.86451
441.721,49.2973,-0.08785404,-3.56402,0.86246
444.521,49.57199,-0.08761453,-3.57302,0.86041
447.321,49.84695,-0.09078948,-3.57172,0.85835
450.121,50.1224,-0.09234152,-3.57986,0.85629
452.921,50.39796,-0.09874103,-3.57263,0.85422
455.721,50.6728,-0.09591566,-3.58916,0.85214
458.521,50.94792,-0.09630156,-3.58567,0.85006
461.321,51.22285,-0.10309,-3.58309,0.84798
464.121,51.49804,-0.10074,-3.5906,0.84589
466.921,51.7737,-0.09993594,-3.592,0.84379
469.721,52.04918,-0.09925997,-3.5988,0.84169
472.521,52.32546,-0.10037,-3.60284,0.83958
475.321,52.60057,-0.09912237,-3.60022,0.83746
478.121,52.87729,-0.10354,-3.60023,0.83534
480.921,53.15294,-0.10103,-3.60449,0.83322
483.721,53.42974,-0.1029,-3.61207,0.83109
486.521,53.7065,-0.10684,-3.61108,0.82896
489.321,53.9825,-0.10399,-3.61372,0.82682
492.121,54.25815,-0.10595,-3.61462,0.82467
494.921,54.53501,-0.10763,-3.61997,0.82252
497.721,54.8111,-0.11206,-3.6203,0.82037
500.521,55.08784,-0.11746,-3.62293,0.81821
503.321,55.36416,-0.11945,-3.62688,0.81605
506.121,55.6411,-0.12254,-3.62242,0.81388
508.921,55.9186,-0.12415,-3.63049,0.81171
511.721,56.19615,-0.12911,-3.63151,0.80953
514.521,56.47297,-0.13329,-3.63463,0.80735
517.321,56.7508,-0.14046,-3.63231,0.80516
520.121,57.02955,-0.14308,-3.63577,0.80297
522.921,57.30771,-0.14987,-3.63587,0.80078
525.721,57.5853,-0.15058,-3.63844,0.79858
528.521,57.8636,-0.15177,-3.63946,0.79638
531.321,58.1417,-0.15552,-3.64005,0.79417
534.121,58.42054,-0.15726,-3.64004,0.79196
536.921,58.69857,-0.16056,-3.64673,0.78974
539.721,58.97736,-0.16319,-3.64041,0.78752
542.521,59.2555,-0.16441,-3.6495,0.7853
545.321,59.53365,-0.17131,-3.64439,0.78307
548.121,59.81245,-0.16965,-3.65259,0.78084
550.921,60.091,-0.17281,-3.64945,0.77861
553.721,60.3694,-0.17418,-3.65266,0.77637
556.521,60.6485,-0.1731,-3.65529,0.77413
559.321,60.92739,-0.17574,-3.65604,0.77189
562.121,61.2065,-0.18048,-3.65237,0.76964
564.921,61.4855,-0.18589,-3.65725,0.76739
567.721,61.76497,-0.18082,-3.65584,0.76513
570.521,62.04521,-0.18084,-3.65737,0.76287
573.321,62.32461,-0.17922,-3.66176,0.76061
576.121,62.60462,-0.17867,-3.66239,0.75835
578.921,62.88499,-0.17991,-3.65757,0.75608
581.721,63.16559,-0.18051,-3.66373,0.75381
584.521,63.44514,-0.18126,-3.66306,0.75154
587.321,63.72535,-0.18209,-3.66477,0.74926
590.121,64.00545,-0.18341,-3.66589,0.74698
592.921,64.2861,-0.1854,-3.66439,0.7447
595.721,64.5672,-0.17784,-3.67656,0.74242
598.521,64.84767,-0.18579,-3.66325,0.74013
601.321,65.1288,-0.18308,-3.67192,0.73784
604.121,65.40958,-0.18677,-3.66932,0.73555
606.921,65.69041,-0.18436,-3.67196,0.73325
609.721,65.97104,-0.18852,-3.67125,0.73095
612.521,66.25106,-0.18759,-3.67024,0.72865
615.321,66.53118,-0.18616,-3.67024,0.72635
618.121,66.81143,-0.18731,-3.67414,0.72405
620.921,67.09227,-0.19032,-3.6792,0.72174
623.721,67.3737,-0.19297,-3.67829,0.71943
626.521,67.6545,-0.19558,-3.67091,0.71712
629.321,67.93576,-0.19664,-3.68139,0.71481
632.121,68.21704,-0.19426,-3.67876,0.71249
634.921,68.49885,-0.20114,-3.67773,0.71018
637.721,68.7799,-0.20138,-3.67909,0.70786
640.521,69.06146,-0.20459,-3.68016,0.70554
643.321,69.34334,-0.20666,-3.68355,0.70321
646.121,69.62552,-0.20345,-3.68337,0.70089
648.921,69.9082,-0.21344,-3.67679,0.69856
651.721,70.1902,-0.21516,-3.67797,0.69624
654.521,70.47304,-0.2105,-3.68413,0.69391
657.321,70.7551,-0.21553,-3.6792,0.69158
660.121,71.0365,-0.21608,-3.68316,0.68925
662.921,71.31854,-0.22173,-3.68716,0.68691
665.721,71.60039,-0.22318,-3.68242,0.68458
668.521,71.88294,-0.23059,-3.68537,0.68224
671.321,72.16601,-0.23111,-3.68567,0.67991
674.121,72.4491,-0.23407,-3.6857,0.67757
676.921,72.7317,-0.23569,-3.68324,0.67523
679.721,73.01536,-0.24219,-3.68502,0.67289
682.521,73.29796,-0.24496,-3.68056,0.67055
685.321,73.58078,-0.2415,-3.68479,0.66821
688.121,73.86357,-0.24391,-3.68796,0.66586
690.921,74.14599,-0.2466,-3.6905,0.66352
693.721,74.4281,-0.25191,-3.68122,0.66118
696.521,74.70976,-0.25258,-3.6894,0.65883
699.321,74.9918,-0.2519,-3.6905,0.65649