Folder: fsri_materials_database/01_Data/Hemp_Sheets/STA/N2/3K_min

Note: 01_Data/README.md
# Materials and Products Database
## 01_Data

Raw data generated from each apparatus are included here in plain-text format. The data is organized first by material, next by the short name of test apparatus used, and where applicable additional filtering by test settings.

### material.json

Each material directory contains a json file of the same name as the material. This file links the data stored in the repository as well as data and graphs produced by the accompanying scripts (__02_Scripts__) to the respective landing page for the material on the front-end website.

File: Hemp_Sheet_STA_N2_3KData_22274_R1.csv
##Temp./Â°C,Time/min,Mass loss(subtr.2)/mg,DSC(subtr.2)/(mW/mg),Sensit./(uV/mW)
50.302,10.01667,-0.02479,0.01816016,1.0503
53.202,12.20528,-0.02827607,0.0629469,1.04978
56.102,13.31219,-0.03057291,0.07428886,1.04925
59.002,14.36225,-0.03080926,0.0781434,1.04871
61.902,15.37215,-0.03108419,0.08504482,1.04815
64.802,16.36095,-0.03717474,0.08895171,1.04758
67.702,17.3449,-0.03861066,0.09016639,1.04699
70.602,18.31919,-0.04113948,0.09228942,1.04639
73.502,19.29399,-0.04507214,0.09218778,1.04578
76.402,20.2667,-0.04509001,0.09052983,1.04516
79.302,21.23719,-0.04770263,0.09071273,1.04452
82.202,22.2031,-0.0462324,0.09169075,1.04387
85.102,23.1706,-0.05201391,0.08861217,1.0432
88.002,24.13547,-0.05221031,0.08641685,1.04253
90.902,25.09691,-0.04744809,0.08318053,1.04183
93.802,26.0625,-0.04915914,0.08236197,1.04113
96.702,27.02145,-0.05178502,0.08136017,1.04041
99.602,27.98167,-0.05276003,0.08172403,1.03968
102.502,28.9428,-0.05374111,0.0812978,1.03893
105.402,29.89643,-0.05774772,0.08369237,1.03818
108.302,30.85258,-0.05404981,0.08378489,1.03741
111.202,31.8045,-0.05536061,0.08387974,1.03662
114.102,32.76457,-0.04870009,0.08432087,1.03582
117.002,33.72332,-0.05256501,0.08691667,1.03501
119.902,34.6787,-0.06254929,0.08674735,1.03419
122.802,35.62553,-0.05785792,0.08960809,1.03335
125.702,36.58032,-0.05649,0.08902562,1.0325
128.602,37.53667,-0.05910949,0.08745748,1.03163
131.502,38.48628,-0.05795534,0.08860512,1.03075
134.402,39.43737,-0.05526891,0.09117585,1.02986
137.302,40.38875,-0.05534895,0.08958356,1.02896
140.202,41.34105,-0.05676552,0.09250658,1.02804
143.102,42.28767,-0.06385807,0.09215422,1.02711
146.002,43.2372,-0.0629647,0.09527947,1.02617
148.902,44.18428,-0.06120918,0.09218437,1.02521
151.802,45.13335,-0.06329,0.09420455,1.02424
154.702,46.08169,-0.06086966,0.09587679,1.02325
157.602,47.02714,-0.05929545,0.09779211,1.02226
160.502,47.97282,-0.06433795,0.0979076,1.02125
163.402,48.9179,-0.0636677,0.09688111,1.02022
166.302,49.86305,-0.06329272,0.10396,1.01919
169.202,50.80792,-0.06837064,0.10518,1.01814
172.102,51.75314,-0.07116215,0.10501,1.01708
175.002,52.6961,-0.06697837,0.10585,1.016
177.902,53.63886,-0.07225789,0.10418,1.01491
180.802,54.5838,-0.07096573,0.10639,1.01381
183.702,55.52649,-0.07144602,0.10694,1.01269
186.602,56.46657,-0.0713,0.1074,1.01157
189.502,57.40785,-0.07239954,0.10734,1.01043
192.402,58.34856,-0.0704975,0.11155,1.00927
195.302,59.2902,-0.06982025,0.11364,1.0081
198.202,60.23025,-0.07121386,0.11331,1.00692
201.102,61.1781,-0.07148655,0.10989,1.00573
204.002,62.12004,-0.07353506,0.11133,1.00453
206.902,63.06149,-0.07593248,0.1107,1.00331
209.802,63.9994,-0.07590011,0.11425,1.00207
212.702,64.9404,-0.07689088,0.11549,1.00083
215.602,65.8802,-0.07909796,0.11511,0.99957
218.502,66.82135,-0.0806365,0.11476,0.9983
221.402,67.76097,-0.0841215,0.11623,0.99702
224.302,68.70076,-0.08544847,0.1201,0.99572
227.202,69.6437,-0.09034678,0.11695,0.99441
230.102,70.58344,-0.0888501,0.11731,0.99309
233.002,71.5213,-0.09192469,0.12036,0.99176
235.902,72.464,-0.0995913,0.12012,0.99041
238.802,73.4068,-0.10475,0.1239,0.98905
241.702,74.342,-0.10716,0.12435,0.98768
244.602,75.27975,-0.10894,0.1255,0.9863
247.502,76.2244,-0.11735,0.12406,0.9849
250.402,77.16585,-0.12497,0.1275,0.98349
253.302,78.10385,-0.12806,0.12769,0.98207
256.202,79.0421,-0.13443,0.12994,0.98063
259.102,79.98192,-0.14352,0.13074,0.97918
262.002,80.92183,-0.14839,0.13417,0.97772
264.902,81.86219,-0.1589,0.13482,0.97625
267.802,82.79986,-0.16848,0.13603,0.97477
270.702,83.74421,-0.17902,0.13707,0.97327
273.602,84.68885,-0.18552,0.13602,0.97176
276.502,85.6358,-0.20346,0.13353,0.97024
279.402,86.57636,-0.21739,0.13774,0.9687
282.302,87.51475,-0.2334,0.14016,0.96716
285.202,88.4572,-0.24559,0.14297,0.9656
288.102,89.40049,-0.26511,0.1478,0.96403
291.002,90.3391,-0.291,0.15284,0.96245
293.902,91.28466,-0.31577,0.1527,0.96085
296.802,92.22742,-0.34343,0.15809,0.95924
299.702,93.17009,-0.37585,0.16792,0.95762
302.602,94.11325,-0.41015,0.17465,0.95599
305.502,95.05796,-0.45052,0.18152,0.95435
308.402,96.00317,-0.49498,0.19214,0.9527
311.302,96.95052,-0.5477,0.20343,0.95103
314.202,97.8943,-0.60954,0.22164,0.94935
317.102,98.83798,-0.67662,0.23692,0.94766
320.002,99.78494,-0.75047,0.25803,0.94596
322.902,100.728,-0.84163,0.28068,0.94425
325.802,101.675,-0.94337,0.31289,0.94252
328.702,102.623,-1.06733,0.35148,0.94078
331.602,103.572,-1.20704,0.3973,0.93903
334.502,104.52,-1.37261,0.45408,0.93727
337.402,105.467,-1.56693,0.50591,0.9355
340.302,106.415,-1.78993,0.56621,0.93372
343.202,107.3641,-2.04131,0.61759,0.93192
346.102,108.312,-2.30913,0.6481,0.93012
349.002,109.2651,-2.5896,0.64123,0.9283
351.902,110.211,-2.85085,0.58988,0.92647
354.802,111.159,-3.07589,0.48279,0.92463
357.702,112.1,-3.24891,0.34367,0.92278
360.602,113.04,-3.35317,0.20711,0.92092
363.502,113.985,-3.41053,0.10943,0.91905
366.402,114.927,-3.43361,0.06441084,0.91716
369.302,115.875,-3.44309,0.04773463,0.91527
372.202,116.825,-3.45289,0.04134167,0.91336
375.102,117.777,-3.4572,0.03923853,0.91145
378.002,118.724,-3.45979,0.04178029,0.90952
380.902,119.677,-3.46716,0.04046146,0.90758
383.802,120.641,-3.47135,0.0372029,0.90563
386.702,121.594,-3.47774,0.03915066,0.90367
389.602,122.542,-3.47848,0.03713582,0.9017
392.502,123.496,-3.48242,0.03930712,0.89972
395.402,124.447,-3.48509,0.04080114,0.89773
398.302,125.403,-3.49023,0.03793762,0.89573
401.202,126.358,-3.49455,0.04109486,0.89372
404.102,127.311,-3.49854,0.04302363,0.89169
407.002,128.264,-3.49898,0.04201151,0.88966
409.902,129.215,-3.50087,0.04146874,0.88762
412.802,130.172,-3.50905,0.04150308,0.88556
415.702,131.129,-3.51366,0.04312688,0.8835
418.602,132.086,-3.51863,0.04599797,0.88143
421.502,133.043,-3.51963,0.04900486,0.87934
424.402,133.9998,-3.52245,0.04835539,0.87725
427.302,134.958,-3.52387,0.04463596,0.87515
430.202,135.915,-3.52883,0.04683822,0.87304
433.102,136.87,-3.53031,0.04731871,0.87091
436.002,137.829,-3.54117,0.05163535,0.86878
438.902,138.785,-3.54001,0.05217638,0.86664
441.802,139.742,-3.54308,0.05065493,0.86449
444.702,140.703,-3.54458,0.05144861,0.86233
447.602,141.663,-3.5481,0.05157405,0.86016
450.502,142.624,-3.55142,0.05344333,0.85798
453.402,143.584,-3.55175,0.05131221,0.85579
456.302,144.544,-3.55412,0.05532041,0.85359
459.202,145.502,-3.55875,0.04993474,0.85139
462.102,146.46,-3.55846,0.05357543,0.84917
465.002,147.4217,-3.56408,0.05027095,0.84695
467.902,148.383,-3.56403,0.04737144,0.84471
470.802,149.346,-3.56507,0.04669495,0.84247
473.702,150.304,-3.5683,0.05257575,0.84022
476.602,151.265,-3.56908,0.04655107,0.83796
479.502,152.226,-3.57329,0.04594764,0.83569
482.402,153.192,-3.57509,0.04499892,0.83341
485.302,154.156,-3.57779,0.04485944,0.83113
488.202,155.121,-3.58078,0.04328183,0.82883
491.102,156.084,-3.58147,0.04725154,0.82653
494.002,157.045,-3.58115,0.04481902,0.82422
496.902,158.006,-3.58246,0.04101605,0.8219
499.802,158.975,-3.58511,0.04443018,0.81958
502.702,159.945,-3.58828,0.04622746,0.81724
505.602,160.912,-3.59005,0.04708827,0.8149
508.502,161.878,-3.59333,0.04833304,0.81255
511.402,162.84,-3.59551,0.04671888,0.81019
514.302,163.805,-3.59923,0.04578351,0.80782
517.202,164.771,-3.60001,0.0490477,0.80545
520.102,165.7368,-3.60012,0.04275717,0.80307
523.002,166.701,-3.60388,0.04443254,0.80068
525.902,167.67,-3.60045,0.04289161,0.79828
528.802,168.6372,-3.60319,0.04221125,0.79588
531.702,169.608,-3.60518,0.04440435,0.79347
534.602,170.574,-3.60444,0.04137305,0.79105
537.502,171.539,-3.61049,0.04695625,0.78862
540.402,172.511,-3.60681,0.03898062,0.78619
543.302,173.481,-3.60591,0.03803905,0.78375
546.202,174.451,-3.60747,0.03778313,0.78131
549.102,175.418,-3.61011,0.04007229,0.77885
552.002,176.388,-3.61157,0.04135357,0.77639
554.902,177.361,-3.61019,0.04038474,0.77393
557.802,178.329,-3.61025,0.04429107,0.77146
560.702,179.3,-3.61207,0.04646948,0.76898
563.602,180.271,-3.60879,0.04659432,0.76649
566.502,181.24,-3.6158,0.04984135,0.764
569.402,182.213,-3.61284,0.04370683,0.7615
572.302,183.183,-3.61569,0.04334435,0.759
575.202,184.152,-3.61757,0.04639419,0.75649
578.102,185.124,-3.61823,0.04671835,0.75397
581.002,186.098,-3.61645,0.04353759,0.75145
583.902,187.071,-3.61779,0.04463019,0.74893
586.802,188.046,-3.61901,0.04697255,0.74639
589.702,189.019,-3.61863,0.04893998,0.74385
592.602,189.992,-3.62123,0.0514883,0.74131
595.502,190.965,-3.62129,0.05288538,0.73876
598.402,191.939,-3.62257,0.05119706,0.73621
601.302,192.907,-3.62162,0.04876563,0.73365
604.202,193.8826,-3.62096,0.04779684,0.73108
607.102,194.854,-3.62294,0.04799863,0.72851
610.002,195.827,-3.6288,0.05089612,0.72594
612.902,196.804,-3.62546,0.0504726,0.72336
615.802,197.779,-3.62534,0.05133541,0.72077
618.702,198.753,-3.62328,0.05117718,0.71819
621.602,199.724,-3.62259,0.05193792,0.71559
624.502,200.699,-3.62715,0.05113116,0.71299
627.402,201.673,-3.62954,0.0537461,0.71039
630.302,202.647,-3.63116,0.05534131,0.70779
633.202,203.619,-3.63006,0.05368171,0.70517
636.102,204.6,-3.63312,0.05659746,0.70256
639.002,205.577,-3.63403,0.05675626,0.69994
641.902,206.5498,-3.6306,0.05443728,0.69732
644.802,207.526,-3.63485,0.05639087,0.69469
647.702,208.503,-3.63659,0.05773027,0.69206
650.602,209.479,-3.63533,0.05620418,0.68943
653.502,210.455,-3.63617,0.05690146,0.68679
656.402,211.433,-3.63676,0.05710113,0.68415
659.302,212.411,-3.63637,0.05788754,0.6815
662.202,213.387,-3.63927,0.05731841,0.67886
665.102,214.366,-3.63917,0.06024657,0.6762
668.002,215.343,-3.63851,0.05778121,0.67355
670.902,216.323,-3.63976,0.06108351,0.67089
673.802,217.303,-3.64137,0.05616271,0.66823
676.702,218.281,-3.64398,0.06209994,0.66557
679.602,219.259,-3.63978,0.05515367,0.66291
682.502,220.2408,-3.64933,0.06150468,0.66024
685.402,221.217,-3.63917,0.05882176,0.65757
688.302,222.194,-3.6487,0.05916748,0.65489
691.202,223.178,-3.64876,0.0579316,0.65222
694.102,224.157,-3.64738,0.05238066,0.64954
697.002,225.137,-3.64871,0.05801527,0.64686
699.902,226.117,-3.64806,0.05722421,0.64418
701.502,226.659,-3.648,0.05909186,0.6427