Folder: fsri_materials_database/01_Data/Cotton_Felt/STA/N2/10K_min

Note: 01_Data/README.md
# Materials and Products Database
## 01_Data

Raw data generated from each apparatus are included here in plain-text format. The data is organized first by material, next by the short name of test apparatus used, and where applicable additional filtering by test settings.

### material.json

Each material directory contains a json file of the same name as the material. This file links the data stored in the repository as well as data and graphs produced by the accompanying scripts (__02_Scripts__) to the respective landing page for the material on the front-end website.

File: Cotton_Felt_STA_N2_10KData_210715_R1.csv
##Temp./Â°C,Time/min,Mass loss(subtr.2)/mg,DSC(subtr.2)/(mW/mg),Sensit./(uV/mW)
49.288,10.01,-0.02699,0.0005261914,0.6183
52.188,12.3384,-0.03358595,0.09012906,0.61983
55.088,13.01167,-0.03756193,0.13452,0.62133
57.988,13.5526,-0.03650578,0.16482,0.6228
60.888,14.03193,-0.04099637,0.19125,0.62425
63.788,14.47315,-0.04233558,0.21404,0.62566
66.688,14.88548,-0.04606938,0.23758,0.62705
69.588,15.2796,-0.04871165,0.25961,0.6284
72.488,15.6549,-0.05165751,0.28315,0.62973
75.388,16.0157,-0.05670858,0.30604,0.63103
78.288,16.36488,-0.05490066,0.32407,0.6323
81.188,16.70284,-0.06395372,0.33963,0.63353
84.088,17.03213,-0.06671157,0.35419,0.63474
86.988,17.35412,-0.07073873,0.36584,0.63592
89.888,17.66825,-0.07630087,0.37327,0.63707
92.788,17.97608,-0.08110159,0.37822,0.63819
95.688,18.27834,-0.08436001,0.38049,0.63928
98.588,18.57696,-0.08829994,0.38235,0.64034
101.488,18.87141,-0.0922534,0.38201,0.64137
104.388,19.16292,-0.09387507,0.37489,0.64237
107.288,19.45214,-0.09785178,0.36577,0.64334
110.188,19.73927,-0.10048,0.36184,0.64429
113.088,20.0238,-0.1031,0.35445,0.6452
115.988,20.3067,-0.10465,0.3493,0.64608
118.888,20.5877,-0.10596,0.3483,0.64694
121.788,20.86744,-0.10973,0.34156,0.64776
124.688,21.14509,-0.10717,0.34006,0.64856
127.588,21.42014,-0.10849,0.33795,0.64932
130.488,21.69387,-0.10913,0.3363,0.65006
133.388,21.9661,-0.11265,0.33504,0.65077
136.288,22.23719,-0.11099,0.33776,0.65145
139.188,22.50597,-0.11123,0.34207,0.6521
142.088,22.77337,-0.11123,0.3437,0.65272
144.988,23.03998,-0.11123,0.34611,0.65331
147.888,23.30588,-0.11123,0.35182,0.65387
150.788,23.5701,-0.11123,0.35473,0.6544
153.688,23.8344,-0.11123,0.35886,0.65491
156.588,24.09767,-0.11255,0.36648,0.65539
159.488,24.36101,-0.11255,0.36979,0.65583
162.388,24.6237,-0.11255,0.37536,0.65625
165.288,24.8863,-0.11383,0.38338,0.65665
168.188,25.14885,-0.11521,0.39196,0.65701
171.088,25.4107,-0.11387,0.39869,0.65734
173.988,25.6727,-0.12126,0.40267,0.65765
176.888,25.93455,-0.11331,0.40558,0.65793
179.788,26.19576,-0.11475,0.41063,0.65818
182.688,26.45608,-0.11418,0.41131,0.65841
185.588,26.7163,-0.11677,0.41565,0.6586
188.488,26.9758,-0.11814,0.42145,0.65877
191.388,27.2354,-0.11924,0.41975,0.65892
194.288,27.4939,-0.1166,0.42398,0.65903
197.188,27.75205,-0.11792,0.42594,0.65912
200.088,28.01012,-0.11891,0.42718,0.65918
202.988,28.2684,-0.11796,0.42683,0.65922
205.888,28.52627,-0.12411,0.42766,0.65922
208.788,28.78418,-0.11731,0.42931,0.65921
211.688,29.04187,-0.12669,0.43321,0.65916
214.588,29.3001,-0.12933,0.43687,0.65909
217.488,29.55773,-0.13188,0.44362,0.659
220.388,29.81578,-0.13525,0.44656,0.65888
223.288,30.0738,-0.14139,0.44436,0.65873
226.188,30.33225,-0.14458,0.4424,0.65856
229.088,30.59083,-0.14992,0.43807,0.65836
231.988,30.8487,-0.15761,0.44447,0.65814
234.888,31.10768,-0.16432,0.44388,0.65789
237.788,31.3657,-0.17436,0.4448,0.65762
240.688,31.6241,-0.1847,0.44472,0.65732
243.588,31.883,-0.196,0.4391,0.65701
246.488,32.1418,-0.20957,0.43797,0.65666
249.388,32.4001,-0.22486,0.43873,0.65629
252.288,32.65974,-0.24239,0.4365,0.6559
255.188,32.91853,-0.25989,0.43191,0.65549
258.088,33.1775,-0.27816,0.43381,0.65505
260.988,33.43712,-0.29984,0.43504,0.65459
263.888,33.69615,-0.3221,0.43409,0.65411
266.788,33.95636,-0.34889,0.43424,0.6536
269.688,34.2145,-0.377,0.43523,0.65308
272.588,34.47534,-0.4072,0.44535,0.65253
275.488,34.7355,-0.43931,0.44837,0.65196
278.388,34.99548,-0.47528,0.45323,0.65136
281.288,35.2558,-0.51708,0.45719,0.65075
284.188,35.51696,-0.56188,0.46444,0.65011
287.088,35.77755,-0.61262,0.46845,0.64946
289.988,36.03867,-0.6684,0.47492,0.64878
292.888,36.30073,-0.73113,0.48545,0.64809
295.788,36.56238,-0.79597,0.49241,0.64737
298.688,36.82417,-0.86906,0.49797,0.64663
301.588,37.0861,-0.94657,0.50758,0.64587
304.488,37.34755,-1.02977,0.51136,0.6451
307.388,37.60992,-1.11954,0.5196,0.6443
310.288,37.87178,-1.21637,0.53001,0.64349
313.188,38.13413,-1.31856,0.5378,0.64266
316.088,38.3969,-1.42773,0.54722,0.64181
318.988,38.66024,-1.54716,0.55589,0.64094
321.888,38.92367,-1.67191,0.57165,0.64005
324.788,39.18712,-1.80489,0.58277,0.63914
327.688,39.45147,-1.94577,0.59227,0.63822
330.588,39.71549,-2.09851,0.60173,0.63728
333.488,39.97888,-2.25215,0.60945,0.63633
336.388,40.24355,-2.41295,0.61032,0.63535
339.288,40.508,-2.57874,0.59982,0.63437
342.188,40.77323,-2.74198,0.57475,0.63336
345.088,41.03935,-2.89729,0.52853,0.63234
347.988,41.30555,-3.03423,0.4673,0.6313
350.888,41.5719,-3.14149,0.39395,0.63025
353.788,41.83918,-3.2135,0.3373,0.62919
356.688,42.1064,-3.26083,0.30991,0.6281
359.588,42.37408,-3.29027,0.29262,0.62701
362.488,42.64103,-3.31187,0.28705,0.6259
365.388,42.90938,-3.32927,0.28145,0.62477
368.288,43.17742,-3.34338,0.28343,0.62364
371.188,43.44559,-3.35592,0.28327,0.62249
374.088,43.71463,-3.37025,0.28172,0.62132
376.988,43.98376,-3.3809,0.28309,0.62015
379.888,44.25313,-3.39138,0.28473,0.61896
382.788,44.52264,-3.39972,0.28213,0.61775
385.688,44.79293,-3.40848,0.2863,0.61654
388.588,45.06342,-3.41873,0.28565,0.61531
391.488,45.33367,-3.42732,0.28514,0.61408
394.388,45.6042,-3.43598,0.28808,0.61283
397.288,45.87488,-3.44374,0.28514,0.61157
400.188,46.1462,-3.45131,0.28909,0.6103
403.088,46.41753,-3.45962,0.28736,0.60902
405.988,46.68866,-3.46773,0.28669,0.60773
408.888,46.96113,-3.47574,0.29004,0.60643
411.788,47.23387,-3.48275,0.28886,0.60512
414.688,47.50629,-3.49068,0.28967,0.6038
417.588,47.77989,-3.49713,0.29295,0.60248
420.488,48.05318,-3.51811,0.29378,0.60114
423.388,48.32754,-3.51369,0.2962,0.59979
426.288,48.60197,-3.52051,0.29794,0.59844
429.188,48.8767,-3.52887,0.29968,0.59708
432.088,49.15128,-3.5355,0.30239,0.59571
434.988,49.4268,-3.54155,0.30153,0.59433
437.888,49.70299,-3.54824,0.30574,0.59295
440.788,49.9794,-3.55779,0.30504,0.59156
443.688,50.25591,-3.56163,0.30525,0.59016
446.588,50.53219,-3.56939,0.30631,0.58876
449.488,50.80854,-3.57665,0.30711,0.58735
452.388,51.085,-3.58326,0.30796,0.58593
455.288,51.36172,-3.5897,0.3111,0.58451
458.188,51.63896,-3.59455,0.31614,0.58309
461.088,51.91681,-3.59981,0.31768,0.58165
463.988,52.19473,-3.6061,0.3193,0.58022
466.888,52.47331,-3.61273,0.32108,0.57878
469.788,52.7525,-3.61748,0.32244,0.57733
472.688,53.0309,-3.62173,0.3223,0.57588
475.588,53.30928,-3.62701,0.32651,0.57443
478.488,53.58859,-3.63226,0.33071,0.57297
481.388,53.86861,-3.63908,0.33256,0.57151
484.288,54.1484,-3.64407,0.33137,0.57005
487.188,54.4285,-3.6452,0.33636,0.56858
490.088,54.70909,-3.64967,0.33936,0.56711
492.988,54.9902,-3.65321,0.33993,0.56564
495.888,55.2703,-3.65858,0.34488,0.56417
498.788,55.5511,-3.66122,0.34818,0.56269
501.688,55.83276,-3.66385,0.35479,0.56122
504.588,56.115,-3.66892,0.35661,0.55974
507.488,56.39691,-3.6731,0.35849,0.55826
510.388,56.67965,-3.67437,0.36319,0.55678
513.288,56.96205,-3.68312,0.36636,0.5553
516.188,57.24505,-3.68086,0.37092,0.55381
519.088,57.5277,-3.68341,0.37622,0.55233
521.988,57.8123,-3.68489,0.37215,0.55085
524.888,58.09613,-3.68787,0.37713,0.54937
527.788,58.3801,-3.69182,0.37855,0.54788
530.688,58.66443,-3.69336,0.37884,0.5464
533.588,58.94921,-3.6938,0.37862,0.54492
536.488,59.23451,-3.69775,0.38031,0.54344
539.388,59.5199,-3.69906,0.38391,0.54196
542.288,59.80485,-3.70071,0.38533,0.54048
545.188,60.08942,-3.70466,0.3909,0.53901
548.088,60.37536,-3.70466,0.39043,0.53753
550.988,60.66047,-3.70729,0.39199,0.53606
553.888,60.94639,-3.7086,0.39158,0.53459
556.788,61.2327,-3.70256,0.38862,0.53312
559.688,61.5199,-3.712,0.39199,0.53165
562.588,61.807,-3.71463,0.40075,0.53019
565.488,62.0947,-3.71723,0.40013,0.52873
568.388,62.38182,-3.71727,0.40052,0.52727
571.288,62.66881,-3.71859,0.40074,0.52581
574.188,62.95605,-3.71859,0.40527,0.52436
577.088,63.2441,-3.71992,0.40726,0.52291
579.988,63.53285,-3.72331,0.41111,0.52147
582.888,63.82199,-3.72472,0.41872,0.52003
585.788,64.11076,-3.72513,0.41751,0.51859
588.688,64.39842,-3.72737,0.41802,0.51716
591.588,64.68755,-3.72868,0.4213,0.51573
594.488,64.97657,-3.7323,0.42609,0.51431
597.388,65.26656,-3.73098,0.43978,0.51289
600.288,65.55625,-3.73368,0.44287,0.51147
603.188,65.84606,-3.73295,0.44781,0.51006
606.088,66.13609,-3.73427,0.45255,0.50866
608.988,66.42562,-3.73493,0.45933,0.50726
611.888,66.7161,-3.73632,0.46252,0.50586
614.788,67.00694,-3.7346,0.47429,0.50447
617.688,67.2978,-3.73785,0.47254,0.50309
620.588,67.58957,-3.7379,0.4758,0.50171
623.488,67.88114,-3.74085,0.47578,0.50034
626.388,68.17267,-3.73989,0.47597,0.49897
629.288,68.46396,-3.74316,0.47779,0.49761
632.188,68.75559,-3.74427,0.48526,0.49625
635.088,69.04729,-3.74381,0.4881,0.49491
637.988,69.34061,-3.74315,0.49601,0.49356
640.888,69.63346,-3.74443,0.49685,0.49223
643.788,69.9264,-3.7458,0.49776,0.4909
646.688,70.21944,-3.74711,0.49979,0.48957
649.588,70.51258,-3.74579,0.50862,0.48826
652.488,70.8058,-3.7471,0.51431,0.48695
655.388,71.09971,-3.74843,0.51585,0.48564
658.288,71.39399,-3.74079,0.51443,0.48435
661.188,71.68818,-3.74886,0.51945,0.48306
664.088,71.98201,-3.75019,0.5281,0.48178
666.988,72.27606,-3.75117,0.53357,0.4805
669.888,72.5706,-3.75286,0.53978,0.47923
672.788,72.8652,-3.75215,0.54204,0.47797
675.688,73.16006,-3.75347,0.54837,0.47672
678.588,73.455,-3.75347,0.54859,0.47547
681.488,73.74991,-3.75478,0.55091,0.47423
684.388,74.04567,-3.75537,0.5593,0.473
687.288,74.34181,-3.75479,0.56029,0.47178
690.188,74.63769,-3.75643,0.56276,0.47056
693.088,74.93401,-3.75503,0.58232,0.46935
695.988,75.23026,-3.7576,0.58618,0.46815
698.888,75.52687,-3.75591,0.58733,0.46696
701.788,75.82311,-3.75872,0.60019,0.46577
704.688,76.11969,-3.75873,0.60576,0.4646
707.588,76.41594,-3.75873,0.61327,0.46343
710.488,76.7129,-3.75629,0.62116,0.46227
713.388,77.00952,-3.75971,0.63517,0.46111
716.288,77.3061,-3.76103,0.63566,0.45996
719.188,77.60237,-3.76175,0.64608,0.45883
722.088,77.89957,-3.76279,0.65608,0.4577
724.988,78.19633,-3.7618,0.65887,0.45657
727.888,78.49373,-3.76411,0.66595,0.45546
730.788,78.79249,-3.77228,0.68117,0.45435
733.688,79.0918,-3.76306,0.7035,0.45325
736.588,79.3903,-3.75736,0.72274,0.45216
739.488,79.68902,-3.76468,0.72578,0.45108
742.388,79.98716,-3.76827,0.72713,0.45
742.488,79.99732,-3.76885,0.72885,0.44997

File: Cotton_Felt_STA_N2_10KData_210715_R2.csv
##Temp./Â°C,Time/min,Mass loss(subtr.2)/mg,DSC(subtr.2)/(mW/mg),Sensit./(uV/mW)
49.335,10.01,-0.05539,0.04861598,0.61832
52.235,12.34406,-0.0604498,0.1256,0.61985
55.135,13.01989,-0.06352756,0.16197,0.62136
58.035,13.56104,-0.06956066,0.18859,0.62283
60.935,14.0398,-0.07009472,0.21576,0.62427
63.835,14.47926,-0.07146205,0.23874,0.62569
66.735,14.8914,-0.07611851,0.26084,0.62707
69.635,15.28249,-0.07796154,0.28002,0.62843
72.535,15.657,-0.08233297,0.29943,0.62975
75.435,16.01824,-0.0839038,0.31685,0.63105
78.335,16.3664,-0.08764608,0.33429,0.63232
81.235,16.7046,-0.0981597,0.35233,0.63355
84.135,17.03346,-0.09623501,0.36386,0.63476
87.035,17.3544,-0.09984544,0.37468,0.63594
89.935,17.66841,-0.10413,0.38525,0.63709
92.835,17.97491,-0.10674,0.38558,0.63821
95.735,18.2775,-0.11068,0.38598,0.6393
98.635,18.57561,-0.11203,0.38556,0.64036
101.535,18.86962,-0.11726,0.38153,0.64139
104.435,19.1614,-0.11924,0.37259,0.64239
107.335,19.45051,-0.12121,0.3637,0.64336
110.235,19.73705,-0.12373,0.3531,0.6443
113.135,20.02238,-0.12633,0.34797,0.64521
116.035,20.3053,-0.12651,0.33854,0.6461
118.935,20.58695,-0.12779,0.33575,0.64695
121.835,20.8662,-0.13042,0.33012,0.64777
124.735,21.1437,-0.13044,0.32952,0.64857
127.635,21.42016,-0.13305,0.32728,0.64934
130.535,21.69383,-0.13076,0.33037,0.65007
133.435,21.96559,-0.13207,0.33323,0.65078
136.335,22.236,-0.13306,0.33542,0.65146
139.235,22.50505,-0.13442,0.33488,0.65211
142.135,22.77328,-0.13451,0.33745,0.65273
145.035,23.04005,-0.1358,0.34248,0.65332
147.935,23.3053,-0.13449,0.3432,0.65388
150.835,23.56987,-0.13448,0.34625,0.65441
153.735,23.8339,-0.13448,0.34977,0.65492
156.635,24.09711,-0.13557,0.35161,0.65539
159.535,24.36049,-0.13426,0.35574,0.65584
162.435,24.62312,-0.13426,0.35678,0.65626
165.335,24.88585,-0.13426,0.36233,0.65665
168.235,25.1481,-0.13558,0.3665,0.65701
171.135,25.41049,-0.13521,0.36823,0.65735
174.035,25.67182,-0.13575,0.37384,0.65766
176.935,25.93346,-0.13558,0.37514,0.65794
179.835,26.1939,-0.13787,0.38238,0.65819
182.735,26.45406,-0.13789,0.38352,0.65841
185.635,26.7143,-0.13786,0.38376,0.65861
188.535,26.9737,-0.1392,0.38448,0.65878
191.435,27.23167,-0.1392,0.38819,0.65892
194.335,27.49002,-0.14051,0.38974,0.65903
197.235,27.7481,-0.14381,0.39157,0.65912
200.135,28.006,-0.14229,0.3882,0.65918
203.035,28.26356,-0.1438,0.38694,0.65922
205.935,28.5216,-0.14446,0.38807,0.65922
208.835,28.7792,-0.14114,0.39027,0.65921
211.735,29.0373,-0.14797,0.39178,0.65916
214.635,29.29513,-0.15214,0.39718,0.65909
217.535,29.5532,-0.15435,0.40392,0.659
220.435,29.81158,-0.15566,0.40896,0.65887
223.335,30.06999,-0.16092,0.40725,0.65873
226.235,30.3289,-0.1638,0.4093,0.65855
229.135,30.5876,-0.16876,0.40442,0.65836
232.035,30.8457,-0.176,0.40278,0.65813
234.935,31.10452,-0.1805,0.40156,0.65789
237.835,31.36314,-0.18867,0.39919,0.65762
240.735,31.62173,-0.19703,0.39407,0.65732
243.635,31.88056,-0.20779,0.39729,0.657
246.535,32.13925,-0.21874,0.39051,0.65666
249.435,32.3985,-0.23101,0.38195,0.65629
252.335,32.6578,-0.24539,0.37935,0.6559
255.235,32.91662,-0.25989,0.37831,0.65548
258.135,33.17558,-0.27547,0.3808,0.65505
261.035,33.43585,-0.29596,0.38348,0.65458
263.935,33.69549,-0.3153,0.38403,0.6541
266.835,33.9546,-0.33928,0.38618,0.6536
269.735,34.21436,-0.36015,0.38794,0.65307
272.635,34.47374,-0.3829,0.39162,0.65252
275.535,34.73421,-0.41322,0.39608,0.65195
278.435,34.9951,-0.44504,0.40452,0.65135
281.335,35.25553,-0.48103,0.4104,0.65074
284.235,35.51693,-0.52086,0.41302,0.6501
287.135,35.7778,-0.56256,0.41452,0.64945
290.035,36.0389,-0.6087,0.42041,0.64877
292.935,36.30061,-0.66948,0.42683,0.64807
295.835,36.56207,-0.72036,0.43076,0.64736
298.735,36.82431,-0.78323,0.43925,0.64662
301.635,37.08616,-0.84919,0.43905,0.64586
304.535,37.34843,-0.92107,0.44765,0.64509
307.435,37.61108,-0.99974,0.45421,0.64429
310.335,37.87383,-1.08193,0.45857,0.64348
313.235,38.13735,-1.16913,0.46242,0.64264
316.135,38.4009,-1.26293,0.46963,0.64179
319.035,38.6642,-1.36538,0.47644,0.64092
321.935,38.9276,-1.47269,0.48386,0.64003
324.835,39.1914,-1.58678,0.49532,0.63913
327.735,39.45532,-1.70862,0.50506,0.63821
330.635,39.7196,-1.83573,0.51203,0.63727
333.535,39.9845,-1.97102,0.51286,0.63631
336.435,40.2491,-2.11211,0.51246,0.63534
339.335,40.5145,-2.25246,0.49546,0.63435
342.235,40.77982,-2.39185,0.46565,0.63334
345.135,41.0452,-2.52281,0.41169,0.63232
348.035,41.31123,-2.64053,0.33954,0.63129
350.935,41.5775,-2.73432,0.25544,0.63023
353.835,41.8442,-2.79993,0.19077,0.62917
356.735,42.11061,-2.83851,0.1504,0.62809
359.635,42.3778,-2.86652,0.13549,0.62699
362.535,42.6449,-2.88367,0.1261,0.62588
365.435,42.9127,-2.89983,0.12157,0.62476
368.335,43.18104,-2.91168,0.11708,0.62362
371.235,43.44923,-2.92085,0.11163,0.62247
374.135,43.71816,-2.93153,0.10702,0.6213
377.035,43.98709,-2.94149,0.10199,0.62013
379.935,44.25675,-2.94993,0.10216,0.61894
382.835,44.5263,-2.95716,0.0967389,0.61773
385.735,44.79627,-2.96547,0.0979648,0.61652
388.635,45.06657,-2.9708,0.09517867,0.61529
391.535,45.33688,-2.98018,0.09528888,0.61406
394.435,45.60764,-2.98736,0.09485754,0.61281
397.335,45.87872,-2.99289,0.09271309,0.61155
400.235,46.1503,-3.00072,0.09221173,0.61028
403.135,46.42244,-3.00779,0.09069538,0.609
406.035,46.69512,-3.01234,0.09344623,0.60771
408.935,46.96848,-3.02033,0.09158465,0.60641
411.835,47.24163,-3.02698,0.08731304,0.6051
414.735,47.51512,-3.03191,0.08807291,0.60378
417.635,47.78825,-3.03699,0.08609356,0.60245
420.535,48.06115,-3.04541,0.08339778,0.60112
423.435,48.335,-3.0495,0.08148253,0.59977
426.335,48.60935,-3.05641,0.08003098,0.59842
429.235,48.8838,-3.06222,0.07977801,0.59706
432.135,49.1592,-3.06747,0.08041032,0.59569
435.035,49.43492,-3.07489,0.08065586,0.59431
437.935,49.71012,-3.07966,0.08181069,0.59293
440.835,49.98642,-3.08581,0.08174157,0.59154
443.735,50.26275,-3.09236,0.08064293,0.59014
446.635,50.53968,-3.09447,0.0808215,0.58874
449.535,50.81682,-3.10094,0.08457032,0.58733
452.435,51.09382,-3.10764,0.079317,0.58591
455.335,51.3709,-3.11037,0.07621359,0.58449
458.235,51.6477,-3.1164,0.07758377,0.58306
461.135,51.92585,-3.12278,0.07923813,0.58163
464.035,52.20415,-3.12683,0.07742995,0.58019
466.935,52.4828,-3.13077,0.07921044,0.57875
469.835,52.76146,-3.13507,0.07964708,0.57731
472.735,53.04022,-3.1377,0.08228491,0.57586
475.635,53.3194,-3.14388,0.07952828,0.57441
478.535,53.59854,-3.14701,0.08293005,0.57295
481.435,53.87825,-3.1496,0.0888468,0.57149
484.335,54.15846,-3.15418,0.08695147,0.57002
487.235,54.43852,-3.15757,0.09154601,0.56856
490.135,54.7193,-3.15914,0.10604,0.56709
493.035,55.00037,-3.16317,0.11132,0.56562
495.935,55.28128,-3.16676,0.11469,0.56414
498.835,55.5625,-3.17072,0.11978,0.56267
501.735,55.84418,-3.17198,0.12047,0.56119
504.635,56.1263,-3.17473,0.12161,0.55971
507.535,56.40831,-3.17881,0.1212,0.55823
510.435,56.6907,-3.18023,0.12002,0.55675
513.335,56.9735,-3.18309,0.1204,0.55527
516.235,57.2569,-3.1839,0.11448,0.55379
519.135,57.5404,-3.18716,0.11546,0.55231
522.035,57.824,-3.1887,0.11719,0.55082
524.935,58.1073,-3.19143,0.11902,0.54934
527.835,58.39161,-3.19275,0.11508,0.54786
530.735,58.6758,-3.19512,0.11813,0.54638
533.635,58.96055,-3.19768,0.11699,0.5449
536.535,59.24513,-3.199,0.11878,0.54341
539.435,59.53035,-3.19933,0.11899,0.54194
542.335,59.8163,-3.19901,0.12506,0.54046
545.235,60.10201,-3.20163,0.12514,0.53898
548.135,60.38845,-3.20295,0.1216,0.53751
551.035,60.6742,-3.20427,0.11995,0.53603
553.935,60.9602,-3.20657,0.12494,0.53456
556.835,61.24646,-3.20653,0.1258,0.53309
559.735,61.53278,-3.20953,0.12282,0.53163
562.635,61.8199,-3.21052,0.12561,0.53016
565.535,62.10686,-3.20953,0.12668,0.5287
568.435,62.39436,-3.21205,0.13116,0.52724
571.335,62.6822,-3.21338,0.13548,0.52579
574.235,62.97074,-3.21534,0.1343,0.52434
577.135,63.259,-3.22214,0.135,0.52289
580.035,63.5474,-3.21721,0.13691,0.52145
582.935,63.8359,-3.21721,0.13763,0.52001
585.835,64.12436,-3.21881,0.13186,0.51857
588.735,64.4127,-3.2199,0.13677,0.51714
591.635,64.70204,-3.2226,0.14052,0.51571
594.535,64.9919,-3.2239,0.14174,0.51428
597.435,65.28194,-3.22323,0.14947,0.51286
600.335,65.57229,-3.22357,0.15688,0.51145
603.235,65.86307,-3.2239,0.16613,0.51004
606.135,66.15442,-3.22653,0.16496,0.50863
609.035,66.4456,-3.22706,0.1632,0.50723
611.935,66.73697,-3.22652,0.16299,0.50584
614.835,67.02741,-3.22918,0.16169,0.50445
617.735,67.3185,-3.22918,0.18381,0.50307
620.635,67.60891,-3.22819,0.18841,0.50169
623.535,67.89965,-3.23102,0.1913,0.50031
626.435,68.19102,-3.22758,0.19773,0.49895
629.335,68.483,-3.23335,0.19986,0.49759
632.235,68.77552,-3.23486,0.20316,0.49623
635.135,69.06724,-3.23325,0.2258,0.49488
638.035,69.3596,-3.23552,0.22897,0.49354
640.935,69.65262,-3.23563,0.23055,0.4922
643.835,69.94546,-3.23564,0.24166,0.49088
646.735,70.23819,-3.23696,0.2484,0.48955
649.635,70.5308,-3.23868,0.26741,0.48824
652.535,70.824,-3.23926,0.27162,0.48693
655.435,71.11759,-3.23937,0.28968,0.48562
658.335,71.41075,-3.23937,0.29228,0.48433
661.235,71.70481,-3.23939,0.30452,0.48304
664.135,71.9995,-3.24068,0.30811,0.48176
667.035,72.29378,-3.24068,0.31921,0.48048
669.935,72.58836,-3.24076,0.32701,0.47921
672.835,72.88289,-3.24138,0.33712,0.47795
675.735,73.17806,-3.24245,0.34609,0.4767
678.635,73.47315,-3.24299,0.35036,0.47545
681.535,73.76828,-3.24422,0.35704,0.47421
684.435,74.0643,-3.24496,0.37398,0.47298
687.335,74.35932,-3.24431,0.38431,0.47176
690.235,74.65523,-3.24529,0.39214,0.47054
693.135,74.95098,-3.24662,0.40764,0.46933
696.035,75.2474,-3.24561,0.41788,0.46813
698.935,75.5442,-3.24586,0.42458,0.46694
701.835,75.84102,-3.24693,0.43267,0.46576
704.735,76.13893,-3.24821,0.43372,0.46458
707.635,76.43604,-3.24824,0.44155,0.46341
710.535,76.7335,-3.24895,0.43343,0.46225
713.435,77.03027,-3.24891,0.41761,0.46109
716.335,77.32687,-3.24891,0.41745,0.45995
719.235,77.62348,-3.24924,0.41465,0.45881
722.135,77.92068,-3.25154,0.41911,0.45768
725.035,78.21808,-3.2502,0.42257,0.45655
727.935,78.51572,-3.25143,0.42644,0.45544
730.835,78.81434,-3.25077,0.42287,0.45433
733.735,79.11269,-3.25132,0.42342,0.45323
736.635,79.4114,-3.25198,0.42218,0.45214
739.535,79.7089,-3.25386,0.43041,0.45106
742.335,79.99846,-3.25461,0.44501,0.45002