Folder: fsri_materials_database/01_Data/Cotton_Felt/STA/N2/10K_min (part 2)

File: Cotton_Felt_STA_N2_10KData_210719_R3.csv
##Temp./Â°C,Time/min,Mass loss(subtr.2)/mg,DSC(subtr.2)/(mW/mg),Sensit./(uV/mW)
49.313,10.00917,-0.02237,-0.02041273,0.61831
52.413,12.3906,-0.02977279,0.0338946,0.61995
55.513,13.09181,-0.03061692,0.0674527,0.62155
58.613,13.65642,-0.03251724,0.08812325,0.62312
61.713,14.1585,-0.03695607,0.11089,0.62465
64.813,14.6207,-0.0398077,0.13085,0.62616
67.913,15.0525,-0.0412345,0.14784,0.62762
71.013,15.462,-0.04381595,0.16666,0.62906
74.113,15.85465,-0.04650192,0.18635,0.63046
77.213,16.23126,-0.05185378,0.19982,0.63183
80.313,16.59618,-0.05324577,0.21481,0.63316
83.413,16.95094,-0.05703925,0.22986,0.63446
86.513,17.2954,-0.05966587,0.23576,0.63573
89.613,17.63233,-0.06365894,0.24265,0.63696
92.713,17.9622,-0.06780878,0.24655,0.63816
95.813,18.28593,-0.0718383,0.24536,0.63933
98.913,18.6016,-0.07448023,0.24257,0.64046
102.013,18.91614,-0.07841982,0.23759,0.64155
105.113,19.2284,-0.08039707,0.23238,0.64262
108.213,19.53616,-0.08398496,0.22536,0.64365
111.313,19.84173,-0.08485944,0.21553,0.64464
114.413,20.14472,-0.08823214,0.20732,0.64561
117.513,20.4459,-0.08720301,0.19725,0.64654
120.613,20.74531,-0.0898301,0.18868,0.64743
123.713,21.04305,-0.09128684,0.18082,0.64829
126.813,21.33844,-0.09102997,0.18054,0.64912
129.913,21.63247,-0.09235,0.1777,0.64992
133.013,21.92351,-0.09235557,0.1783,0.65068
136.113,22.2127,-0.09469411,0.17656,0.65141
139.213,22.50004,-0.09398652,0.17532,0.6521
142.313,22.78616,-0.10114,0.17576,0.65276
145.413,23.0696,-0.09477,0.17525,0.65339
148.513,23.3549,-0.09213174,0.17908,0.65399
151.613,23.63749,-0.09612468,0.17981,0.65455
154.713,23.9187,-0.09619,0.18313,0.65508
157.813,24.20091,-0.09618999,0.18546,0.65558
160.913,24.48151,-0.0975766,0.18464,0.65604
164.013,24.7628,-0.0966656,0.19027,0.65648
167.113,25.04315,-0.09687714,0.18839,0.65688
170.213,25.3235,-0.09804326,0.19095,0.65725
173.313,25.60379,-0.09970345,0.19158,0.65758
176.413,25.88332,-0.09904051,0.19464,0.65789
179.513,26.16229,-0.09839,0.19657,0.65816
182.613,26.44,-0.09838702,0.19893,0.6584
185.713,26.7177,-0.09773,0.20336,0.65861
188.813,26.99475,-0.09904,0.20643,0.65879
191.913,27.2713,-0.10003,0.20604,0.65894
195.013,27.5467,-0.10081,0.20955,0.65906
198.113,27.82276,-0.10116,0.20529,0.65914
201.213,28.09988,-0.10309,0.20654,0.6592
204.313,28.3768,-0.10442,0.20721,0.65922
207.413,28.65268,-0.10453,0.20474,0.65922
210.513,28.9287,-0.10716,0.20781,0.65918
213.613,29.2045,-0.10979,0.20968,0.65912
216.713,29.48027,-0.11112,0.21072,0.65902
219.813,29.7562,-0.11504,0.21445,0.6589
222.913,30.03241,-0.11901,0.20972,0.65875
226.013,30.3066,-0.12056,0.2097,0.65857
229.113,30.5832,-0.12735,0.20837,0.65836
232.213,30.86047,-0.13411,0.21029,0.65812
235.313,31.1369,-0.14194,0.21127,0.65785
238.413,31.4138,-0.14942,0.20816,0.65756
241.513,31.69075,-0.16027,0.20677,0.65724
244.613,31.96722,-0.17054,0.20117,0.65689
247.713,32.2446,-0.18231,0.19691,0.65651
250.813,32.52197,-0.19644,0.19773,0.65611
253.913,32.79937,-0.21324,0.19742,0.65567
257.013,33.07646,-0.23036,0.20047,0.65522
260.113,33.35365,-0.24925,0.2,0.65473
263.213,33.63112,-0.26664,0.20066,0.65422
266.313,33.90892,-0.2913,0.19686,0.65369
269.413,34.18627,-0.31496,0.19469,0.65313
272.513,34.46448,-0.34422,0.20043,0.65254
275.613,34.74212,-0.37274,0.20478,0.65193
278.713,35.02035,-0.40862,0.20927,0.6513
281.813,35.29835,-0.44651,0.21529,0.65064
284.913,35.57674,-0.48959,0.21993,0.64995
288.013,35.85541,-0.53771,0.2236,0.64925
291.113,36.1342,-0.58912,0.23119,0.64851
294.213,36.41422,-0.64865,0.23953,0.64776
297.313,36.6944,-0.71113,0.24288,0.64698
300.413,36.97482,-0.78217,0.24884,0.64618
303.513,37.2553,-0.8558,0.25666,0.64536
306.613,37.53535,-0.93784,0.26225,0.64452
309.713,37.81678,-1.02353,0.27313,0.64365
312.813,38.09775,-1.11806,0.28067,0.64277
315.913,38.37856,-1.2179,0.292,0.64186
319.013,38.65975,-1.32542,0.29716,0.64093
322.113,38.94073,-1.44097,0.30722,0.63998
325.213,39.2224,-1.56401,0.31868,0.63901
328.313,39.50447,-1.69688,0.32909,0.63802
331.413,39.7866,-1.83659,0.3395,0.63701
334.513,40.06946,-1.98175,0.33856,0.63599
337.613,40.3524,-2.13176,0.33208,0.63494
340.713,40.63584,-2.28323,0.31758,0.63387
343.813,40.91959,-2.43012,0.27414,0.63279
346.913,41.20264,-2.5609,0.21719,0.63169
350.013,41.4879,-2.66943,0.14096,0.63057
353.113,41.77241,-2.7457,0.06924853,0.62943
356.213,42.0579,-2.79385,0.02951268,0.62828
359.313,42.34303,-2.8214,0.00925555,0.62711
362.413,42.62932,-2.8412,0.000302545,0.62593
365.513,42.91576,-2.85839,-0.006866584,0.62473
368.613,43.20237,-2.87295,-0.009697539,0.62351
371.713,43.48925,-2.88321,-0.01119986,0.62228
374.813,43.77691,-2.89705,-0.01404479,0.62103
377.913,44.06451,-2.90602,-0.01299996,0.61977
381.013,44.35281,-2.91568,-0.01339761,0.61849
384.113,44.64154,-2.92311,-0.01739218,0.6172
387.213,44.93,-2.93279,-0.01828162,0.6159
390.313,45.21873,-2.93882,-0.01564225,0.61458
393.413,45.50887,-2.94757,-0.01471401,0.61325
396.513,45.799,-2.9567,-0.01632605,0.61191
399.613,46.08916,-2.96196,-0.01604408,0.61055
402.713,46.37976,-2.96932,-0.01856971,0.60919
405.813,46.6706,-2.97678,-0.01935408,0.60781
408.913,46.96183,-2.98326,-0.02370687,0.60642
412.013,47.25375,-2.99254,-0.02476746,0.60502
415.113,47.54551,-3.0005,-0.02553275,0.60361
418.213,47.83826,-3.00568,-0.02780906,0.60219
421.313,48.13123,-3.01373,-0.02132809,0.60076
424.413,48.4253,-3.02064,-0.02319683,0.59932
427.513,48.7188,-3.02767,-0.03216728,0.59787
430.613,49.01231,-3.03423,-0.03236091,0.59641
433.713,49.30677,-3.04092,-0.03296031,0.59494
436.813,49.60155,-3.0474,-0.03255199,0.59346
439.913,49.89731,-3.05311,-0.02814695,0.59198
443.013,50.19311,-3.0597,-0.02494134,0.59049
446.113,50.48918,-3.06638,-0.01726861,0.58899
449.213,50.78482,-3.07173,-0.01974045,0.58748
452.313,51.0807,-3.07823,-0.01757559,0.58597
455.413,51.37728,-3.08349,-0.0173274,0.58445
458.513,51.6736,-3.08758,-0.01379579,0.58293
461.613,51.9705,-3.09425,-0.01538019,0.58139
464.713,52.26785,-3.10092,-0.01518938,0.57986
467.813,52.5661,-3.10511,-0.01731997,0.57832
470.913,52.86461,-3.11243,-0.01200983,0.57677
474.013,53.1627,-3.11639,-0.01225511,0.57522
477.113,53.46185,-3.1199,-0.01422441,0.57366
480.213,53.761,-3.12518,-0.01361123,0.5721
483.313,54.0614,-3.12913,-0.01460981,0.57054
486.413,54.36156,-3.13176,-0.01521066,0.56897
489.513,54.6611,-3.1367,-0.01445418,0.5674
492.613,54.9628,-3.14074,-0.01361581,0.56583
495.713,55.26393,-3.14349,-0.01734209,0.56426
498.813,55.56565,-3.14744,-0.01730696,0.56268
501.913,55.86674,-3.15189,-0.01822439,0.5611
505.013,56.16887,-3.15336,-0.01676638,0.55952
508.113,56.47073,-3.15599,-0.01708648,0.55794
511.213,56.7722,-3.16115,-0.01688376,0.55636
514.313,57.076,-3.16232,-0.01449444,0.55477
517.413,57.3785,-3.16483,-0.0122664,0.55319
520.513,57.6814,-3.16742,-0.00359634,0.5516
523.613,57.98425,-3.17102,-0.006828794,0.55002
526.713,58.28774,-3.17234,-0.01035248,0.54843
529.813,58.59156,-3.17605,-0.01439745,0.54685
532.913,58.8957,-3.17727,-0.02124967,0.54526
536.013,59.20013,-3.17991,-0.02237962,0.54368
539.113,59.50526,-3.18188,-0.02274569,0.5421
542.213,59.8111,-3.18452,-0.02308891,0.54052
545.313,60.11701,-3.18444,-0.02175093,0.53894
548.413,60.4221,-3.18847,-0.02532472,0.53737
551.513,60.7287,-3.19043,-0.03131426,0.53579
554.613,61.03485,-3.19143,-0.02799312,0.53422
557.713,61.34118,-3.19274,-0.02058839,0.53265
560.813,61.64806,-3.19603,-0.01947685,0.53108
563.913,61.95443,-3.19801,-0.01367874,0.52952
567.013,62.26211,-3.19894,-0.02126237,0.52796
570.113,62.5699,-3.20101,-0.01917326,0.5264
573.213,62.8786,-3.20327,-0.02183503,0.52485
576.313,63.1866,-3.20393,-0.02333607,0.5233
579.413,63.4962,-3.21797,-0.03152542,0.52176
582.513,63.80409,-3.20632,-0.02290719,0.52021
585.613,64.11374,-3.20919,-0.01639135,0.51868
588.713,64.42312,-3.20951,-0.01390783,0.51715
591.813,64.73335,-3.2007,-0.01119251,0.51562
594.913,65.04355,-3.21181,-0.01633308,0.5141
598.013,65.35338,-3.21258,-0.01237724,0.51258
601.113,65.66366,-3.21396,-0.01269322,0.51107
604.213,65.97418,-3.21543,-0.01110285,0.50956
607.313,66.285,-3.21676,-0.00495326,0.50806
610.413,66.5964,-3.21794,0.002584014,0.50657
613.513,66.90727,-3.21788,0.005607959,0.50508
616.613,67.2192,-3.21973,0.01272267,0.5036
619.713,67.53098,-3.22038,0.009369479,0.50213
622.813,67.84291,-3.22302,0.01028202,0.50066
625.913,68.1551,-3.2234,0.002934857,0.49919
629.013,68.46698,-3.22433,-0.006289942,0.49774
632.113,68.78023,-3.22334,-0.02508654,0.49629
635.213,69.09349,-3.22631,-0.02515659,0.49485
638.313,69.40724,-3.2263,-0.02287749,0.49341
641.413,69.7203,-3.22498,-0.03413804,0.49199
644.513,70.0333,-3.22532,-0.04596261,0.49057
647.613,70.34699,-3.2258,-0.03657788,0.48915
650.713,70.66109,-3.22795,-0.03186688,0.48775
653.813,70.97577,-3.22861,-0.03081964,0.48635
656.913,71.2903,-3.22905,-0.03151985,0.48496
660.013,71.6046,-3.22872,-0.03075323,0.48358
663.113,71.91951,-3.22387,-0.02967907,0.48221
666.213,72.23478,-3.22937,-0.03196112,0.48084
669.313,72.5492,-3.23066,-0.03929329,0.47948
672.413,72.8635,-3.23168,-0.03557942,0.47813
675.513,73.17806,-3.23168,-0.03973515,0.47679
678.613,73.49376,-3.23219,-0.03141382,0.47546
681.713,73.80797,-3.23322,-0.02518045,0.47414
684.813,74.12446,-3.23386,-0.02482129,0.47282
687.913,74.44295,-3.23387,-0.02548531,0.47152
691.013,74.76035,-3.23646,-0.01747066,0.47022
694.113,75.07691,-3.23662,-0.00136489,0.46893
697.213,75.39355,-3.23388,0.00987227,0.46765
700.313,75.70979,-3.2371,0.01850159,0.46638
703.413,76.0278,-3.23782,0.03936118,0.46511
706.513,76.34509,-3.23933,0.05661538,0.46386
709.613,76.6633,-3.23779,0.05425479,0.46261
712.713,76.98135,-3.24236,0.06583196,0.46138
715.813,77.29889,-3.23836,0.08104952,0.46015
718.913,77.61641,-3.23837,0.08409889,0.45893
722.013,77.93405,-3.24019,0.08129723,0.45772
725.113,78.25152,-3.24091,0.0917307,0.45652
728.213,78.5699,-3.23969,0.09690011,0.45533
731.313,78.8884,-3.24111,0.10507,0.45415
734.413,79.20682,-3.24102,0.09527697,0.45298
737.513,79.52594,-3.24275,0.08850346,0.45181
740.613,79.84509,-3.24317,0.09719664,0.45066
742.013,79.98942,-3.24276,0.11094,0.45014