Folder: fsri_materials_database/01_Data/Cotton_Felt/STA/N2/30K_min

Note: 01_Data/README.md
# Materials and Products Database
## 01_Data

Raw data generated from each apparatus are included here in plain-text format. The data is organized first by material, next by the short name of test apparatus used, and where applicable additional filtering by test settings.

### material.json

Each material directory contains a json file of the same name as the material. This file links the data stored in the repository as well as data and graphs produced by the accompanying scripts (__02_Scripts__) to the respective landing page for the material on the front-end website.

File: Cotton_Felt_STA_N2_30KData_210716_R1.csv
##Temp./Â°C,Time/min,Mass loss(subtr.2)/mg,DSC(subtr.2)/(mW/mg),Sensit./(uV/mW)
50.586,10.00917,-0.03619,-0.02077874,0.6235
53.586,11.57088,-0.04048366,0.08351381,0.62347
56.586,11.92051,-0.04136031,0.15436,0.62342
59.586,12.17644,-0.04011262,0.21227,0.62335
62.586,12.3903,-0.04413086,0.26612,0.62327
65.586,12.58108,-0.04240454,0.30866,0.62318
68.586,12.7567,-0.04415339,0.35344,0.62308
71.586,12.9223,-0.0452439,0.39502,0.62296
74.586,13.08107,-0.04815792,0.43411,0.62283
77.586,13.2334,-0.05123234,0.47326,0.62269
80.586,13.3814,-0.05296159,0.5135,0.62253
83.586,13.5253,-0.05450281,0.55053,0.62236
86.586,13.665,-0.05957069,0.59057,0.62217
89.586,13.80066,-0.06173137,0.6304,0.62198
92.586,13.93299,-0.06388555,0.66725,0.62177
95.586,14.06184,-0.06811802,0.70055,0.62155
98.586,14.1875,-0.06991079,0.73287,0.62131
101.586,14.3106,-0.08057484,0.75514,0.62106
104.586,14.4306,-0.07872665,0.78232,0.6208
107.586,14.5483,-0.08097508,0.80624,0.62053
110.586,14.66411,-0.0856636,0.82585,0.62025
113.586,14.7774,-0.08829951,0.83597,0.61995
116.586,14.88915,-0.09157865,0.84417,0.61964
119.586,14.9985,-0.09449367,0.84369,0.61932
122.586,15.10634,-0.09746703,0.84216,0.61899
125.586,15.2125,-0.09882702,0.83188,0.61864
128.586,15.317,-0.10146,0.82336,0.61828
131.586,15.41973,-0.10422,0.81154,0.61791
134.586,15.52108,-0.10552,0.79556,0.61753
137.586,15.62129,-0.10587,0.77838,0.61714
140.586,15.72045,-0.09896486,0.7689,0.61673
143.586,15.8181,-0.11071,0.7583,0.61632
146.586,15.91491,-0.10945,0.75715,0.61589
149.586,16.01101,-0.11011,0.74824,0.61545
152.586,16.10611,-0.1104,0.74341,0.615
155.586,16.20024,-0.11019,0.74502,0.61454
158.586,16.29397,-0.11045,0.74568,0.61407
161.586,16.38716,-0.11045,0.75155,0.61359
164.586,16.47958,-0.11012,0.75767,0.6131
167.586,16.5715,-0.11113,0.7655,0.61259
170.586,16.66283,-0.11009,0.77927,0.61208
173.586,16.75371,-0.11144,0.78818,0.61155
176.586,16.844,-0.11139,0.80324,0.61101
179.586,16.93375,-0.11134,0.81359,0.61047
182.586,17.0229,-0.11044,0.83091,0.60991
185.586,17.1114,-0.11309,0.84495,0.60935
188.586,17.19953,-0.11246,0.85995,0.60877
191.586,17.28704,-0.11309,0.87714,0.60818
194.586,17.37397,-0.11441,0.88865,0.60758
197.586,17.46061,-0.11311,0.89818,0.60698
200.586,17.5469,-0.1144,0.90358,0.60636
203.586,17.6328,-0.1144,0.9149,0.60574
206.586,17.7184,-0.115,0.93307,0.6051
209.586,17.8036,-0.11463,0.9358,0.60446
212.586,17.88873,-0.11703,0.95074,0.6038
215.586,17.97342,-0.11703,0.95001,0.60314
218.586,18.05779,-0.1173,0.95576,0.60247
221.586,18.1422,-0.1183,0.9592,0.60179
224.586,18.22628,-0.12083,0.94788,0.60109
227.586,18.31012,-0.12097,0.95038,0.6004
230.586,18.39366,-0.12502,0.9668,0.59969
233.586,18.477,-0.12609,0.95869,0.59897
236.586,18.56028,-0.12916,0.96171,0.59825
239.586,18.64326,-0.13257,0.96051,0.59751
242.586,18.7262,-0.13721,0.95547,0.59677
245.586,18.80891,-0.14268,0.95133,0.59602
248.586,18.89169,-0.14831,0.9531,0.59526
251.586,18.9742,-0.15581,0.95118,0.5945
254.586,19.05647,-0.16263,0.94531,0.59372
257.586,19.1387,-0.17097,0.93016,0.59294
260.586,19.22087,-0.18213,0.92378,0.59215
263.586,19.30293,-0.19529,0.9328,0.59135
266.586,19.38498,-0.20735,0.93622,0.59055
269.586,19.4669,-0.22043,0.92868,0.58974
272.586,19.5487,-0.23451,0.93206,0.58892
275.586,19.63055,-0.25271,0.94467,0.58809
278.586,19.71234,-0.27157,0.94969,0.58726
281.586,19.7942,-0.29285,0.95348,0.58642
284.586,19.87619,-0.31415,0.95748,0.58557
287.586,19.95805,-0.33933,0.95197,0.58471
290.586,20.03976,-0.36535,0.95546,0.58385
293.586,20.12132,-0.39431,0.96184,0.58299
296.586,20.2033,-0.4288,0.96994,0.58211
299.586,20.28516,-0.46528,0.97194,0.58123
302.586,20.36693,-0.50446,0.97533,0.58034
305.586,20.4487,-0.54876,0.97732,0.57945
308.586,20.53054,-0.60005,0.98319,0.57855
311.586,20.61233,-0.65338,0.98269,0.57765
314.586,20.69409,-0.71502,0.99285,0.57674
317.586,20.7758,-0.78339,0.99862,0.57582
320.586,20.8576,-0.85446,1.01404,0.5749
323.586,20.93962,-0.93407,1.02293,0.57397
326.586,21.02143,-1.01868,1.03374,0.57304
329.586,21.1034,-1.10986,1.05015,0.5721
332.586,21.18529,-1.20818,1.06732,0.57115
335.586,21.26744,-1.31472,1.08521,0.5702
338.586,21.34956,-1.42963,1.11117,0.56925
341.586,21.4316,-1.55372,1.13661,0.56829
344.586,21.51375,-1.68064,1.16702,0.56732
347.586,21.59611,-1.81131,1.19711,0.56636
350.586,21.6785,-1.95012,1.22202,0.56538
353.586,21.7609,-2.09658,1.22993,0.5644
356.586,21.84354,-2.24691,1.21143,0.56342
359.586,21.92626,-2.39642,1.15116,0.56243
362.586,22.00946,-2.54504,1.04755,0.56144
365.586,22.09256,-2.68558,0.90093,0.56045
368.586,22.1762,-2.80947,0.68054,0.55945
371.586,22.2602,-2.90655,0.46074,0.55844
374.586,22.34456,-2.97384,0.2894,0.55744
377.586,22.42905,-3.01522,0.18185,0.55643
380.586,22.51362,-3.04181,0.11608,0.55541
383.586,22.59838,-3.06115,0.07917056,0.55439
386.586,22.68297,-3.07287,0.05710651,0.55337
389.586,22.768,-3.08402,0.04120797,0.55234
392.586,22.85289,-3.09555,0.03232687,0.55131
395.586,22.9379,-3.10472,0.0265624,0.55028
398.586,23.02306,-3.11265,0.01898997,0.54925
401.586,23.10856,-3.12101,0.01315429,0.54821
404.586,23.19391,-3.12911,0.00181649,0.54717
407.586,23.27947,-3.13784,0.0009927951,0.54612
410.586,23.36526,-3.14504,-0.00706695,0.54508
413.586,23.4511,-3.15195,-0.01529018,0.54403
416.586,23.53718,-3.15958,-0.02032003,0.54298
419.586,23.62319,-3.16561,-0.02467208,0.54192
422.586,23.7094,-3.17324,-0.0329721,0.54086
425.586,23.79583,-3.17953,-0.03592407,0.53981
428.586,23.88233,-3.18662,-0.0466238,0.53874
431.586,23.9689,-3.19348,-0.05317407,0.53768
434.586,24.05561,-3.20042,-0.05474678,0.53662
437.586,24.14278,-3.20874,-0.06116693,0.53555
440.586,24.22993,-3.2129,-0.06126398,0.53448
443.586,24.31723,-3.21757,-0.06847231,0.53341
446.586,24.40482,-3.22474,-0.06665721,0.53233
449.586,24.4924,-3.23259,-0.06947104,0.53126
452.586,24.5802,-3.23861,-0.06798887,0.53018
455.586,24.66816,-3.24519,-0.07033631,0.52911
458.586,24.75637,-3.24985,-0.06910919,0.52803
461.586,24.84468,-3.25509,-0.07031377,0.52695
464.586,24.93317,-3.26006,-0.06846496,0.52587
467.586,25.02185,-3.26687,-0.06533811,0.52479
470.586,25.11078,-3.27318,-0.06276573,0.5237
473.586,25.19973,-3.27689,-0.05958624,0.52262
476.586,25.28894,-3.28091,-0.06384925,0.52153
479.586,25.37818,-3.2871,-0.06380558,0.52045
482.586,25.46773,-3.29249,-0.05910506,0.51936
485.586,25.5574,-3.29778,-0.05574994,0.51827
488.586,25.64718,-3.30195,-0.05025789,0.51719
491.586,25.7373,-3.30662,-0.04875034,0.5161
494.586,25.8274,-3.31109,-0.04191314,0.51501
497.586,25.91778,-3.3157,-0.04135859,0.51392
500.586,26.0081,-3.31925,-0.03963951,0.51283
503.586,26.0988,-3.3233,-0.03071198,0.51174
506.586,26.18964,-3.32572,-0.03128841,0.51065
509.586,26.2805,-3.33076,-0.02671219,0.50957
512.586,26.37155,-3.33354,-0.02063696,0.50848
515.586,26.4626,-3.33714,-0.0201987,0.50739
518.586,26.55402,-3.33929,-0.02091632,0.5063
521.586,26.6454,-3.34149,-0.01611884,0.50521
524.586,26.7369,-3.34487,-0.01131919,0.50412
527.586,26.8289,-3.34748,-0.01072213,0.50303
530.586,26.92087,-3.35128,-0.0093384,0.50195
533.586,27.0129,-3.35377,-0.00982423,0.50086
536.586,27.1052,-3.3567,-0.003961263,0.49977
539.586,27.19762,-3.35902,0.001133258,0.49869
542.586,27.29028,-3.35923,-0.0003088521,0.4976
545.586,27.38295,-3.36206,-0.00276617,0.49652
548.586,27.47568,-3.36573,-0.0002678479,0.49544
551.586,27.56855,-3.36714,0.007226415,0.49436
554.586,27.66165,-3.36973,0.01105746,0.49328
557.586,27.7549,-3.3724,0.01076006,0.4922
560.586,27.8482,-3.37497,0.01096421,0.49112
563.586,27.94166,-3.37576,0.01576349,0.49004
566.586,28.03515,-3.37633,0.02216235,0.48896
569.586,28.12882,-3.37767,0.02363532,0.48789
572.586,28.2226,-3.37899,0.02194272,0.48681
575.586,28.3164,-3.3803,0.03032514,0.48574
578.586,28.41054,-3.38459,0.03158836,0.48467
581.586,28.50465,-3.38577,0.0352722,0.4836
584.586,28.599,-3.38579,0.04063054,0.48253
587.586,28.6933,-3.3884,0.04634029,0.48147
590.586,28.78792,-3.38942,0.04432714,0.4804
593.586,28.8825,-3.39117,0.04626114,0.47934
596.586,28.97751,-3.39249,0.04814951,0.47828
599.586,29.0724,-3.39248,0.0462785,0.47722
602.586,29.1674,-3.39513,0.04125743,0.47616
605.586,29.26255,-3.39643,0.04327513,0.47511
608.586,29.35789,-3.39809,0.04217916,0.47406
611.586,29.4532,-3.39939,0.04313286,0.47301
614.586,29.5487,-3.40071,0.0453795,0.47196
617.586,29.6441,-3.40202,0.03912392,0.47091
620.586,29.73975,-3.40333,0.03855968,0.46986
623.586,29.83532,-3.40202,0.03786092,0.46882
626.586,29.93129,-3.40334,0.0355992,0.46778
629.586,30.02727,-3.40464,0.03461947,0.46674
632.586,30.1232,-3.40533,0.02614565,0.46571
635.586,30.21937,-3.40597,0.02278232,0.46468
638.586,30.3156,-3.40861,0.01211188,0.46364
641.586,30.41191,-3.40729,0.00977222,0.46262
644.586,30.50828,-3.40862,0.00346127,0.46159
647.586,30.605,-3.41125,-0.002113528,0.46057
650.586,30.70165,-3.41255,-0.00591787,0.45955
653.586,30.7984,-3.41256,-0.0026817,0.45853
656.586,30.89541,-3.41369,-0.002353338,0.45751
659.586,30.9925,-3.41288,-0.007006312,0.4565
662.586,31.0896,-3.4142,-0.01039486,0.45549
665.586,31.1869,-3.41552,-0.01364872,0.45448
668.586,31.28438,-3.41519,-0.00750847,0.45348
671.586,31.3818,-3.41421,-0.01032153,0.45248
674.586,31.4793,-3.41683,-0.00756793,0.45148
677.586,31.5771,-3.41814,-0.0006948478,0.45048
680.586,31.67478,-3.41855,0.001038028,0.44949
683.586,31.77267,-3.41847,0.006941836,0.4485
686.586,31.8705,-3.41979,0.002468604,0.44751
689.586,31.9685,-3.42074,0.00676455,0.44653
692.586,32.06657,-3.42078,0.0003848141,0.44555
695.586,32.1646,-3.42209,0.0001759359,0.44457
698.586,32.26282,-3.42194,-0.00150885,0.44359
701.586,32.36078,-3.42014,-0.01405925,0.44262
704.586,32.4589,-3.42144,-0.02323423,0.44165
707.586,32.55717,-3.42275,-0.03160872,0.44069
710.586,32.65528,-3.42472,-0.03757318,0.43972
713.586,32.7537,-3.42473,-0.05487432,0.43877
716.586,32.85196,-3.42617,-0.06032523,0.43781
719.586,32.95055,-3.42604,-0.06031975,0.43686
722.586,33.04912,-3.42736,-0.06562234,0.43591
725.586,33.148,-3.42872,-0.09011539,0.43496
728.586,33.24686,-3.42736,-0.09285168,0.43402
731.186,33.33245,-3.42604,-0.11257,0.4332

File: Cotton_Felt_STA_N2_30KData_210719_R2.csv
##Temp./Â°C,Time/min,Mass loss(subtr.2)/mg,DSC(subtr.2)/(mW/mg),Sensit./(uV/mW)
50.645,10.00917,-0.05825,0.03928898,0.6235
53.645,11.56989,-0.06287754,0.1345,0.62346
56.645,11.92143,-0.0639498,0.21042,0.62341
59.645,12.1771,-0.06774911,0.26794,0.62335
62.645,12.39151,-0.0678692,0.31872,0.62327
65.645,12.58199,-0.06495753,0.36316,0.62318
68.645,12.7582,-0.07019299,0.40755,0.62308
71.645,12.92407,-0.07321269,0.44913,0.62296
74.645,13.083,-0.07586302,0.48743,0.62283
77.645,13.23531,-0.07941044,0.52603,0.62268
80.645,13.3838,-0.07806966,0.56597,0.62253
83.645,13.52716,-0.08619297,0.60705,0.62235
86.645,13.66681,-0.08811881,0.65499,0.62217
89.645,13.80277,-0.09164186,0.6932,0.62197
92.645,13.9349,-0.09630629,0.7328,0.62176
95.645,14.06359,-0.10007,0.77194,0.62154
98.645,14.18946,-0.10258,0.80547,0.62131
101.645,14.3125,-0.11003,0.83418,0.62106
104.645,14.4329,-0.11276,0.86136,0.6208
107.645,14.55078,-0.11816,0.88186,0.62053
110.645,14.66634,-0.12406,0.89948,0.62024
113.645,14.77989,-0.12801,0.91175,0.61994
116.645,14.89153,-0.13078,0.91921,0.61963
119.645,15.0009,-0.13595,0.92242,0.61931
122.645,15.10885,-0.13884,0.91886,0.61898
125.645,15.215,-0.14261,0.91374,0.61863
128.645,15.3193,-0.14534,0.90385,0.61827
131.645,15.4219,-0.1494,0.89506,0.61791
134.645,15.5232,-0.14939,0.88323,0.61752
137.645,15.62333,-0.15219,0.8619,0.61713
140.645,15.72226,-0.15307,0.84832,0.61673
143.645,15.8199,-0.15609,0.83582,0.61631
146.645,15.91663,-0.15872,0.82721,0.61588
149.645,16.01233,-0.15804,0.81821,0.61544
152.645,16.10759,-0.15867,0.81513,0.61499
155.645,16.20195,-0.15873,0.81233,0.61453
158.645,16.29557,-0.15873,0.81692,0.61406
161.645,16.38844,-0.15872,0.81648,0.61358
164.645,16.48086,-0.15972,0.82409,0.61309
167.645,16.57264,-0.16004,0.8336,0.61258
170.645,16.66347,-0.16,0.84227,0.61207
173.645,16.75432,-0.16035,0.85762,0.61154
176.645,16.845,-0.16135,0.87081,0.611
179.645,16.93435,-0.15995,0.88343,0.61046
182.645,17.02342,-0.16135,0.89476,0.6099
185.645,17.11206,-0.16147,0.90326,0.60933
188.645,17.20068,-0.16136,0.91421,0.60876
191.645,17.2882,-0.16268,0.92514,0.60817
194.645,17.37528,-0.16333,0.93823,0.60757
197.645,17.46201,-0.16333,0.94824,0.60697
200.645,17.5481,-0.16467,0.95372,0.60635
203.645,17.634,-0.16465,0.96293,0.60572
206.645,17.71981,-0.16465,0.97017,0.60509
209.645,17.80516,-0.1653,0.97788,0.60444
212.645,17.89036,-0.16794,0.9802,0.60379
215.645,17.97496,-0.16794,0.98614,0.60313
218.645,18.05965,-0.16794,0.98979,0.60245
221.645,18.14378,-0.17023,0.98894,0.60177
224.645,18.22789,-0.1721,0.9903,0.60108
227.645,18.31182,-0.17298,0.98878,0.60038
230.645,18.39538,-0.17567,0.98486,0.59967
233.645,18.47899,-0.17956,0.9811,0.59896
236.645,18.5623,-0.18256,0.98049,0.59823
239.645,18.6452,-0.18739,0.97763,0.5975
242.645,18.72805,-0.19252,0.969,0.59676
245.645,18.81108,-0.20105,0.96387,0.59601
248.645,18.89387,-0.19756,0.95903,0.59525
251.645,18.97639,-0.2193,0.95812,0.59448
254.645,19.05866,-0.225,0.94616,0.59371
257.645,19.14111,-0.23683,0.9407,0.59293
260.645,19.22312,-0.24762,0.94505,0.59214
263.645,19.30528,-0.26104,0.92533,0.59134
266.645,19.38731,-0.27857,0.9319,0.59053
269.645,19.46924,-0.29596,0.93086,0.58972
272.645,19.5512,-0.31313,0.92861,0.5889
275.645,19.63308,-0.33351,0.93479,0.58807
278.645,19.71503,-0.35708,0.93882,0.58724
281.645,19.79683,-0.3817,0.94113,0.5864
284.645,19.8786,-0.40868,0.94358,0.58555
287.645,19.96015,-0.43807,0.94659,0.5847
290.645,20.0419,-0.47112,0.94785,0.58384
293.645,20.1238,-0.50824,0.95282,0.58297
296.645,20.20576,-0.54916,0.94616,0.58209
299.645,20.28785,-0.59519,0.94458,0.58121
302.645,20.36975,-0.64425,0.93934,0.58033
305.645,20.45157,-0.69664,0.94594,0.57943
308.645,20.53325,-0.75965,0.94628,0.57853
311.645,20.61496,-0.8256,0.95187,0.57763
314.645,20.69674,-0.90113,0.95519,0.57672
317.645,20.7786,-0.9801,0.96277,0.5758
320.645,20.86049,-1.07094,0.96935,0.57488
323.645,20.94235,-1.16742,0.97611,0.57395
326.645,21.02386,-1.25911,0.98571,0.57302
329.645,21.1056,-1.39071,1.0,0.57208
332.645,21.1879,-1.49847,1.01249,0.57113
335.645,21.27009,-1.62356,1.02985,0.57018
338.645,21.35225,-1.76086,1.04479,0.56923
341.645,21.43441,-1.90488,1.06874,0.56827
344.645,21.51647,-2.0585,1.09145,0.56731
347.645,21.59883,-2.22012,1.11519,0.56634
350.645,21.68113,-2.3928,1.12523,0.56536
353.645,21.76352,-2.57234,1.12497,0.56438
356.645,21.84638,-2.7561,1.09694,0.5634
359.645,21.92921,-2.94156,1.03351,0.56241
362.645,22.01221,-3.11802,0.91955,0.56142
365.645,22.0955,-3.2864,0.75072,0.56043
368.645,22.17916,-3.42627,0.54052,0.55943
371.645,22.26315,-3.535,0.35095,0.55842
374.645,22.3477,-3.60814,0.22049,0.55742
377.645,22.43234,-3.65424,0.1439,0.55641
380.645,22.51695,-3.68124,0.10056,0.55539
383.645,22.6018,-3.70119,0.08565579,0.55437
386.645,22.68668,-3.71833,0.06743722,0.55335
389.645,22.77146,-3.73101,0.06648282,0.55232
392.645,22.85652,-3.74455,0.05406649,0.55129
395.645,22.94164,-3.75506,0.04341816,0.55026
398.645,23.02688,-3.76654,0.03810901,0.54923
401.645,23.11232,-3.7767,0.03032473,0.54819
404.645,23.19804,-3.78414,0.02353033,0.54715
407.645,23.28359,-3.79337,0.01524263,0.5461
410.645,23.36934,-3.80317,0.00754894,0.54506
413.645,23.45502,-3.81002,0.00124937,0.54401
416.645,23.54113,-3.81958,-0.003966708,0.54296
419.645,23.62736,-3.82637,-0.007132227,0.5419
422.645,23.714,-3.83559,-0.01591952,0.54084
425.645,23.80068,-3.84239,-0.02691741,0.53978
428.645,23.88727,-3.84953,-0.02710972,0.53872
431.645,23.97421,-3.85795,-0.03260313,0.53766
434.645,24.06115,-3.86577,-0.03666267,0.53659
437.645,24.1482,-3.87315,-0.04077823,0.53553
440.645,24.2354,-3.8831,-0.04524889,0.53446
443.645,24.32287,-3.89099,-0.04816797,0.53339
446.645,24.4103,-3.89839,-0.05191209,0.53231
449.645,24.498,-3.90591,-0.05525845,0.53124
452.645,24.58592,-3.9134,-0.05859039,0.53016
455.645,24.67399,-3.92132,-0.05715799,0.52909
458.645,24.76216,-3.92834,-0.05803304,0.52801
461.645,24.8505,-3.93458,-0.05819566,0.52693
464.645,24.93906,-3.94168,-0.05749178,0.52585
467.645,25.02771,-3.94929,-0.06275474,0.52476
470.645,25.11672,-3.95522,-0.06047959,0.52368
473.645,25.20571,-3.96118,-0.05491568,0.5226
476.645,25.2952,-3.96763,-0.05047632,0.52151
479.645,25.38469,-3.97501,-0.05022996,0.52043
482.645,25.4742,-3.98078,-0.04924298,0.51934
485.645,25.56404,-3.98485,-0.04700271,0.51825
488.645,25.6539,-3.99094,-0.04623078,0.51717
491.645,25.7441,-3.99486,-0.04438349,0.51608
494.645,25.83425,-3.99986,-0.04257999,0.51499
497.645,25.92464,-4.00667,-0.04841616,0.5139
500.645,26.01521,-4.01149,-0.04642158,0.51281
503.645,26.10599,-4.01624,-0.03756673,0.51172
506.645,26.19667,-4.02112,-0.03685763,0.51063
509.645,26.28792,-4.02535,-0.03547793,0.50954
512.645,26.3791,-4.02965,-0.03889169,0.50846
515.645,26.47045,-4.03343,-0.05138889,0.50737
518.645,26.56193,-4.0382,-0.05370409,0.50628
521.645,26.65349,-4.04062,-0.05019975,0.50519
524.645,26.7453,-4.04358,-0.04413167,0.5041
527.645,26.83714,-4.04822,-0.04122363,0.50301
530.645,26.9291,-4.05105,-0.04173637,0.50193
533.645,27.02119,-4.05582,-0.03985629,0.50084
536.645,27.1135,-4.05707,-0.03469089,0.49975
539.645,27.20591,-4.06141,-0.03327149,0.49867
542.645,27.2985,-4.06289,-0.03536331,0.49758
545.645,27.39123,-4.06437,-0.0337876,0.4965
548.645,27.48398,-4.07009,-0.03686649,0.49542
551.645,27.57702,-4.07155,-0.0384349,0.49434
554.645,27.67008,-4.07392,-0.03769744,0.49325
557.645,27.76325,-4.07548,-0.0376333,0.49217
560.645,27.85649,-4.07886,-0.04564139,0.4911
563.645,27.95011,-4.08013,-0.04589305,0.49002
566.645,28.0437,-4.08143,-0.04887212,0.48894
569.645,28.13747,-4.08271,-0.04592396,0.48787
572.645,28.2313,-4.08631,-0.04424532,0.48679
575.645,28.3252,-4.08871,-0.04265006,0.48572
578.645,28.41925,-4.0935,-0.04202935,0.48465
581.645,28.51332,-4.09347,-0.04309396,0.48358
584.645,28.6076,-4.09481,-0.04286426,0.48251
587.645,28.7019,-4.09729,-0.04043647,0.48145
590.645,28.79638,-4.10005,-0.03790286,0.48038
593.645,28.89115,-4.09924,-0.03649991,0.47932
596.645,28.98596,-4.10179,-0.0371643,0.47826
599.645,29.08107,-4.1027,-0.0389376,0.4772
602.645,29.17615,-4.10487,-0.03984366,0.47614
605.645,29.27103,-4.10633,-0.03925881,0.47509
608.645,29.36607,-4.10795,-0.04094279,0.47404
611.645,29.46143,-4.10797,-0.03734485,0.47298
614.645,29.55698,-4.10928,-0.03365061,0.47194
617.645,29.6527,-4.11146,-0.03370851,0.47089
620.645,29.74861,-4.1132,-0.02893769,0.46984
623.645,29.8444,-4.11324,-0.02709081,0.4688
626.645,29.9404,-4.11455,-0.01966601,0.46776
629.645,30.0361,-4.1173,-0.01517737,0.46672
632.645,30.1324,-4.1173,-0.0167591,0.46569
635.645,30.2287,-4.1173,-0.01079216,0.46466
638.645,30.3249,-4.11993,-0.01269442,0.46362
641.645,30.4215,-4.12124,-0.01024342,0.4626
644.645,30.5176,-4.12124,-0.01094284,0.46157
647.645,30.61458,-4.12265,-0.003591835,0.46055
650.645,30.71133,-4.12256,0.003010138,0.45953
653.645,30.80808,-4.12387,0.008884355,0.45851
656.645,30.90523,-4.12519,0.00906386,0.45749
659.645,31.0023,-4.12673,0.01023543,0.45648
662.645,31.09977,-4.12804,0.01053244,0.45547
665.645,31.1973,-4.12804,0.02166218,0.45446
668.645,31.29474,-4.12804,0.02335722,0.45346
671.645,31.39228,-4.13092,0.03440532,0.45246
674.645,31.48997,-4.1309,0.0302997,0.45146
677.645,31.5877,-4.13221,0.03586946,0.45046
680.645,31.6855,-4.13317,0.02631705,0.44947
683.645,31.7834,-4.13293,0.0459317,0.44848
686.645,31.8813,-4.13287,0.0448599,0.44749
689.645,31.97922,-4.13484,0.04329146,0.44651
692.645,32.0773,-4.13473,0.02139357,0.44553
695.645,32.17515,-4.13758,0.02682975,0.44455
698.645,32.2734,-4.13594,0.02159647,0.44357
701.645,32.37162,-4.1372,0.00279575,0.4426
704.645,32.46999,-4.13989,0.00862785,0.44163
707.645,32.56836,-4.13988,0.01156834,0.44067
710.645,32.66713,-4.1385,0.01635387,0.43971
713.645,32.76567,-4.1412,0.02732532,0.43875
716.645,32.86438,-4.1413,0.01737634,0.43779
719.645,32.963,-4.14121,0.0146876,0.43684
722.645,33.06177,-4.14107,0.00844759,0.43589
725.645,33.16069,-4.14121,0.00303878,0.43494
728.645,33.25953,-4.1429,0.009165966,0.434
730.845,33.33243,-4.14482,0.02282626,0.43331