Folder: fsri_materials_database/01_Data/Cotton_Felt/STA/N2/30K_min (part 2)

File: Cotton_Felt_STA_N2_30KData_210719_R3.csv
##Temp./Â°C,Time/min,Mass loss(subtr.2)/mg,DSC(subtr.2)/(mW/mg),Sensit./(uV/mW)
50.668,10.01,-0.04442,0.01547543,0.6235
53.568,11.5526,-0.04807347,0.0990139,0.62347
56.468,11.9021,-0.05191793,0.16527,0.62342
59.368,12.15358,-0.0536007,0.21237,0.62336
62.268,12.36468,-0.05163263,0.25605,0.62328
65.168,12.54984,-0.0547361,0.29201,0.6232
68.068,12.72209,-0.05835396,0.32687,0.6231
70.968,12.88405,-0.05842298,0.36342,0.62299
73.868,13.0387,-0.06073764,0.39925,0.62286
76.768,13.1879,-0.0617873,0.43243,0.62273
79.668,13.33265,-0.06396449,0.46663,0.62258
82.568,13.47349,-0.06666751,0.49938,0.62242
85.468,13.6099,-0.06689605,0.53407,0.62224
88.368,13.7426,-0.06975114,0.56315,0.62206
91.268,13.87175,-0.07117966,0.59452,0.62186
94.168,13.9979,-0.07491484,0.62318,0.62165
97.068,14.1213,-0.07692552,0.64815,0.62143
99.968,14.24126,-0.07930576,0.67398,0.6212
102.868,14.3587,-0.08150344,0.69469,0.62095
105.768,14.4737,-0.08427148,0.70908,0.6207
108.668,14.5869,-0.08752919,0.71457,0.62043
111.568,14.69795,-0.08937864,0.72123,0.62015
114.468,14.8069,-0.0942525,0.72002,0.61986
117.368,14.91441,-0.09474334,0.72017,0.61956
120.268,15.02006,-0.09618879,0.71023,0.61924
123.168,15.1234,-0.10129,0.70464,0.61892
126.068,15.22564,-0.10131,0.69052,0.61858
128.968,15.32661,-0.10324,0.68818,0.61824
131.868,15.4259,-0.10282,0.66948,0.61788
134.768,15.52387,-0.1032,0.65841,0.61751
137.668,15.62074,-0.10322,0.65221,0.61713
140.568,15.7163,-0.10355,0.64841,0.61674
143.468,15.8112,-0.10494,0.64202,0.61634
146.368,15.9048,-0.10618,0.64609,0.61592
149.268,15.99743,-0.10752,0.64349,0.6155
152.168,16.0897,-0.10683,0.6414,0.61507
155.068,16.1811,-0.10618,0.64454,0.61462
157.968,16.2717,-0.10717,0.64668,0.61417
160.868,16.36145,-0.10717,0.65254,0.61371
163.768,16.45138,-0.10854,0.65826,0.61323
166.668,16.54042,-0.10849,0.66981,0.61275
169.568,16.62892,-0.10841,0.67783,0.61225
172.468,16.71697,-0.10938,0.68504,0.61175
175.368,16.80443,-0.10993,0.69704,0.61123
178.268,16.89131,-0.10902,0.70008,0.61071
181.168,16.97772,-0.10867,0.70425,0.61018
184.068,17.06356,-0.1087,0.71706,0.60963
186.968,17.14891,-0.11002,0.72905,0.60908
189.868,17.2338,-0.11002,0.73801,0.60852
192.768,17.3183,-0.11002,0.74807,0.60795
195.668,17.40239,-0.11138,0.75585,0.60737
198.568,17.486,-0.11133,0.76472,0.60678
201.468,17.5692,-0.11193,0.76255,0.60618
204.368,17.65229,-0.11264,0.77091,0.60557
207.268,17.73507,-0.11396,0.78287,0.60496
210.168,17.8173,-0.11396,0.78936,0.60433
213.068,17.89955,-0.11494,0.78663,0.6037
215.968,17.98153,-0.11495,0.78219,0.60305
218.868,18.06336,-0.11497,0.78469,0.6024
221.768,18.14483,-0.11627,0.78397,0.60174
224.668,18.22608,-0.11759,0.78678,0.60108
227.568,18.30729,-0.1197,0.78306,0.6004
230.468,18.38796,-0.12213,0.7867,0.59972
233.368,18.46865,-0.1235,0.79927,0.59902
236.268,18.5487,-0.12732,0.78693,0.59832
239.168,18.6294,-0.13013,0.79072,0.59762
242.068,18.70982,-0.1324,0.78873,0.5969
244.968,18.79,-0.13546,0.78514,0.59618
247.868,18.87002,-0.14139,0.78196,0.59544
250.768,18.9497,-0.14827,0.78038,0.59471
253.668,19.0295,-0.15549,0.77951,0.59396
256.568,19.10908,-0.1698,0.75928,0.59321
259.468,19.18846,-0.16728,0.76115,0.59245
262.368,19.26791,-0.17794,0.76285,0.59168
265.268,19.347,-0.18819,0.76966,0.5909
268.168,19.42618,-0.19971,0.76923,0.59012
271.068,19.50542,-0.21019,0.77186,0.58933
273.968,19.5845,-0.22501,0.77917,0.58854
276.868,19.66355,-0.23973,0.78004,0.58774
279.768,19.74259,-0.25535,0.79249,0.58693
282.668,19.82181,-0.272,0.79453,0.58611
285.568,19.90106,-0.28799,0.79583,0.58529
288.468,19.9803,-0.30949,0.80125,0.58446
291.368,20.05935,-0.33208,0.81523,0.58363
294.268,20.1386,-0.35841,0.812,0.58279
297.168,20.2179,-0.3838,0.81851,0.58194
300.068,20.29705,-0.41319,0.82701,0.58109
302.968,20.37624,-0.44533,0.84297,0.58023
305.868,20.4554,-0.48216,0.84776,0.57937
308.768,20.5344,-0.52092,0.86168,0.5785
311.668,20.61354,-0.56683,0.87342,0.57762
314.568,20.6925,-0.61476,0.88612,0.57674
317.468,20.77185,-0.6712,0.90305,0.57586
320.368,20.851,-0.72567,0.92278,0.57496
323.268,20.93035,-0.78847,0.94132,0.57407
326.168,21.0096,-0.85398,0.9615,0.57317
329.068,21.08887,-0.92779,0.97545,0.57226
331.968,21.16831,-1.00341,0.99859,0.57135
334.868,21.2477,-1.08549,1.02366,0.57043
337.768,21.3272,-1.17279,1.0542,0.56951
340.668,21.4066,-1.26396,1.09213,0.56858
343.568,21.48629,-1.36312,1.12856,0.56765
346.468,21.56607,-1.46613,1.16663,0.56672
349.368,21.64591,-1.5748,1.19808,0.56578
352.268,21.72565,-1.68817,1.22055,0.56483
355.168,21.80559,-1.80622,1.22939,0.56389
358.068,21.8857,-1.92394,1.20109,0.56293
360.968,21.96611,-2.04111,1.12622,0.56198
363.868,22.04659,-2.15467,0.99886,0.56102
366.768,22.12743,-2.2585,0.80186,0.56005
369.668,22.20861,-2.34365,0.56244,0.55909
372.568,22.28991,-2.41007,0.34159,0.55811
375.468,22.3716,-2.45146,0.17577,0.55714
378.368,22.4531,-2.48015,0.05165424,0.55616
381.268,22.53471,-2.49656,-0.02009036,0.55518
384.168,22.61657,-2.50971,-0.06184573,0.55419
387.068,22.6986,-2.52073,-0.08713634,0.5532
389.968,22.78039,-2.52819,-0.10656,0.55221
392.868,22.86269,-2.5358,-0.12544,0.55122
395.768,22.94494,-2.54218,-0.13462,0.55022
398.668,23.0273,-2.55075,-0.14376,0.54922
401.568,23.10966,-2.55697,-0.1477,0.54822
404.468,23.19236,-2.56351,-0.14889,0.54721
407.368,23.27531,-2.5663,-0.15686,0.5462
410.268,23.35816,-2.5738,-0.16002,0.54519
413.168,23.441,-2.57596,-0.16622,0.54417
416.068,23.5241,-2.5837,-0.16908,0.54316
418.968,23.60742,-2.58725,-0.18172,0.54214
421.868,23.6908,-2.59374,-0.18784,0.54112
424.768,23.77444,-2.58503,-0.19388,0.54009
427.668,23.8579,-2.60939,-0.1917,0.53907
430.568,23.94187,-2.60991,-0.19627,0.53804
433.468,24.02579,-2.61384,-0.20295,0.53701
436.368,24.11003,-2.62062,-0.20515,0.53598
439.268,24.19434,-2.62346,-0.20402,0.53495
442.168,24.2788,-2.62854,-0.20375,0.53391
445.068,24.3633,-2.634,-0.20519,0.53288
447.968,24.44804,-2.6393,-0.20528,0.53184
450.868,24.53291,-2.64433,-0.19707,0.5308
453.768,24.61805,-2.64923,-0.19757,0.52976
456.668,24.70309,-2.65385,-0.19633,0.52872
459.568,24.7886,-2.6578,-0.20118,0.52768
462.468,24.87406,-2.65997,-0.20012,0.52663
465.368,24.95985,-2.66483,-0.20026,0.52559
468.268,25.04563,-2.66882,-0.20182,0.52454
471.168,25.13155,-2.67323,-0.19698,0.52349
474.068,25.21764,-2.67773,-0.20244,0.52244
476.968,25.3039,-2.68204,-0.20207,0.5214
479.868,25.39049,-2.6862,-0.20193,0.52035
482.768,25.477,-2.70007,-0.1994,0.5193
485.668,25.56371,-2.68624,-0.20246,0.51824
488.568,25.65073,-2.69599,-0.19937,0.51719
491.468,25.73775,-2.69872,-0.20085,0.51614
494.368,25.82491,-2.70277,-0.20063,0.51509
497.268,25.91235,-2.70721,-0.20704,0.51404
500.168,26,-2.71045,-0.20428,0.51298
503.068,26.08769,-2.71298,-0.2032,0.51193
505.968,26.17565,-2.70823,-0.21146,0.51088
508.868,26.26347,-2.72189,-0.21002,0.50983
511.768,26.35159,-2.72043,-0.20739,0.50877
514.668,26.4399,-2.72283,-0.20815,0.50772
517.568,26.5283,-2.7258,-0.20495,0.50667
520.468,26.61683,-2.72642,-0.20534,0.50562
523.368,26.7051,-2.72973,-0.20872,0.50456
526.268,26.7942,-2.73145,-0.20466,0.50351
529.168,26.88312,-2.7386,-0.20842,0.50246
532.068,26.97229,-2.72337,-0.20916,0.50141
534.968,27.0616,-2.73812,-0.20446,0.50036
537.868,27.1509,-2.7404,-0.20821,0.49931
540.768,27.24039,-2.74226,-0.21211,0.49826
543.668,27.33,-2.74292,-0.2112,0.49721
546.568,27.41955,-2.7451,-0.21851,0.49617
549.468,27.50951,-2.74775,-0.22014,0.49512
552.368,27.5993,-2.74901,-0.22903,0.49407
555.268,27.6894,-2.75038,-0.24249,0.49303
558.168,27.77962,-2.74972,-0.24126,0.49199
561.068,27.86989,-2.75103,-0.24314,0.49094
563.968,27.96016,-2.75236,-0.24504,0.4899
566.868,28.0507,-2.75499,-0.25115,0.48886
569.768,28.14133,-2.75639,-0.25584,0.48782
572.668,28.23207,-2.75762,-0.25651,0.48678
575.568,28.323,-2.75893,-0.25058,0.48575
578.468,28.4139,-2.75896,-0.25623,0.48471
581.368,28.50514,-2.76156,-0.26487,0.48368
584.268,28.59628,-2.76289,-0.2811,0.48265
587.168,28.68755,-2.76279,-0.27768,0.48162
590.068,28.779,-2.7642,-0.28554,0.48059
592.968,28.8706,-2.7642,-0.29105,0.47956
595.868,28.96235,-2.7656,-0.29457,0.47853
598.768,29.054,-2.76814,-0.30806,0.47751
601.668,29.1458,-2.76946,-0.319,0.47649
604.568,29.2379,-2.76946,-0.32388,0.47547
607.468,29.3299,-2.76946,-0.32587,0.47445
610.368,29.42207,-2.77356,-0.32896,0.47343
613.268,29.5144,-2.77362,-0.33063,0.47242
616.168,29.60675,-2.77208,-0.33195,0.4714
619.068,29.6991,-2.77309,-0.34182,0.47039
621.968,29.7918,-2.77309,-0.35459,0.46938
624.868,29.88448,-2.7744,-0.36558,0.46838
627.768,29.9772,-2.7744,-0.37606,0.46737
630.668,30.0702,-2.77572,-0.38207,0.46637
633.568,30.1631,-2.77671,-0.38254,0.46537
636.468,30.2561,-2.77836,-0.38208,0.46437
639.368,30.3495,-2.7702,-0.39159,0.46338
642.268,30.4425,-2.78488,-0.40914,0.46238
645.168,30.53595,-2.77934,-0.42153,0.46139
648.068,30.6293,-2.78062,-0.43023,0.4604
650.968,30.723,-2.77958,-0.44878,0.45942
653.868,30.81663,-2.7888,-0.46226,0.45843
656.768,30.91048,-2.78186,-0.46336,0.45745
659.668,31.0042,-2.78297,-0.48134,0.45647
662.568,31.09846,-2.78318,-0.49604,0.4555
665.468,31.19257,-2.78314,-0.51174,0.45452
668.368,31.28683,-2.78357,-0.53338,0.45355
671.268,31.38117,-2.78482,-0.5314,0.45258
674.168,31.47545,-2.793,-0.54472,0.45162
677.068,31.5699,-2.78141,-0.53129,0.45065
679.968,31.66439,-2.78625,-0.54678,0.44969
682.868,31.75893,-2.78888,-0.57831,0.44874
685.768,31.85355,-2.78759,-0.59591,0.44778
688.668,31.94831,-2.78757,-0.6027,0.44683
691.568,32.04336,-2.78789,-0.61573,0.44588
694.468,32.13824,-2.78888,-0.6119,0.44493
697.368,32.23322,-2.79052,-0.62062,0.44399
700.268,32.32839,-2.79052,-0.62609,0.44305
703.168,32.4236,-2.79167,-0.64103,0.44211
706.068,32.5186,-2.78921,-0.63492,0.44118
708.968,32.6136,-2.78986,-0.64805,0.44024
711.868,32.70899,-2.79239,-0.65497,0.43931
714.768,32.80418,-2.79171,-0.64989,0.43839
717.668,32.89947,-2.79294,-0.65161,0.43746
720.568,32.99485,-2.79424,-0.67311,0.43654
723.468,33.09028,-2.79557,-0.66294,0.43563
726.368,33.18572,-2.79557,-0.64233,0.43471
729.268,33.28131,-2.79437,-0.63517,0.4338
730.768,33.33197,-2.79425,-0.62939,0.43333