Folder: fsri_materials_database/01_Data/Cotton_Felt/STA/N2/3K_min

Note: 01_Data/README.md
# Materials and Products Database
## 01_Data

Raw data generated from each apparatus are included here in plain-text format. The data is organized first by material, next by the short name of test apparatus used, and where applicable additional filtering by test settings.

### material.json

Each material directory contains a json file of the same name as the material. This file links the data stored in the repository as well as data and graphs produced by the accompanying scripts (__02_Scripts__) to the respective landing page for the material on the front-end website.

File: Cotton_Felt_STA_N2_3KData_210716_R1.csv
##Temp./Â°C,Time/min,Mass loss(subtr.2)/mg,DSC(subtr.2)/(mW/mg),Sensit./(uV/mW)
48.915,10.01667,-0.06833,0.05475835,0.5841
51.815,13.9077,-0.07985332,0.10094,0.58546
54.715,15.44771,-0.08621,0.11624,0.58681
57.615,16.7531,-0.08880813,0.13464,0.58813
60.515,17.94409,-0.08984974,0.14504,0.58943
63.415,19.062,-0.09971755,0.15399,0.59071
66.315,20.13577,-0.103,0.16202,0.59196
69.215,21.1831,-0.10958,0.1687,0.5932
72.115,22.2089,-0.11486,0.17301,0.59441
75.015,23.2192,-0.12076,0.17533,0.5956
77.915,24.21976,-0.12578,0.17778,0.59676
80.815,25.21037,-0.13244,0.17598,0.59791
83.715,26.19604,-0.1347,0.17578,0.59903
86.615,27.173,-0.13996,0.17277,0.60013
89.515,28.1426,-0.14549,0.16787,0.60121
92.415,29.105,-0.14956,0.16485,0.60227
95.315,30.0593,-0.14984,0.15989,0.6033
98.215,31.0071,-0.15444,0.1619,0.60431
101.115,31.9526,-0.15456,0.15545,0.6053
104.015,32.89552,-0.15589,0.15466,0.60627
106.915,33.8345,-0.15411,0.15287,0.60721
109.815,34.7722,-0.15566,0.1491,0.60814
112.715,35.70981,-0.15718,0.14808,0.60904
115.615,36.64763,-0.15784,0.14699,0.60991
118.515,37.5828,-0.15781,0.1456,0.61077
121.415,38.51761,-0.15488,0.14664,0.6116
124.315,39.45215,-0.14995,0.14433,0.61241
127.215,40.3829,-0.15762,0.14498,0.6132
130.115,41.3112,-0.15707,0.14695,0.61397
133.015,42.23919,-0.1555,0.14787,0.61471
135.915,43.1631,-0.15593,0.14643,0.61543
138.815,44.08998,-0.15648,0.14582,0.61613
141.715,45.01037,-0.15682,0.14816,0.6168
144.615,45.92626,-0.15719,0.15019,0.61746
147.515,46.8437,-0.15707,0.15629,0.61809
150.415,47.7588,-0.15641,0.15589,0.6187
153.315,48.67228,-0.15793,0.15736,0.61928
156.215,49.58515,-0.15444,0.15925,0.61985
159.115,50.49637,-0.15948,0.16425,0.62039
162.015,51.40931,-0.15377,0.16707,0.62091
164.915,52.32224,-0.15641,0.16753,0.62141
167.815,53.2324,-0.15411,0.16633,0.62189
170.715,54.1424,-0.15542,0.16841,0.62234
173.615,55.0534,-0.15542,0.17178,0.62277
176.515,55.9623,-0.15441,0.1722,0.62318
179.415,56.87034,-0.15388,0.16851,0.62357
182.315,57.77771,-0.1567,0.17046,0.62393
185.215,58.68649,-0.15597,0.17165,0.62428
188.115,59.59626,-0.15718,0.17426,0.6246
191.015,60.5028,-0.1585,0.17383,0.6249
193.915,61.4086,-0.16273,0.17488,0.62518
196.815,62.3125,-0.16276,0.17634,0.62543
199.715,63.22022,-0.16543,0.17702,0.62567
202.615,64.1269,-0.16814,0.17753,0.62588
205.515,65.03277,-0.17442,0.17643,0.62607
208.415,65.938,-0.17835,0.17837,0.62624
211.315,66.84707,-0.18418,0.18179,0.62639
214.215,67.75488,-0.19162,0.17981,0.62652
217.115,68.66287,-0.20052,0.17732,0.62663
220.015,69.56891,-0.20741,0.18069,0.62671
222.915,70.47239,-0.22268,0.18187,0.62677
225.815,71.37748,-0.23067,0.17977,0.62681
228.715,72.28316,-0.24723,0.17976,0.62684
231.615,73.1897,-0.26338,0.18309,0.62683
234.515,74.09379,-0.27836,0.17647,0.62681
237.415,75.0009,-0.29971,0.17529,0.62677
240.315,75.9071,-0.31789,0.17017,0.62671
243.215,76.81221,-0.34328,0.1734,0.62662
246.115,77.71664,-0.368,0.17095,0.62652
249.015,78.62442,-0.39588,0.17309,0.62639
251.915,79.52967,-0.42939,0.17112,0.62625
254.815,80.43689,-0.46339,0.17152,0.62608
257.715,81.34261,-0.49913,0.16932,0.6259
260.615,82.25019,-0.54296,0.17377,0.62569
263.515,83.15593,-0.5911,0.17569,0.62546
266.415,84.06172,-0.64092,0.17701,0.62521
269.315,84.96676,-0.6999,0.18242,0.62495
272.215,85.87541,-0.76303,0.18532,0.62466
275.115,86.7844,-0.8326,0.1871,0.62435
278.015,87.69465,-0.90719,0.19035,0.62402
280.915,88.60726,-0.98884,0.19558,0.62368
283.815,89.51831,-1.07747,0.20315,0.62331
286.715,90.43128,-1.17081,0.20305,0.62292
289.615,91.3417,-1.27123,0.20365,0.62252
292.515,92.25195,-1.38195,0.20842,0.62209
295.415,93.16342,-1.49553,0.21087,0.62165
298.315,94.07531,-1.61893,0.21242,0.62119
301.215,94.98984,-1.75547,0.21608,0.62071
304.115,95.90234,-1.89526,0.2188,0.6202
307.015,96.81243,-2.04876,0.22029,0.61969
309.915,97.72448,-2.21366,0.22268,0.61915
312.815,98.6396,-2.38698,0.22043,0.61859
315.715,99.55749,-2.56857,0.2187,0.61801
318.615,100.475,-2.75576,0.21303,0.61742
321.515,101.392,-2.9407,0.20545,0.61681
324.415,102.309,-3.11756,0.18638,0.61618
327.315,103.226,-3.27508,0.16479,0.61553
330.215,104.14,-3.40424,0.13817,0.61486
333.115,105.059,-3.49363,0.11901,0.61418
336.015,105.977,-3.55194,0.10572,0.61348
338.915,106.895,-3.59195,0.09854436,0.61276
341.815,107.819,-3.62138,0.09870317,0.61202
344.715,108.739,-3.64116,0.09387299,0.61126
347.615,109.658,-3.66299,0.10134,0.61049
350.515,110.583,-3.67822,0.0986759,0.6097
353.415,111.511,-3.69414,0.10101,0.6089
356.315,112.438,-3.70884,0.10069,0.60807
359.215,113.365,-3.72208,0.09874426,0.60724
362.115,114.2915,-3.72452,0.10072,0.60638
365.015,115.22,-3.74533,0.09690482,0.60551
367.915,116.151,-3.75464,0.09510838,0.60462
370.815,117.077,-3.76646,0.09542566,0.60371
373.715,118.003,-3.77675,0.09516233,0.60279
376.615,118.933,-3.78626,0.09211396,0.60185
379.515,119.8655,-3.79479,0.09149262,0.6009
382.415,120.8,-3.80413,0.0909706,0.59993
385.315,121.734,-3.81481,0.09055068,0.59894
388.215,122.6652,-3.82135,0.08751411,0.59794
391.115,123.595,-3.83059,0.09245412,0.59693
394.015,124.532,-3.83734,0.09285731,0.5959
396.915,125.471,-3.84838,0.09141746,0.59485
399.815,126.405,-3.85767,0.08673387,0.59379
402.715,127.34,-3.86435,0.09495836,0.59271
405.615,128.276,-3.87082,0.08838448,0.59162
408.515,129.212,-3.87972,0.09550692,0.59052
411.415,130.154,-3.87889,0.0956266,0.5894
414.315,131.094,-3.89431,0.09128809,0.58826
417.215,132.032,-3.90242,0.09044015,0.58712
420.115,132.973,-3.91006,0.09156534,0.58595
423.015,133.915,-3.91702,0.09225618,0.58478
425.915,134.854,-3.92499,0.09061222,0.58359
428.815,135.795,-3.93185,0.09493233,0.58238
431.715,136.74,-3.93817,0.09242263,0.58117
434.615,137.689,-3.94417,0.09468225,0.57994
437.515,138.634,-3.95211,0.09345837,0.57869
440.415,139.579,-3.9587,0.09403539,0.57744
443.315,140.527,-3.96428,0.09796484,0.57617
446.215,141.471,-3.97017,0.10239,0.57489
449.115,142.419,-3.97557,0.10517,0.57359
452.015,143.364,-3.98391,0.1033,0.57228
454.915,144.3197,-3.97934,0.10492,0.57096
457.815,145.274,-3.99418,0.10762,0.56963
460.715,146.232,-3.99806,0.10944,0.56829
463.615,147.19,-4.00054,0.11555,0.56693
466.515,148.145,-4.00453,0.12356,0.56556
469.415,149.105,-4.00919,0.12031,0.56418
472.315,150.0608,-4.01177,0.11614,0.56279
475.215,151.016,-4.01471,0.10687,0.56139
478.115,151.968,-4.01737,0.10398,0.55998
481.015,152.931,-4.0233,0.10614,0.55855
483.915,153.891,-4.02691,0.1072,0.55712
486.815,154.854,-4.0312,0.11392,0.55567
489.715,155.814,-4.03349,0.10896,0.55421
492.615,156.775,-4.03711,0.10991,0.55275
495.515,157.7338,-4.04149,0.11101,0.55127
498.415,158.699,-4.0438,0.10919,0.54978
501.315,159.664,-4.04676,0.10702,0.54828
504.215,160.629,-4.04693,0.10617,0.54678
507.115,161.591,-4.04972,0.11016,0.54526
510.015,162.556,-4.05137,0.11273,0.54373
512.915,163.522,-4.05433,0.11515,0.54219
515.815,164.483,-4.05498,0.11397,0.54065
518.715,165.449,-4.05674,0.12546,0.53909
521.615,166.417,-4.05872,0.12367,0.53753
524.515,167.386,-4.06164,0.12631,0.53596
527.415,168.358,-4.06473,0.13595,0.53437
530.315,169.326,-4.06593,0.1364,0.53278
533.215,170.295,-4.06628,0.14276,0.53118
536.115,171.267,-4.0676,0.14099,0.52958
539.015,172.237,-4.06791,0.14277,0.52796
541.915,173.212,-4.07092,0.14536,0.52634
544.815,174.186,-4.0711,0.14014,0.52471
547.715,175.16,-4.0721,0.1454,0.52307
550.615,176.135,-4.07249,0.13966,0.52142
553.515,177.11,-4.08135,0.13815,0.51977
556.415,178.084,-4.07594,0.14198,0.5181
559.315,179.0614,-4.07539,0.14751,0.51644
562.215,180.036,-4.07577,0.14872,0.51476
565.115,181.012,-4.07889,0.15634,0.51308
568.015,181.991,-4.07948,0.17172,0.51139
570.915,182.966,-4.07989,0.16671,0.50969
573.815,183.946,-4.07996,0.16746,0.50799
576.715,184.9252,-4.0812,0.17632,0.50628
579.615,185.908,-4.08251,0.17196,0.50456
582.515,186.885,-4.08351,0.16976,0.50284
585.415,187.869,-4.08317,0.17305,0.50112
588.315,188.8504,-4.08475,0.17453,0.49938
591.215,189.834,-4.08438,0.17811,0.49764
594.115,190.815,-4.08569,0.18644,0.4959
597.015,191.799,-4.08471,0.19064,0.49415
599.915,192.791,-4.08592,0.20334,0.4924
602.815,193.773,-4.08551,0.20287,0.49064
605.715,194.758,-4.08613,0.19569,0.48887
608.615,195.747,-4.08778,0.19458,0.4871
611.515,196.733,-4.08811,0.19287,0.48533
614.415,197.719,-4.08702,0.19329,0.48355
617.315,198.7079,-4.08833,0.18975,0.48177
620.215,199.696,-4.08733,0.18184,0.47998
623.115,200.683,-4.08866,0.18259,0.47819
626.015,201.679,-4.08669,0.19139,0.47639
628.915,202.671,-4.08908,0.19989,0.47459
631.815,203.6611,-4.08762,0.19927,0.47279
634.715,204.657,-4.08787,0.19981,0.47098
637.615,205.651,-4.07779,0.20248,0.46917
640.515,206.6396,-4.08888,0.20378,0.46736
643.415,207.631,-4.09942,0.20383,0.46554
646.315,208.626,-4.08981,0.19581,0.46372
649.215,209.62,-4.08976,0.19488,0.4619
652.115,210.612,-4.09009,0.19443,0.46007
655.015,211.608,-4.09052,0.187,0.45824
657.915,212.601,-4.09152,0.19994,0.45641
660.815,213.5933,-4.09125,0.19296,0.45458
663.715,214.59,-4.09179,0.18672,0.45274
666.615,215.588,-4.09052,0.17811,0.4509
669.515,216.578,-4.09183,0.18607,0.44906
672.415,217.577,-4.09359,0.1859,0.44722
675.315,218.574,-4.08963,0.18714,0.44537
678.215,219.568,-4.09349,0.18355,0.44353
681.115,220.573,-4.09217,0.19577,0.44168
684.015,221.573,-4.09217,0.19727,0.43983
686.915,222.576,-4.09207,0.21031,0.43798
689.815,223.575,-4.09018,0.21102,0.43613
692.715,224.572,-4.09183,0.22009,0.43427
695.615,225.571,-4.09119,0.2433,0.43242
698.515,226.577,-4.09239,0.2473,0.43056
701.415,227.578,-4.09042,0.26431,0.42871
704.315,228.58,-4.09107,0.26409,0.42685
707.215,229.576,-4.09108,0.26134,0.42499
710.115,230.579,-4.08988,0.275,0.42314
713.015,231.5873,-4.09008,0.27792,0.42128
715.915,232.592,-4.09041,0.29206,0.41942
718.815,233.595,-4.09108,0.30796,0.41756
721.715,234.6,-4.08976,0.30564,0.4157
724.615,235.6,-4.09107,0.30454,0.41384
727.515,236.605,-4.09118,0.31211,0.41198
730.415,237.617,-4.09173,0.31655,0.41012
733.315,238.621,-4.09251,0.3191,0.40827
736.215,239.625,-4.09235,0.32743,0.40641
739.115,240.627,-4.09207,0.34546,0.40455
742.015,241.638,-4.09228,0.35485,0.4027
744.915,242.645,-4.0925,0.35364,0.40084
746.815,243.303,-4.09513,0.35419,0.39962