Folder: fsri_materials_database/01_Data/Wood_Stud/Cone (part 5)

File: Wood_Stud_Cone_HF75Scan_221004_R3.csv
Names,Time,Stack TC,Smoke TC,Exh Press,Smoke Comp,Smoke Meas,CO Meter,CO2 Meter,O2 Meter,Sample Mass,Ext Coeff,Start Test,Flame Verif
Chan Gain,,500,500,1,1,1,1,1,1,1,1,1.0,1.0
Offset,,0,0,0.13786,0,0,0,0,0,0,0,0.0,0.0
Gain,,1,1,25.011,13.9274,292.346,1,1,1,1.00091,1.04463,1.0,1.0
Units,sec,C,C,Pa,%,%,%,%,%,g,/m,,
Baseline,,43.4142,45.3256,150.818,104.408,108.92,-0.000303262,0.0639363,20.9463,-443.724,-0.387438,,
101,25,58.5679,59.7729,135.263,104.003,114.26,0.00424923,0.566281,20.3324,226.065,-0.861857,0.0,0.0
202,50.25,65.3778,68.8296,137.3,104.23,113.368,0.00260776,0.393077,20.5533,222.792,-0.770051,0.0,0.0
303,75.5,65.3772,71.0146,139.496,104.392,116.267,0.00162394,0.340983,20.616,220.109,-0.987246,0.0,0.0
404,100.75,64.873,70.5505,134.97,104.308,117.632,0.00145799,0.309322,20.6532,217.737,-1.10155,0.0,0.0
505,126,64.0615,69.699,137.588,104.235,117.748,0.00142215,0.29222,20.6725,215.505,-1.11701,0.0,0.0
606,151.25,63.067,68.5648,135.614,104.031,118.159,0.00112705,0.273775,20.6998,213.423,-1.16684,0.0,0.0
707,176.5,62.1016,67.3173,143.573,103.719,118.016,0.000631157,0.263859,20.7138,211.482,-1.18333,0.0,0.0
808,201.75,61.7155,66.5621,142.147,103.433,116.812,0.00108187,0.25878,20.7181,209.54,-1.11463,0.0,0.0
909,227,60.9394,65.5184,142.664,103.258,119.381,0.00103018,0.252156,20.7266,207.718,-1.32954,0.0,0.0
1010,252.25,61.172,65.4322,142.612,103.472,118.301,0.000910956,0.251796,20.7248,205.826,-1.22735,0.0,0.0
1111,277.5,60.91,65.1589,144.428,104.149,120.264,0.000855851,0.249567,20.7242,204.055,-1.31829,0.0,0.0
1212,302.75,60.7587,64.883,141.212,104.886,119.658,0.000758558,0.246433,20.7276,202.263,-1.20737,0.0,0.0
1313,328,60.7067,64.5387,141.415,105.112,118.078,0.000963217,0.244461,20.7321,200.502,-1.0659,0.0,0.0
1414,353.25,60.3398,63.9431,144.805,104.863,118.034,0.000476315,0.239848,20.7388,198.74,-1.08418,0.0,0.0
1515,378.5,60.1535,63.8966,139.489,104.501,120.353,0.000771024,0.238338,20.7402,197.038,-1.29421,0.0,0.0
1616,403.75,59.9987,64.0476,139.594,104.184,120.318,0.000852198,0.237153,20.7435,195.337,-1.31934,0.0,0.0
1717,429,59.7065,63.6617,141.995,104.621,118.516,0.000893918,0.234304,20.7444,193.655,-1.1427,0.0,0.0
1818,454.25,59.3279,63.5528,141.503,104.499,118.462,0.000724024,0.230947,20.7486,192.014,-1.14921,0.0,0.0
1919,479.5,59.3167,63.0992,145.346,103.947,118.926,0.000733161,0.229274,20.7523,190.352,-1.23357,0.0,0.0
2020,504.75,59.3891,62.9469,142.41,104.034,118.444,0.000709489,0.226708,20.755,188.701,-1.18873,0.0,0.0
2121,530,58.7511,62.9079,141.442,104.439,119.738,0.000370488,0.224244,20.7587,187.059,-1.25266,0.0,0.0
2222,555.25,58.5665,62.0431,139.848,104.39,119.854,0.000705911,0.221701,20.7624,185.448,-1.26579,0.0,0.0
2323,580.5,58.819,61.9691,140.439,103.838,117.374,0.000819581,0.218682,20.7649,183.877,-1.1228,0.0,0.0
2424,605.75,58.3105,62.021,142.096,103.321,118.284,0.00042713,0.218772,20.7672,182.215,-1.2393,0.0,0.0
2525,631,58.5296,61.9975,144.484,103.236,117.168,0.000428437,0.216726,20.7704,180.654,-1.16004,0.0,0.0
2626,656.25,58.4464,61.71,141.87,103.73,117.445,0.000486884,0.214553,20.7713,179.072,-1.13794,0.0,0.0
2727,681.5,57.9936,61.4003,144.48,104.632,118.301,0.000397167,0.211563,20.7761,177.511,-1.12512,0.0,0.0
2828,706.75,58.1861,61.2499,145.121,105.107,118.926,0.000623305,0.213996,20.7713,175.939,-1.13188,0.0,0.0
2929,732,58.3031,61.6083,142.728,104.85,117.606,0.000524901,0.213123,20.7748,174.378,-1.05199,0.0,0.0
3030,757.25,57.7065,61.5268,141.426,104.458,117.454,0.000672515,0.213554,20.7741,172.787,-1.07447,0.0,0.0
3131,782.5,57.4676,61.4546,143.291,104.174,118.596,0.000953046,0.213568,20.7731,171.195,-1.18815,0.0,0.0
3232,807.75,57.852,61.1944,141.606,104.608,116.473,0.000461983,0.211752,20.7748,169.644,-0.984508,0.0,0.0
3333,833,58.0305,61.4257,149.292,104.42,117.177,0.000278565,0.210786,20.7784,168.072,-1.05623,0.0,0.0
3434,858.25,58.0938,61.6183,140.465,103.869,117.365,0.000406066,0.209995,20.7781,166.571,-1.11937,0.0,0.0
3535,883.5,57.7827,61.0842,144.435,104.289,117.962,0.000403619,0.213739,20.7705,165.019,-1.12891,0.0,0.0
3636,908.75,57.2662,60.8107,142.218,104.461,118.007,0.000627044,0.210752,20.7749,163.508,-1.11734,0.0,0.0
3737,934,57.5377,60.8481,143.129,104.216,117.659,0.000870181,0.210106,20.7753,161.947,-1.11178,0.0,0.0
3838,959.25,57.9883,60.9675,139.986,103.787,117.882,0.000725375,0.210858,20.7732,160.525,-1.16692,0.0,0.0
3939,984.5,57.2916,60.8114,143.357,103.856,118.07,0.000441257,0.210597,20.7726,159.054,-1.1754,0.0,0.0
4040,1009.75,57.4949,60.7482,142.779,104.367,118.382,0.000775801,0.208941,20.7762,157.613,-1.15463,0.0,0.0
4141,1035,57.251,60.9575,141.738,104.226,116.856,0.000670331,0.207472,20.7777,156.161,-1.04817,0.0,0.0
4242,1060.25,57.2004,60.7332,144.417,104.613,119.158,0.000481935,0.206954,20.7767,154.67,-1.19294,0.0,0.0
4343,1085.5,57.7847,61.292,143.666,104.76,118.507,0.000664083,0.207428,20.7815,153.179,-1.12984,0.0,0.0
4444,1110.75,57.7514,61.1689,141.363,104.346,119.854,0.000561367,0.206847,20.783,151.697,-1.26967,0.0,0.0
4545,1136,58.0813,61.7997,138.674,103.471,119.845,0.00057033,0.206204,20.7853,150.256,-1.3462,0.0,0.0
4646,1161.25,57.9286,60.9913,140.342,104.292,118.935,0.000674177,0.206259,20.7869,148.835,-1.20392,0.0,0.0
4747,1186.5,57.9877,61.7032,138.136,104.184,119.488,0.000663939,0.205533,20.7895,147.363,-1.25593,0.0,0.0
4848,1211.75,57.8815,61.7693,140.825,104.306,118.061,0.000627278,0.207937,20.7814,145.982,-1.13508,0.0,0.0
4949,1237,57.7268,61.6017,141.334,104.177,117.302,0.000477979,0.207983,20.7839,144.541,-1.08739,0.0,0.0
5050,1262.25,58.2306,61.5681,142.902,103.792,119.31,0.000444359,0.214495,20.7754,143.03,-1.27681,0.0,0.0
5151,1287.5,58.4422,61.9528,140.677,104.614,119.336,0.000551018,0.212647,20.7775,141.568,-1.2065,0.0,0.0
5252,1312.75,58.034,61.7688,141.002,104.33,117.409,0.000819981,0.214704,20.7748,140.117,-1.0823,0.0,0.0
5353,1338,58.5014,61.8003,144.688,104.801,118.917,0.000323145,0.216454,20.7756,138.646,-1.15792,0.0,0.0
5454,1363.25,58.4421,61.872,144.369,105.036,117.606,0.000288426,0.215252,20.7737,137.154,-1.03577,0.0,0.0
5555,1388.5,58.4594,62.058,146.452,105.103,118.569,0.000640211,0.217305,20.7712,135.703,-1.10472,0.0,0.0
5656,1413.75,58.5843,62.2535,145.501,105.104,117.927,0.000842213,0.219305,20.7706,134.282,-1.05483,0.0,0.0
5757,1439,58.6985,62.6513,140.223,105.026,119.051,0.000680317,0.219677,20.7658,132.76,-1.14858,0.0,0.0
5858,1464.25,58.5607,62.0005,142.617,104.813,119.238,0.000854539,0.221764,20.7641,131.279,-1.18163,0.0,0.0
5959,1489.5,59.187,62.9202,141.299,104.444,119.595,0.000629289,0.219839,20.7693,129.858,-1.24132,0.0,0.0
6060,1514.75,59.32,62.6546,144.011,104.325,117.168,0.000568914,0.221213,20.767,128.476,-1.06385,0.0,0.0
6161,1540,58.91,62.6686,148.008,104.628,117.891,0.000883625,0.224694,20.761,127.025,-1.09369,0.0,0.0
6262,1565.25,59.1631,62.88,143.676,104.566,119.024,0.000432935,0.227155,20.7574,125.564,-1.18677,0.0,0.0
6363,1590.5,59.5487,63.3842,143.289,104.139,116.954,0.000767141,0.230888,20.7519,124.142,-1.06349,0.0,0.0
6464,1615.75,59.6891,63.8138,139.727,103.886,116.062,0.000495406,0.23478,20.7484,122.631,-1.01556,0.0,0.0
6565,1641,60.0633,63.5966,143.79,104.226,117.311,0.000740426,0.238058,20.7429,121.17,-1.08378,0.0,0.0
6666,1666.25,60.1791,64.3589,143.666,104.532,118.078,0.000617255,0.244086,20.7429,119.668,-1.11666,0.0,0.0
6767,1691.5,60.6866,64.5353,145.4,104.402,118.489,0.000644307,0.246646,20.7355,118.177,-1.15982,0.0,0.0
6868,1716.75,61.1827,65.207,143.949,103.76,117.641,0.000682336,0.251119,20.7311,116.566,-1.15054,0.0,0.0
6969,1742,62.2186,66.0505,145.823,103.283,117.454,0.000611273,0.256594,20.7232,115.024,-1.17819,0.0,0.0
7070,1767.25,62.1022,66.0636,141.973,103.606,119.684,0.000811264,0.267089,20.7121,113.283,-1.32195,0.0,0.0
7171,1792.5,62.8486,66.6021,142.788,104.548,119.988,0.00100298,0.269623,20.7068,111.551,-1.26218,0.0,0.0
7272,1817.75,63.4194,67.5892,139.152,105.09,120.577,0.000678045,0.273091,20.7035,109.809,-1.25963,0.0,0.0
7373,1843,63.6329,68.0047,141.773,105.045,120.148,0.000957655,0.282289,20.69,108.008,-1.23096,0.0,0.0
7474,1868.25,64.3414,68.8945,139.006,104.572,121.299,0.00148212,0.289926,20.6843,106.196,-1.35975,0.0,0.0
7575,1893.5,64.9038,68.9694,142.125,104.383,119.158,0.00123862,0.294727,20.6775,104.274,-1.2131,0.0,0.0
7676,1918.75,65.5247,69.5162,138.262,104.591,120.229,0.00104616,0.303546,20.6676,102.263,-1.27676,0.0,0.0
7777,1944,66.182,70.7643,138.842,103.822,118.328,0.00103208,0.308974,20.6603,100.251,-1.19846,0.0,0.0
7878,1969.25,66.9326,71.2254,137.678,104.018,120.737,0.00124396,0.318549,20.647,98.229,-1.36581,0.0,0.0
7979,1994.5,67.4638,72.1244,138.243,104.399,121.21,0.000574329,0.316642,20.6472,96.2572,-1.36814,0.0,0.0
8080,2019.75,67.1775,71.891,135.739,104.526,119.212,0.00150221,0.303253,20.6627,94.3054,-1.20469,0.0,0.0
8181,2045,66.5879,70.9631,139.482,104.483,120.113,0.000857155,0.29097,20.6783,92.4838,-1.27746,0.0,0.0
8282,2070.25,65.8979,70.41,140.724,104.246,118.81,0.00105726,0.271636,20.6942,90.9224,-1.19836,0.0,0.0
8383,2095.5,64.0018,68.4411,140.426,103.777,115.58,0.00096865,0.249564,20.7203,89.431,-0.987089,0.0,0.0
8484,2120.75,62.8066,66.7407,142.181,103.404,116.981,0.00101106,0.221948,20.7509,88.29,-1.13044,0.0,0.0
8585,2146,60.8258,64.742,146.31,103.226,116.82,0.00149902,0.202481,20.7676,87.3391,-1.13365,0.0,0.0
8686,2171.25,58.7957,62.5547,143.41,103.323,115.83,0.00225807,0.188237,20.7842,86.5784,-1.04708,0.0,0.0
8787,2196.5,57.254,60.5077,143.585,103.375,115.313,0.00242253,0.172686,20.8028,85.9479,-1.00138,0.0,0.0
8888,2221.75,55.9276,59.1276,146.046,103.242,115.732,0.00240997,0.169169,20.8072,85.4274,-1.04644,0.0,0.0
8989,2247,54.8381,57.5451,143.793,104.087,116.41,0.00225892,0.157329,20.8228,84.9269,-1.02535,0.0,0.0
9090,2272.25,54.0745,57.0935,144.318,104.331,117.989,0.00226929,0.152343,20.8305,84.4665,-1.1273,0.0,0.0
9191,2297.5,52.9813,55.4696,147.709,104.555,115.723,0.00262341,0.147781,20.8371,84.0361,-0.929975,0.0,0.0
9292,2322.75,52.3982,55.1672,146.498,104.751,115.741,0.00270433,0.142977,20.8432,83.6458,-0.914232,0.0,0.0
9393,2348,51.7522,53.9424,149.079,104.325,116.267,0.00253681,0.141375,20.8436,83.2854,-0.99318,0.0,0.0
9494,2373.25,51.3697,54.1741,150.391,103.789,115.072,0.00223026,0.139083,20.8501,82.9051,-0.945593,0.0,0.0
9595,2398.5,50.457,53.2407,147.424,103.898,115.339,0.00265738,0.138594,20.8518,82.6048,-0.957281,0.0,0.0
9683,2420.5,50.8453,53.4144,147.536,104.395,115.518,,,,82.2945,-0.927729,0.0,0.0