Folder: fsri_materials_database/01_Data/Wood_Stud/Cone (part 3)

File: Wood_Stud_Cone_HF50Scan_221004_R2.csv
Names,Time,Stack TC,Smoke TC,Exh Press,Smoke Comp,Smoke Meas,CO Meter,CO2 Meter,O2 Meter,Sample Mass,Ext Coeff,Start Test,Flame Verif
Chan Gain,,500,500,1,1,1,1,1,1,1,1,1.0,1.0
Offset,,0,0,0.136221,0,0,0,0,0,0,0,0.0,0.0
Gain,,1,1,25.011,13.9274,292.346,1,1,1,1.00091,1.04463,1.0,1.0
Units,sec,C,C,Pa,%,%,%,%,%,g,/m,,
Baseline,,34.2429,35.56,151.68,104.483,105.848,0.000509548,0.0608702,20.9574,-443.393,-0.118807,,
99,24.5,38.5942,37.5851,126.038,103.538,115.58,0.00415765,0.545077,20.3976,223.623,-1.0082,0.0,0.0
198,49.25,52.8081,54.3899,135.533,103.842,112.895,0.00402445,0.411325,20.547,219.919,-0.765968,0.0,0.0
297,74,55.4626,58.8334,133.047,103.99,113.885,0.0033854,0.348725,20.6204,216.927,-0.832955,0.0,0.0
396,98.75,55.8182,60.2111,138.964,103.371,112.975,0.00281973,0.315061,20.6597,214.354,-0.814134,0.0,0.0
495,123.5,55.3672,59.6196,139.966,102.731,113.983,0.00211736,0.290618,20.6913,211.982,-0.952424,0.0,0.0
594,148.25,53.634,58.2287,140.415,103.304,115.991,0.00194038,0.278637,20.703,209.83,-1.06147,0.0,0.0
693,173,53.3727,57.9576,139.494,104.327,117.677,0.00196112,0.271674,20.7152,207.758,-1.10342,0.0,0.0
792,197.75,53.0701,57.6282,141.547,104.675,118.31,0.00179192,0.269068,20.7176,205.716,-1.12209,0.0,0.0
891,222.5,52.9515,56.5848,143.081,104.342,115.955,0.00179874,0.256368,20.7324,203.715,-0.966969,0.0,0.0
990,247.25,51.5553,56.6308,139.544,103.787,117.418,0.00192357,0.252663,20.7375,201.843,-1.13079,0.0,0.0
1089,272,51.7275,55.6716,141.669,104.251,117.168,0.001802,0.246948,20.7441,199.981,-1.07035,0.0,0.0
1188,296.75,51.0061,55.4471,145.494,103.587,115.464,0.00200747,0.243459,20.7477,198.2,-0.99468,0.0,0.0
1287,321.5,51.0301,54.1865,143.678,103.607,116.08,0.00148352,0.237278,20.7544,196.438,-1.04168,0.0,0.0
1386,346.25,50.5335,53.9965,139.355,103.988,116.829,0.0016834,0.230224,20.761,194.756,-1.06699,0.0,0.0
1485,371,50.3557,53.6068,143.191,103.915,116.651,0.00196459,0.228431,20.7641,193.065,-1.05939,0.0,0.0
1584,395.75,50.0193,53.2266,142.881,103.537,117.186,0.00167532,0.233358,20.7599,191.393,-1.1348,0.0,0.0
1683,420.5,50.2928,53.4881,147.502,102.984,116.267,0.0016156,0.234227,20.7565,189.662,-1.11169,0.0,0.0
1782,445.25,49.956,53.1664,141.147,102.706,115.902,0.00187983,0.234343,20.7573,187.95,-1.10762,0.0,0.0
1881,470,50.2543,53.222,139.914,103.007,115.714,0.00152379,0.231565,20.7609,186.299,-1.06599,0.0,0.0
1980,494.75,50.3751,53.4429,140.363,103.345,117.472,0.00177215,0.229051,20.765,184.647,-1.17408,0.0,0.0
2079,519.5,49.7253,53.0012,144.451,103.66,117.597,0.0016123,0.229033,20.7637,183.036,-1.15589,0.0,0.0
2178,544.25,49.9288,52.931,144.974,103.965,116.25,0.00173712,0.228482,20.768,181.424,-1.02345,0.0,0.0
2277,569,50.104,53.065,144.923,104.001,116.071,0.00143773,0.225877,20.7701,179.753,-1.00619,0.0,0.0
2376,593.75,49.7583,52.5778,143.952,103.948,115.134,0.00149062,0.222932,20.7719,178.181,-0.936542,0.0,0.0
2475,618.5,49.4273,52.3127,148.801,104.039,116.214,0.0020841,0.220329,20.7722,176.62,-1.01405,0.0,0.0
2574,643.25,49.7141,52.0496,138.385,104.273,115.955,0.00183081,0.220192,20.7744,175.039,-0.973055,0.0,0.0
2673,668,49.4144,51.9761,141.824,104.544,117.606,0.00184797,0.224309,20.7693,173.487,-1.07881,0.0,0.0
2772,692.75,49.3995,52.2565,141.703,104.658,118.81,0.00168687,0.229062,20.7648,171.846,-1.16216,0.0,0.0
2871,717.5,49.7857,52.6627,141.241,104.57,117.739,0.00164834,0.231523,20.7617,170.184,-1.08696,0.0,0.0
2970,742.25,49.9628,52.7481,138.239,104.28,116.169,0.00197641,0.229285,20.7636,168.543,-0.989401,0.0,0.0
3069,767,49.8713,52.4114,143.02,103.988,117.106,0.00173361,0.223021,20.7716,166.931,-1.08862,0.0,0.0
3168,791.75,49.322,52.3446,143.886,103.849,115.928,0.00174952,0.21971,20.7744,165.39,-1.00833,0.0,0.0
3267,816.5,49.5567,52.1019,142.946,104.265,116.053,0.00172379,0.217812,20.7775,163.848,-0.981517,0.0,0.0
3366,841.25,49.2107,52.3103,148.258,103.965,117.989,0.0017904,0.217569,20.7762,162.307,-1.15949,0.0,0.0
3465,866,49.5842,52.078,147.184,103.353,116.062,0.00192807,0.221469,20.7734,160.786,-1.06274,0.0,0.0
3564,890.75,49.3936,52.3335,141.736,103.458,116.481,0.00172219,0.219765,20.7748,159.194,-1.08648,0.0,0.0
3663,915.5,49.1062,51.9031,143.008,103.581,114.403,0.00199879,0.213721,20.782,157.663,-0.91056,0.0,0.0
3762,940.25,48.9271,51.6818,143.15,103.741,114.965,0.00196439,0.207777,20.7863,156.232,-0.941381,0.0,0.0
3861,965,48.7803,50.999,143.504,103.854,115.366,0.00196192,0.204106,20.7891,154.81,-0.963269,0.0,0.0
3960,989.75,48.0047,50.9991,139.758,103.83,115.393,0.00218611,0.205691,20.7909,153.429,-0.967533,0.0,0.0
4059,1014.5,47.9476,50.3091,141.498,103.789,114.983,0.00226088,0.208859,20.7853,152.008,-0.938487,0.0,0.0
4158,1039.25,47.8932,50.7357,145.2,103.772,115.946,0.00181183,0.20782,20.7872,150.596,-1.01649,0.0,0.0
4257,1064,47.8803,50.5883,147.43,103.82,115.67,0.00199771,0.207326,20.7864,149.205,-0.990407,0.0,0.0
4356,1088.75,47.6355,50.2327,141.474,103.907,116.116,0.0021319,0.209067,20.7832,147.784,-1.01799,0.0,0.0
4455,1113.5,47.8844,50.963,143.599,103.982,117.026,0.00186361,0.20856,20.7867,146.393,-1.08293,0.0,0.0
4554,1138.25,47.7095,50.4605,142.904,103.988,115.58,0.00209658,0.205942,20.79,145.061,-0.968455,0.0,0.0
4653,1163,47.9711,50.3846,146.542,103.967,114.661,0.00236,0.203686,20.7906,143.7,-0.897182,0.0,0.0
4752,1187.75,47.4703,50.0574,142.982,103.985,115.464,0.00221864,0.202115,20.7947,142.379,-0.959517,0.0,0.0
4851,1212.5,47.4708,49.8053,141.002,103.969,115.732,0.00229941,0.20252,20.7933,141.058,-0.982194,0.0,0.0
4950,1237.25,47.2193,49.6857,142.491,103.976,117.052,0.00218878,0.206792,20.7909,139.727,-1.08555,0.0,0.0
5049,1262,47.615,50.0229,143.438,103.96,115.099,0.00214258,0.204859,20.791,138.365,-0.932689,0.0,0.0
5148,1286.75,47.3714,50.1853,148.369,103.894,115.072,0.00218017,0.206553,20.7916,137.024,-0.936404,0.0,0.0
5247,1311.5,47.8858,50.6723,141.98,103.683,114.956,0.00179527,0.206584,20.7928,135.653,-0.945738,0.0,0.0
5346,1336.25,47.6377,50.6222,142.127,103.39,114.599,0.00201993,0.207649,20.7895,134.292,-0.943166,0.0,0.0
5445,1361,47.7183,50.274,142.603,103.055,114.412,0.00189794,0.207082,20.7908,132.94,-0.957905,0.0,0.0
5544,1385.75,47.9998,50.5239,139.289,102.783,112.708,0.00182128,0.209628,20.7879,131.609,-0.844656,0.0,0.0
5643,1410.5,47.6375,50.1951,143.121,102.654,113.618,0.00223972,0.211863,20.7829,130.248,-0.929872,0.0,0.0
5742,1435.25,47.9021,50.9718,140.992,102.69,115.679,0.00224435,0.213802,20.779,128.917,-1.09137,0.0,0.0
5841,1460,48.1742,50.621,143.822,102.911,112.779,0.00173886,0.217964,20.7787,127.526,-0.839059,0.0,0.0
5940,1484.75,48.9398,51.736,147.736,103.185,114.456,0.00199344,0.219843,20.7771,126.114,-0.949958,0.0,0.0
6039,1509.5,49.0632,51.5444,142.511,103.477,116.722,0.00194527,0.223254,20.7713,124.673,-1.10368,0.0,0.0
6138,1534.25,48.8528,51.6888,142.27,103.826,117.606,0.001723,0.225295,20.7677,123.242,-1.14198,0.0,0.0
6237,1559,49.2948,52.4685,139.702,103.971,116.419,0.00212001,0.227117,20.7662,121.81,-1.03628,0.0,0.0
6336,1583.75,50.1249,52.523,141.04,104.05,117.597,0.00187971,0.229765,20.764,120.299,-1.12147,0.0,0.0
6435,1608.5,49.8191,52.5232,139.822,104.136,118.658,0.00208312,0.232387,20.7615,118.838,-1.19627,0.0,0.0
6534,1633.25,50.0968,53.1414,141.663,104.204,118.533,0.0020599,0.233412,20.7612,117.396,-1.18067,0.0,0.0
6633,1658,50.6861,53.8316,142.231,104.296,117.267,0.00204479,0.241803,20.7506,115.855,-1.0741,0.0,0.0
6732,1682.75,51.179,54.1745,141.476,104.372,117.275,0.00205222,0.249887,20.7409,114.203,-1.06811,0.0,0.0
6831,1707.5,51.7049,54.6537,145.613,104.425,119.176,0.00186734,0.258316,20.7308,112.512,-1.21074,0.0,0.0
6930,1732.25,53.2049,56.1264,141.798,104.463,118.962,0.00176103,0.271142,20.7177,110.68,-1.19094,0.0,0.0
7029,1757,54.391,57.4121,136.47,104.518,118.159,0.00191315,0.284023,20.703,108.809,-1.12408,0.0,0.0
7128,1781.75,54.8668,58.4126,141.306,104.482,119.319,0.00188283,0.285397,20.6983,106.797,-1.21671,0.0,0.0
7227,1806.5,55.329,58.8537,139.815,104.348,116.883,0.00226707,0.287367,20.6941,104.895,-1.03948,0.0,0.0
7326,1831.25,55.2732,59.1997,140.304,104.141,117.133,0.0021769,0.283193,20.6995,102.993,-1.07724,0.0,0.0
7425,1856,55.7437,59.294,141.625,103.974,116.838,0.00224782,0.282325,20.6985,101.132,-1.06889,0.0,0.0
7524,1880.75,56.2892,59.2925,136.723,103.972,118.221,0.00223408,0.288195,20.6878,99.2599,-1.17693,0.0,0.0
7623,1905.5,55.7129,59.4473,138.048,103.939,117.258,0.00239756,0.28779,20.689,97.4183,-1.10482,0.0,0.0
7722,1930.25,56.375,59.6345,139.567,104.15,117.864,0.00288557,0.29075,20.6837,95.6166,-1.13354,0.0,0.0
7821,1955,56.2027,59.3872,138.959,104.32,116.74,0.00338936,0.293659,20.676,93.825,-1.03078,0.0,0.0
7920,1979.75,56.3711,60.1997,140.195,104.402,117.49,0.00309564,0.295119,20.672,92.0434,-1.08222,0.0,0.0
8019,2004.5,56.1424,60.1702,142.522,104.527,116.446,0.00330107,0.270483,20.6962,90.3919,-0.989441,0.0,0.0
8118,2029.25,54.7193,58.2111,142.479,104.634,116.571,0.00372695,0.231091,20.744,89.1207,-0.989955,0.0,0.0
8217,2054,52.1973,55.8336,138.906,104.626,115.83,0.00379411,0.199713,20.7774,88.1398,-0.93223,0.0,0.0
8316,2078.75,49.2412,53.0613,144.745,104.591,115.857,0.00468503,0.179918,20.8038,87.4292,-0.937437,0.0,0.0
8415,2103.5,47.8238,50.7641,145.545,104.538,115.143,0.00524928,0.163991,20.8239,86.7786,-0.885467,0.0,0.0
8514,2128.25,45.822,47.8229,145.91,104.456,114.831,0.00609343,0.15369,20.8368,86.2882,-0.867739,0.0,0.0
8613,2153,44.1795,46.5994,147.415,104.483,114.322,0.00686204,0.150825,20.8387,85.8678,-0.824682,0.0,0.0
8712,2177.75,43.5539,45.6844,145.53,104.603,116.383,0.00708133,0.145603,20.8447,85.4474,-0.977859,0.0,0.0
8811,2202.5,42.9755,44.8709,147.405,104.001,114.305,0.00771877,0.146699,20.8463,85.0671,-0.865658,0.0,0.0
8910,2227.25,42.794,44.7313,153.13,102.66,113.02,0.00757369,0.141441,20.8522,84.6467,-0.880965,0.0,0.0
9009,2252,42.7503,44.2051,147.304,103.847,114.189,0.00784006,0.139924,20.8545,84.2763,-0.869923,0.0,0.0
9108,2276.75,41.3121,43.2824,147.324,103.622,115.179,0.00775844,0.139243,20.8569,83.946,-0.968949,0.0,0.0
9207,2301.5,41.0088,43.1265,148.962,104.257,113.858,0.00812077,0.138776,20.8546,83.5056,-0.807311,0.0,0.0
9306,2326.25,40.6305,41.9561,146.877,103.24,111.682,0.00796065,0.138398,20.8551,83.1453,-0.720213,0.0,0.0
9405,2351,40.2207,42.6699,143.094,103.905,113.653,0.00805859,0.138721,20.8551,82.785,-0.821728,0.0,0.0
9490,2372.25,40.0979,41.9629,145.338,104.045,114.162,,,,82.4647,-0.850277,0.0,0.0

File: Wood_Stud_Cone_HF50Scan_221004_R3.csv
Names,Time,Stack TC,Smoke TC,Exh Press,Smoke Comp,Smoke Meas,CO Meter,CO2 Meter,O2 Meter,Sample Mass,Ext Coeff,Start Test,Flame Verif
Chan Gain,,500,500,1,1,1,1,1,1,1,1,1.0,1.0
Offset,,0,0,0.136221,0,0,0,0,0,0,0,0.0,0.0
Gain,,1,1,25.011,13.9274,292.346,1,1,1,1.00091,1.04463,1.0,1.0
Units,sec,C,C,Pa,%,%,%,%,%,g,/m,,
Baseline,,34.9784,36.3594,151.861,103.603,104.812,0.000524889,0.0638361,20.9507,-443.703,-0.106249,,
107,26.5,43.2901,42.8634,132.856,104.042,110.272,0.00574688,0.510747,20.4192,217.827,-0.532906,0.0,0.0
214,53.25,51.5216,53.5019,137.989,104.046,111.244,0.00443309,0.352402,20.6113,214.554,-0.612988,0.0,0.0
321,80,53.1371,56.9032,142.745,103.612,111.414,0.00307213,0.313909,20.6583,211.772,-0.665239,0.0,0.0
428,106.75,52.6048,56.7949,143.512,102.93,112.074,0.00288757,0.27936,20.7009,209.37,-0.779871,0.0,0.0
535,133.5,51.5346,55.8643,140.257,102.963,112.743,0.00230172,0.255987,20.7297,207.218,-0.831504,0.0,0.0
642,160.25,51.0761,55.062,141.816,103.924,114.492,0.00241518,0.241571,20.7464,205.256,-0.887409,0.0,0.0
749,187,50.3225,54.0921,143.924,104.613,115.696,0.00221625,0.22934,20.7591,203.394,-0.922754,0.0,0.0
856,213.75,49.1852,53.0534,144.623,104.627,117.267,0.00167791,0.226481,20.7618,201.673,-1.04505,0.0,0.0
963,240.5,48.8624,52.5158,144.239,104.156,116.303,0.00191162,0.225834,20.7628,199.931,-1.01083,0.0,0.0
1070,267.25,48.9051,52.4741,144.895,103.804,116.713,0.00183592,0.226181,20.7661,198.26,-1.07408,0.0,0.0
1177,294,48.5258,52.5239,138.05,104.176,115.286,0.00183273,0.223086,20.7687,196.578,-0.928544,0.0,0.0
1284,320.75,48.4679,51.8296,141.915,104.176,117.4,0.00164665,0.218241,20.7712,194.927,-1.09512,0.0,0.0
1391,347.5,48.1546,51.5084,143.882,103.466,114.18,0.00229154,0.216691,20.7749,193.345,-0.902911,0.0,0.0
1498,374.25,47.8736,51.7096,142.266,103.626,115.527,0.00183717,0.217042,20.7749,191.724,-0.996176,0.0,0.0
1605,401,48.3059,51.3194,144.287,103.906,115.259,0.00171924,0.216087,20.774,190.142,-0.950225,0.0,0.0
1712,427.75,48.0924,51.2262,145.626,104.015,115.304,0.0020974,0.216983,20.773,188.541,-0.94418,0.0,0.0
1819,454.5,48.2743,50.7735,146.59,104.072,114.046,0.00180741,0.215599,20.7712,186.959,-0.838642,0.0,0.0
1926,481.25,49.0923,50.9295,145.184,104.018,116,0.00239762,0.217685,20.7707,185.388,-0.999055,0.0,0.0
2033,508,47.8986,50.7755,147.11,103.581,115.384,0.0021069,0.214606,20.7759,183.827,-0.988832,0.0,0.0
2140,534.75,47.939,50.9224,143.136,103.084,113.93,0.00266523,0.21654,20.7747,182.235,-0.916668,0.0,0.0
2247,561.5,48.1984,51.0009,143.87,102.777,113.582,0.0022147,0.216337,20.7762,180.694,-0.915959,0.0,0.0
2354,588.25,48.0912,50.7017,145.887,102.951,115.045,0.00260218,0.21484,20.7765,179.132,-1.01776,0.0,0.0
2461,615,48.079,51.1078,144.252,103.536,115.687,0.00258712,0.213293,20.7774,177.611,-1.01691,0.0,0.0
2568,641.75,48.2692,50.5348,140.913,104.305,115.215,0.0022843,0.21159,20.7828,176.079,-0.911548,0.0,0.0
2675,668.5,47.8807,50.8524,146.22,104.696,116.553,0.00240576,0.207724,20.7885,174.568,-0.98312,0.0,0.0
2782,695.25,47.7724,50.4471,140.936,104.531,115.447,0.00304897,0.208121,20.7862,173.077,-0.910172,0.0,0.0
2889,722,47.2686,50.3791,144.926,103.911,115.411,0.00293096,0.205298,20.7889,171.635,-0.961825,0.0,0.0
2996,748.75,47.1144,50.2622,142.868,104.292,114.733,0.00241412,0.201872,20.7955,170.174,-0.874271,0.0,0.0
3103,775.5,47.2517,49.9187,145.304,103.646,115.152,0.00291687,0.201366,20.7955,168.743,-0.964678,0.0,0.0
3210,802.25,47.3524,49.6092,143.088,103.577,114.322,0.00328417,0.201429,20.7941,167.252,-0.90454,0.0,0.0
3317,829,46.747,49.1485,142.463,103.928,115.491,0.00343154,0.199787,20.797,165.81,-0.966736,0.0,0.0
3424,855.75,47.4911,49.8054,141.572,104.063,114.537,0.00314469,0.201786,20.7942,164.359,-0.87877,0.0,0.0
3531,882.5,47.0394,49.5071,144.482,103.933,114.92,0.0028526,0.202211,20.7944,162.898,-0.920833,0.0,0.0
3638,909.25,47.0663,49.7337,141.668,103.589,115.09,0.00326097,0.202919,20.7906,161.426,-0.964706,0.0,0.0
3745,936,47.2796,49.7926,142.639,103.222,114.206,0.00304995,0.205285,20.7889,159.975,-0.926615,0.0,0.0
3852,962.75,47.0254,49.5994,140.01,102.973,114.608,0.00334695,0.204438,20.7871,158.524,-0.980984,0.0,0.0
3959,989.5,46.7771,50.0352,149.451,102.835,113.279,0.0035619,0.205388,20.787,157.092,-0.886302,0.0,0.0
4066,1016.25,47.4269,49.9028,147.567,102.74,115.393,0.00359928,0.20316,20.7913,155.711,-1.06429,0.0,0.0
4173,1043,46.885,49.5938,145.385,102.808,115.188,0.0036023,0.204761,20.7888,154.29,-1.04192,0.0,0.0
4280,1069.75,46.9418,49.4181,143.433,103.086,113.314,0.00375372,0.203182,20.7908,152.868,-0.86687,0.0,0.0
4387,1096.5,46.8844,49.781,146.966,103.424,114.777,0.00334891,0.204704,20.791,151.457,-0.954485,0.0,0.0
4494,1123.25,47.3517,49.6306,144.897,103.795,115.83,0.00344993,0.205469,20.7866,150.036,-1.0053,0.0,0.0
4601,1150,47.4137,50.0772,139.506,104.2,114.403,0.00340999,0.205473,20.7864,148.635,-0.855939,0.0,0.0
4708,1176.75,47.766,49.5501,140.718,104.522,115.464,0.0036476,0.205592,20.7878,147.203,-0.912371,0.0,0.0
4815,1203.5,47.7669,50.2389,145.184,104.643,116.624,0.0033255,0.206829,20.7876,145.772,-0.993343,0.0,0.0
4922,1230.25,47.8395,50.4179,143.375,104.688,116.294,0.00308642,0.206239,20.7868,144.391,-0.963425,0.0,0.0
5029,1257,47.7907,50.1429,144.426,104.702,116.758,0.00347889,0.208279,20.7856,142.96,-0.998718,0.0,0.0
5136,1283.75,47.0851,50.1056,147.015,104.633,116.223,0.00320967,0.206176,20.7866,141.578,-0.962637,0.0,0.0
5243,1310.5,47.4376,49.9915,143.658,104.524,116.419,0.00329674,0.203602,20.7906,140.207,-0.987596,0.0,0.0
5350,1337.25,47.4997,50.2013,145.202,104.274,114.849,0.00336216,0.206699,20.7872,138.826,-0.885173,0.0,0.0
5457,1364,47.5659,50.0824,145.212,103.982,113.867,0.00325213,0.204936,20.7893,137.485,-0.832193,0.0,0.0
5564,1390.75,47.0316,50.0937,141.258,103.994,114.403,0.00365665,0.204723,20.7883,136.123,-0.874123,0.0,0.0
5671,1417.5,47.6978,50.0309,141.738,104.304,116.026,0.00322168,0.205656,20.7898,134.792,-0.975968,0.0,0.0
5778,1444.25,47.2513,49.8617,146.041,104.095,114.902,0.00367687,0.203746,20.7932,133.451,-0.905106,0.0,0.0
5885,1471,47.3192,49.7491,143.453,103.414,114.117,0.00343961,0.20127,20.7935,132.12,-0.90249,0.0,0.0
5992,1497.75,46.7837,49.7249,144.012,103.642,115.054,0.00342224,0.201293,20.7933,130.798,-0.957241,0.0,0.0
6099,1524.5,46.4139,49.569,143.917,103.93,115.687,0.00344135,0.200514,20.7949,129.477,-0.982072,0.0,0.0
6206,1551.25,46.7228,49.3829,140.638,104.033,116.258,0.00329147,0.200667,20.7936,128.166,-1.01812,0.0,0.0
6313,1578,47.0472,49.6459,143.014,103.753,114.572,0.00358326,0.203347,20.7941,126.875,-0.908949,0.0,0.0
6420,1604.75,47.3955,50.1137,147.69,103.162,113.466,0.00322082,0.204986,20.7911,125.524,-0.872367,0.0,0.0
6527,1631.5,47.4113,50.1574,143.11,102.794,112.922,0.00318719,0.207516,20.7912,124.193,-0.861063,0.0,0.0
6634,1658.25,47.4685,50.1495,147.47,102.715,113.519,0.0028598,0.210071,20.786,122.851,-0.91653,0.0,0.0
6741,1685,47.9657,50.4682,141.258,102.709,113.395,0.00310009,0.215852,20.7784,121.48,-0.906972,0.0,0.0
6848,1711.75,48.4424,50.953,141.514,102.844,115.687,0.00316638,0.218097,20.7785,120.089,-1.07832,0.0,0.0
6955,1738.5,48.7014,51.219,145.297,103.273,114.421,0.00278611,0.219406,20.7778,118.678,-0.939328,0.0,0.0
7062,1765.25,48.7548,51.5649,142.077,103.853,115.634,0.00281997,0.227455,20.7659,117.216,-0.984653,0.0,0.0
7169,1792,49.7209,52.3209,138.358,104.336,116.767,0.00256243,0.234977,20.756,115.695,-1.03143,0.0,0.0
7276,1818.75,50.3198,53.5064,143.956,104.652,116.696,0.00260199,0.243032,20.7491,114.153,-0.998168,0.0,0.0
7383,1845.5,51.2279,54.0999,139.233,104.597,116.053,0.00248518,0.251195,20.7385,112.512,-0.952352,0.0,0.0
7490,1872.25,51.861,54.9146,142.155,104.158,118.319,0.00254832,0.260671,20.7259,110.78,-1.16818,0.0,0.0
7597,1899,52.7311,56.0088,140.437,103.832,117.275,0.00241834,0.272233,20.7138,108.909,-1.11566,0.0,0.0
7704,1925.75,53.7789,57.227,139.496,104.189,117.838,0.00237004,0.279611,20.7073,107.027,-1.12802,0.0,0.0
7811,1952.5,54.9215,58.3851,138.037,104.3,119.39,0.00200103,0.293536,20.6904,105.005,-1.23824,0.0,0.0
7918,1979.25,56.0696,59.7682,138.458,104.31,121.156,0.00258845,0.307106,20.672,102.893,-1.37193,0.0,0.0
8025,2006,57.4663,61.1155,137.383,103.887,119.988,0.00266277,0.316008,20.6608,100.621,-1.32033,0.0,0.0
8132,2032.75,59.1524,63.0062,135.923,104.669,123.699,0.00228059,0.339254,20.6359,98.289,-1.53072,0.0,0.0
8239,2059.5,60.605,64.8693,135.936,103.12,120.621,0.00288976,0.345579,20.6273,95.8268,-1.4365,0.0,0.0
8346,2086.25,61.2928,65.3946,137.491,103.787,119.997,0.00234748,0.337729,20.633,93.3646,-1.32979,0.0,0.0
8453,2113,60.7074,65.2948,137.241,104.151,120.951,0.00256218,0.311836,20.6603,91.2527,-1.37037,0.0,0.0
8560,2139.75,58.915,63.5111,136.04,104.665,120.612,0.00265816,0.278953,20.6959,89.391,-1.29948,0.0,0.0
8667,2166.5,56.6338,60.924,139.203,103.277,118.132,0.00340677,0.239856,20.7396,88.0097,-1.23143,0.0,0.0
8774,2193.25,53.3078,57.6934,148.723,103.946,118.319,0.00416139,0.204032,20.783,86.8987,-1.18678,0.0,0.0
8881,2220,50.6412,54.1663,144.933,104.552,116.615,0.0059875,0.179305,20.8125,86.0279,-1.00061,0.0,0.0
8988,2246.75,48.2293,51.5901,146.424,103.864,115.75,0.00647904,0.162571,20.8348,85.4374,-0.992865,0.0,0.0
9095,2273.5,46.4643,49.0228,146.76,104,114.867,0.00799173,0.151178,20.8445,84.9069,-0.910683,0.0,0.0
9202,2300.25,45.2971,47.5037,144.594,103.792,114.697,0.00839543,0.156318,20.8351,84.4265,-0.91548,0.0,0.0
9309,2327,43.394,45.4199,143.884,103.598,112.369,0.00849562,0.147433,20.8482,83.936,-0.744697,0.0,0.0
9416,2353.75,43.2234,45.1886,148.534,103.649,111.566,0.00789099,0.147715,20.8459,83.5157,-0.674473,0.0,0.0
9523,2380.5,42.8724,44.5397,149.886,104.228,112.092,0.00858103,0.14657,20.8482,83.0753,-0.666531,0.0,0.0
9630,2407.25,42.2237,44.0627,147.731,103.986,111.905,0.00795512,0.144092,20.8499,82.6849,-0.672489,0.0,0.0
9737,2434,41.7267,43.5858,143.449,104.561,111.833,0.0082764,0.143551,20.8534,82.3146,-0.616143,0.0,0.0
9844,2460.75,41.0957,42.3308,145.898,104.67,113.109,0.00833916,0.142353,20.854,81.9042,-0.710558,0.0,0.0
9951,2487.5,40.2924,42.1785,142.954,104.68,113.591,0.00818614,0.140419,20.856,81.5439,-0.748576,0.0,0.0
10058,2514.25,40.0102,41.6661,147.021,104.665,111.771,0.00814668,0.139479,20.8577,81.1936,-0.601942,0.0,0.0
10165,2541,39.9968,41.8383,148.005,104.613,111.717,0.00829197,0.137951,20.8587,80.8232,-0.602093,0.0,0.0
10269,2567,39.6158,41.4226,149.637,104.586,111.057,,,,80.4629,-0.550125,0.0,0.0

File: Wood_Stud_Cone_HF75Scalar_221004_R1.csv
LABORATORY,FSRI
TEST IDENT,Wood_Stud_HF75_1
OPERATOR,Dow
MATERIAL,Wood stud
ORIENTATION,Horizontal
HEAT FLUX,75
SURF AREA,0.01
C FACTOR,0.0389731
SPEC HOLDER DIFF,-566
SPECIMEN MASS,166.93
SCAN TIME,0.25
O2 DELAY TIME,11
CO DELAY TIME,11
CO2 DELAY TIME,8
FLOW FACTOR,1
SCAN COUNT,8148
TIME TO IGN,7.25
END OF TEST SCAN,7668
END OF TEST TIME,1917
TEST STATUS,1
PRE TEST CMT,Dimensions: 101.16 x 101.81 x 38.12 mm; sample composed of 2 with seam on center

File: Wood_Stud_Cone_HF75Scalar_221004_R2.csv
LABORATORY,FSRI
TEST IDENT,Wood_Stud_HF75_2
OPERATOR,Dow
MATERIAL,Wood stud
ORIENTATION,Horizontal
HEAT FLUX,75
SURF AREA,0.01
C FACTOR,0.039055
SPEC HOLDER DIFF,-566
SPECIMEN MASS,174.38
SCAN TIME,0.25
O2 DELAY TIME,11
CO DELAY TIME,11
CO2 DELAY TIME,8
FLOW FACTOR,1
SCAN COUNT,8637
TIME TO IGN,5.75
END OF TEST SCAN,8157
END OF TEST TIME,2039.25
TEST STATUS,1
PRE TEST CMT,Dimensions: 101.30 x 101.74 x 38.06 mm; sample composed of 2 pieces with seam on center

File: Wood_Stud_Cone_HF75Scalar_221004_R3.csv
LABORATORY,FSRI
TEST IDENT,Wood_Stud_HF75_3
OPERATOR,Dow
MATERIAL,Wood stud
ORIENTATION,Horizontal
HEAT FLUX,75
SURF AREA,0.01
C FACTOR,0.039055
SPEC HOLDER DIFF,-566
SPECIMEN MASS,178.29
SCAN TIME,0.25
O2 DELAY TIME,11
CO DELAY TIME,11
CO2 DELAY TIME,8
FLOW FACTOR,1
SCAN COUNT,9683
TIME TO IGN,6.25
END OF TEST SCAN,9203
END OF TEST TIME,2300.75
TEST STATUS,1
PRE TEST CMT,Dimensions: 101.32 x 101.02 x 37.89 mm; sample composed of 2 pieces with seam on center