Folder: fsri_materials_database/01_Data/Wood_Stud/Cone (part 4)

File: Wood_Stud_Cone_HF75Scan_221004_R1.csv
Names,Time,Stack TC,Smoke TC,Exh Press,Smoke Comp,Smoke Meas,CO Meter,CO2 Meter,O2 Meter,Sample Mass,Ext Coeff,Start Test,Flame Verif
Chan Gain,,500,500,1,1,1,1,1,1,1,1,1.0,1.0
Offset,,0,0,0.136221,0,0,0,0,0,0,0,0.0,0.0
Gain,,1,1,25.011,13.9274,292.346,1,1,1,1.00091,1.04463,1.0,1.0
Units,sec,C,C,Pa,%,%,%,%,%,g,/m,,
Baseline,,40.9191,43.1353,148.263,104.672,111.487,0.00069197,0.0645053,20.9476,-444.195,-0.577827,,
85,21,58.2668,58.6112,124.371,104.067,122.254,0.00736616,0.722557,20.1501,222.301,-1.47586,0.0,0.0
170,42.25,68.4754,71.955,125.654,104.281,120.951,0.00546266,0.534943,20.3913,218.508,-1.3589,0.0,0.0
255,63.5,70.092,76.3159,136.22,104.309,119.256,0.00443216,0.424217,20.5237,215.435,-1.22714,0.0,0.0
340,84.75,69.9932,76.6483,135.51,104.189,119.006,0.003365,0.389309,20.567,212.773,-1.21846,0.0,0.0
425,106,69.0728,75.9292,136.393,104.029,120.086,0.00301028,0.362745,20.5976,210.291,-1.31531,0.0,0.0
510,127.25,68.6773,75.1951,136.145,103.878,121.808,0.00268622,0.355425,20.6038,207.948,-1.45907,0.0,0.0
595,148.5,68.2171,74.9567,134.369,103.767,124.85,0.00248495,0.346805,20.6181,205.636,-1.69492,0.0,0.0
680,169.75,67.9184,74.2212,132.924,103.508,122.905,0.00255155,0.333579,20.634,203.464,-1.57397,0.0,0.0
765,191,66.8915,73.4695,136.253,103.431,122.191,0.00219292,0.314431,20.6582,201.392,-1.52741,0.0,0.0
850,212.25,65.8242,72.2434,132.649,103.444,123.592,0.00224287,0.300202,20.6756,199.441,-1.63069,0.0,0.0
935,233.5,65.6864,71.3504,135.524,103.511,121.362,0.0021862,0.295065,20.6808,197.569,-1.45787,0.0,0.0
1020,254.75,65.003,70.7575,139.014,103.579,121.95,0.0019948,0.288739,20.6885,195.747,-1.4962,0.0,0.0
1105,276,65.0298,70.0697,139.341,103.671,121.567,0.00200273,0.278396,20.7002,193.996,-1.45921,0.0,0.0
1190,297.25,64.1414,69.2205,133.87,103.706,123.521,0.00200273,0.272783,20.7053,192.314,-1.6022,0.0,0.0
1275,318.5,64.1336,68.7286,136.462,103.747,122.86,0.00224558,0.271954,20.705,190.643,-1.54945,0.0,0.0
1360,339.75,63.9583,68.4156,131.983,103.79,123.726,0.0016521,0.271353,20.7093,188.901,-1.61001,0.0,0.0
1445,361,63.5558,67.9828,137.474,103.719,121.04,0.00201342,0.263004,20.7175,187.29,-1.4152,0.0,0.0
1530,382.25,62.9322,67.4231,135.304,103.691,124.404,0.0016898,0.253921,20.7306,185.718,-1.6688,0.0,0.0
1615,403.5,62.8685,66.9881,133.214,103.595,122.744,0.00202192,0.251022,20.7319,184.227,-1.55424,0.0,0.0
1700,424.75,62.6246,66.6227,133.284,103.578,124.904,0.00192011,0.253657,20.7287,182.686,-1.71556,0.0,0.0
1785,446,62.7226,67.0523,134.976,103.557,122.557,0.00163336,0.260547,20.7232,181.064,-1.54363,0.0,0.0
1870,467.25,63.1925,67.5275,134.631,103.543,120.461,0.00192431,0.258602,20.7256,179.503,-1.38679,0.0,0.0
1955,488.5,63.0712,67.1672,135.778,103.489,122.744,0.00166246,0.249265,20.7347,177.991,-1.56368,0.0,0.0
2040,509.75,62.1462,66.7527,138.699,103.445,123.851,0.00209452,0.24513,20.7419,176.52,-1.64978,0.0,0.0
2125,531,62.1799,66.5206,133.905,103.423,122.584,0.00153115,0.245167,20.7415,175.019,-1.55752,0.0,0.0
2210,552.25,62.5377,66.3906,137.496,103.532,121.79,0.00139794,0.247997,20.7382,173.487,-1.48826,0.0,0.0
2295,573.5,62.2134,66.0946,135.886,103.605,122.281,0.00187449,0.254358,20.7288,171.936,-1.51868,0.0,0.0
2380,594.75,63.0313,66.8559,135.536,103.792,124.743,0.00174248,0.255665,20.7274,170.364,-1.68488,0.0,0.0
2465,616,63.2372,66.7737,139.425,103.886,121.049,0.00161312,0.251355,20.7332,168.793,-1.40109,0.0,0.0
2550,637.25,63.0126,66.451,134.291,104.092,124.359,0.00190087,0.24793,20.7386,167.242,-1.63016,0.0,0.0
2635,658.5,63.0804,67.0297,132.548,104.192,122.655,0.00161573,0.247514,20.7386,165.74,-1.49491,0.0,0.0
2720,679.75,62.6038,66.7253,138.915,104.251,123.833,0.00142116,0.246979,20.7413,164.189,-1.57735,0.0,0.0
2805,701,62.7894,66.686,137.14,104.271,122.325,0.00150556,0.245062,20.7404,162.677,-1.46326,0.0,0.0
2890,722.25,62.6012,66.6289,136.607,104.282,123.021,0.00184759,0.245455,20.7426,161.196,-1.51435,0.0,0.0
2975,743.5,62.6366,66.4512,140.403,104.312,125.412,0.00145909,0.244081,20.7435,159.695,-1.68809,0.0,0.0
3060,764.75,62.2628,66.254,137.648,104.283,120.728,0.00150706,0.238633,20.7463,158.233,-1.34187,0.0,0.0
3145,786,61.8838,65.9018,137.732,104.263,121.585,0.00132433,0.23598,20.7515,156.792,-1.40833,0.0,0.0
3230,807.25,61.1336,65.3817,134.521,104.271,122.477,0.00175657,0.234669,20.7522,155.411,-1.47469,0.0,0.0
3315,828.5,61.7502,65.372,135.631,104.262,122.878,0.00148117,0.232865,20.7533,154,-1.50543,0.0,0.0
3400,849.75,61.6074,65.4247,140.46,104.223,122.513,0.00156474,0.233047,20.7539,152.598,-1.48155,0.0,0.0
3485,871,61.684,65.5556,137.452,104.144,123.092,0.00150033,0.235087,20.7524,151.227,-1.53177,0.0,0.0
3570,892.25,61.6227,65.0083,135.994,104.126,122.753,0.00180983,0.236328,20.7508,149.816,-1.50811,0.0,0.0
3655,913.5,61.4375,65.3416,135.816,104.141,123.833,0.00156655,0.235532,20.7521,148.434,-1.58699,0.0,0.0
3740,934.75,62.2454,65.3204,143.896,104.169,122.45,0.00165903,0.232216,20.7559,147.053,-1.48166,0.0,0.0
3825,956,61.3323,65.1206,138.866,104.126,123.155,0.00168162,0.228595,20.7598,145.742,-1.53803,0.0,0.0
3910,977.25,61.2386,64.8376,136.147,104.039,121.826,0.0018432,0.227393,20.7644,144.441,-1.44618,0.0,0.0
3995,998.5,61.1586,64.9824,134.834,103.864,121.469,0.00186297,0.228022,20.7611,143.12,-1.43477,0.0,0.0
4080,1019.75,61.4084,64.8853,137.681,103.807,120.853,0.00164788,0.22825,20.7625,141.848,-1.39324,0.0,0.0
4165,1041,61.3332,65.0321,137,103.825,121.112,0.00186487,0.234481,20.7553,140.497,-1.41122,0.0,0.0
4250,1062.25,61.8263,65.3365,135.402,103.866,121.95,0.00179764,0.238316,20.7512,139.176,-1.47089,0.0,0.0
4335,1083.5,62.1538,65.627,140.992,103.927,122.539,0.00181397,0.240369,20.7478,137.795,-1.50963,0.0,0.0
4420,1104.75,62.277,65.9086,138.481,104.007,122.031,0.00177234,0.244739,20.7475,136.434,-1.46444,0.0,0.0
4505,1126,62.4724,66.1302,136.948,104.108,123.119,0.00183314,0.245778,20.742,135.042,-1.53691,0.0,0.0
4590,1147.25,60.9906,66.4536,137.216,104.268,123.146,0.00149446,0.243497,20.7455,133.661,-1.52481,0.0,0.0
4675,1168.5,62.599,65.9571,139.986,104.342,122.084,0.00184664,0.243943,20.7446,132.29,-1.43904,0.0,0.0
4760,1189.75,62.8053,66.4804,137.277,104.35,122.263,0.00205555,0.244856,20.7441,130.979,-1.45168,0.0,0.0
4845,1211,63.1151,66.8457,134.608,104.339,122.593,0.00194549,0.2478,20.7397,129.607,-1.47732,0.0,0.0
4930,1232.25,63.0457,66.9964,135.353,104.349,122.281,0.00210589,0.252617,20.7342,128.226,-1.45309,0.0,0.0
5015,1253.5,63.0726,67.3844,138.79,104.354,123.253,0.00173402,0.260441,20.7267,126.875,-1.52523,0.0,0.0
5100,1274.75,63.8198,68.0823,134.743,104.387,123.262,0.00201476,0.265912,20.7213,125.364,-1.52302,0.0,0.0
5185,1296,64.5569,68.8773,137.637,104.395,123.753,0.00205743,0.27172,20.7147,123.912,-1.55871,0.0,0.0
5270,1317.25,65.141,69.0984,133.399,104.418,124.805,0.00176963,0.277327,20.7061,122.371,-1.63432,0.0,0.0
5355,1338.5,65.0876,69.6627,131.518,104.49,125.706,0.00230478,0.275263,20.7077,120.94,-1.69394,0.0,0.0
5440,1359.75,65.8329,69.8014,137.254,104.522,123.931,0.00166379,0.279763,20.7028,119.438,-1.56077,0.0,0.0
5525,1381,65.6926,70.0983,138.166,104.569,124.11,0.00220703,0.284202,20.6968,117.897,-1.56982,0.0,0.0
5610,1402.25,66.5939,70.6674,130.497,104.606,126.688,0.00195233,0.290052,20.6886,116.305,-1.75507,0.0,0.0
5695,1423.5,67.1584,71.0965,134.285,104.641,122.245,0.00207502,0.301666,20.675,114.724,-1.42481,0.0,0.0
5780,1444.75,67.7124,72.2984,139.38,104.651,123.824,0.00249327,0.318398,20.6572,113.002,-1.54153,0.0,0.0
5865,1466,68.4042,73.0689,131.326,104.696,123.913,0.00233374,0.325167,20.6476,111.191,-1.54418,0.0,0.0
5950,1487.25,69.4878,74.2018,135.32,104.691,122.994,0.00278694,0.334025,20.6364,109.299,-1.47642,0.0,0.0
6035,1508.5,70.0845,75.1252,133.089,104.709,122.307,0.00240213,0.349883,20.6168,107.367,-1.42353,0.0,0.0
6120,1529.75,71.7448,76.5929,133.328,104.703,123.217,0.0028225,0.364298,20.5996,105.335,-1.49198,0.0,0.0
6205,1551,72.3426,78.0396,132.087,104.712,122.852,0.00295413,0.375293,20.5862,103.173,-1.46396,0.0,0.0
6290,1572.25,73.7426,78.8017,130.271,104.697,126.277,0.00304144,0.372267,20.5875,101.072,-1.71734,0.0,0.0
6375,1593.5,73.8542,78.9955,129.866,104.656,121.487,0.00329686,0.369369,20.5847,99.0197,-1.36648,0.0,0.0
6460,1614.75,73.3975,78.0738,133.357,104.58,120.585,0.00291326,0.337019,20.6211,97.148,-1.30489,0.0,0.0
6545,1636,71.4743,76.6714,133.295,104.5,118.917,0.00292497,0.297342,20.6661,95.5966,-1.1843,0.0,0.0
6630,1657.25,69.0927,74.3451,137.327,104.376,119.265,0.00355571,0.263952,20.7009,94.3254,-1.22196,0.0,0.0
6715,1678.5,66.628,71.8235,135.544,104.169,119.158,0.00442369,0.229656,20.7413,93.3746,-1.23193,0.0,0.0
6800,1699.75,64.7248,69.07,136.233,103.963,120.157,0.00490356,0.211944,20.7564,92.6239,-1.32656,0.0,0.0
6885,1721,62.3938,66.9501,142.759,103.702,120.014,0.00580828,0.199029,20.7689,91.9833,-1.3387,0.0,0.0
6970,1742.25,61.2495,65.0292,140.373,103.425,118.962,0.00715197,0.185947,20.7901,91.3928,-1.28245,0.0,0.0
7055,1763.5,59.7934,63.4752,134.164,103.205,118.319,0.00708026,0.179097,20.7984,90.9124,-1.25236,0.0,0.0
7140,1784.75,59.0285,61.7018,139.851,103.131,120.603,0.00778258,0.173645,20.8022,90.4319,-1.43413,0.0,0.0
7225,1806,58.0621,60.8028,143.015,103.035,117.98,0.00763554,0.166215,20.8122,90.0616,-1.24121,0.0,0.0
7310,1827.25,57.2873,60.1996,141.961,102.947,116.428,0.00834216,0.165997,20.8142,89.6112,-1.12767,0.0,0.0
7395,1848.5,56.8453,59.5242,140.48,102.893,116.856,0.00860353,0.16157,20.8169,89.2709,-1.16608,0.0,0.0
7480,1869.75,56.2362,58.7907,141.673,102.864,117.311,0.00917363,0.160394,20.8205,88.9306,-1.2043,0.0,0.0
7565,1891,55.2906,58.6636,141.179,102.833,116.321,0.00972484,0.158581,20.823,88.5802,-1.12938,0.0,0.0
7650,1912.25,54.9357,57.8735,139.251,102.797,115.768,0.0103043,0.15696,20.8239,88.2399,-1.08889,0.0,0.0
7735,1933.5,53.3392,56.1588,145.637,102.796,115.232,0.0106726,0.155886,20.8286,87.8896,-1.04653,0.0,0.0
7820,1954.75,53.1885,55.936,144.081,102.782,115.134,0.0104583,0.153817,20.8313,87.5893,-1.03997,0.0,0.0
7905,1976,53.203,55.2076,143.05,102.779,114.447,0.0105458,0.151689,20.8339,87.259,-0.985361,0.0,0.0
7990,1997.25,52.4183,55.5252,138.586,102.79,115.072,0.0104394,0.150891,20.8354,86.9788,-1.03424,0.0,0.0
8075,2018.5,52.2141,54.8437,142.226,102.787,115.527,0.010927,0.152364,20.8328,86.6585,-1.07067,0.0,0.0
8148,2036.75,52.4165,54.8527,142.675,102.77,113.323,,,,86.4183,-0.895744,0.0,0.0

File: Wood_Stud_Cone_HF75Scan_221004_R2.csv
Names,Time,Stack TC,Smoke TC,Exh Press,Smoke Comp,Smoke Meas,CO Meter,CO2 Meter,O2 Meter,Sample Mass,Ext Coeff,Start Test,Flame Verif
Chan Gain,,500,500,1,1,1,1,1,1,1,1,1.0,1.0
Offset,,0,0,0.13786,0,0,0,0,0,0,0,0.0,0.0
Gain,,1,1,25.011,13.9274,292.346,1,1,1,1.00091,1.04463,1.0,1.0
Units,sec,C,C,Pa,%,%,%,%,%,g,/m,,
Baseline,,31.2307,32.7419,156.818,104.795,108.031,-0.000161967,0.0651498,20.9451,-443.019,-0.278554,,
90,22.25,50.1105,50.443,134.579,104.353,112.957,0.00613587,0.5807,20.3333,225.975,-0.725989,0.0,0.0
180,44.75,58.8436,61.3442,140.025,104.119,112.654,0.00424271,0.476134,20.4637,222.321,-0.721936,0.0,0.0
270,67.25,61.6833,66.0787,140.661,103.42,113.118,0.00313896,0.39619,20.5529,219.139,-0.821374,0.0,0.0
360,89.75,60.9573,66.7169,137.695,102.986,114.965,0.00223606,0.351287,20.6111,216.466,-1.0083,0.0,0.0
450,112.25,60.3163,66.0322,139.926,103.039,115.803,0.00152854,0.33588,20.6293,213.954,-1.07014,0.0,0.0
540,134.75,60.6195,66.4019,144.765,103.49,118.4,0.001889,0.325206,20.6455,211.562,-1.23329,0.0,0.0
630,157.25,59.7845,65.6812,141.253,104.096,118.774,0.00143842,0.305764,20.6648,209.31,-1.20877,0.0,0.0
720,179.75,59.1516,64.6808,149.411,104.517,122.361,0.00155835,0.302653,20.6699,207.148,-1.44441,0.0,0.0
810,202.25,59.247,64.6194,142.676,104.756,119.515,0.00137078,0.299955,20.675,205.016,-1.2078,0.0,0.0
900,224.75,58.6824,64.2053,144.324,104.873,120.773,0.00134972,0.289132,20.6868,202.954,-1.29349,0.0,0.0
990,247.25,58.8389,63.6291,143.923,104.963,122.111,0.000740687,0.277855,20.6984,200.962,-1.38664,0.0,0.0
1080,269.75,58.2237,63.0308,139.451,105.003,122.343,0.000739672,0.280313,20.6931,199.07,-1.40058,0.0,0.0
1170,292.25,58.6333,63.3222,144.459,104.964,122.744,0.00100212,0.282747,20.6902,197.079,-1.43398,0.0,0.0
1260,314.75,58.606,63.1903,145.33,104.862,123.271,0.000692475,0.27692,20.6972,195.167,-1.4821,0.0,0.0
1350,337.25,59.4686,63.2252,142.498,104.747,122.093,0.000365645,0.275701,20.699,193.265,-1.40413,0.0,0.0
1440,359.75,59.271,63.6432,146.785,104.676,121.406,0.000732501,0.273301,20.7001,191.373,-1.35871,0.0,0.0
1530,382.25,58.9644,63.4031,142.693,104.631,121.727,0.000767618,0.269099,20.7076,189.492,-1.38679,0.0,0.0
1620,404.75,59.1071,62.7716,144.132,104.698,121.942,0.000647446,0.263601,20.7151,187.7,-1.39706,0.0,0.0
1710,427.25,58.8461,62.9589,139.881,104.764,121.727,0.000527194,0.261304,20.717,185.878,-1.37519,0.0,0.0
1800,449.75,58.8404,62.8989,146.523,104.736,122.352,0.000747672,0.263422,20.713,184.157,-1.42457,0.0,0.0
1890,472.25,59.031,62.91,143.04,104.745,121.567,0.000990362,0.260714,20.7145,182.395,-1.3648,0.0,0.0
1980,494.75,58.3765,62.3623,141.376,104.733,121.808,0.000864988,0.256843,20.7199,180.684,-1.38394,0.0,0.0
2070,517.25,58.73,62.799,141.037,104.787,122.718,0.000721058,0.251443,20.7274,179.022,-1.44743,0.0,0.0
2160,539.75,58.6833,62.4908,141.22,104.918,123.137,0.000791141,0.251949,20.731,177.311,-1.46724,0.0,0.0
2250,562.25,58.4422,62.0397,143.434,104.954,123.904,0.00108975,0.254407,20.7296,175.619,-1.52105,0.0,0.0
2340,584.75,59.3019,62.4184,142.874,104.954,122.388,0.000746231,0.253954,20.7282,173.908,-1.40815,0.0,0.0
2430,607.25,59.6521,63.3556,141.827,104.95,121.335,0.00085118,0.251042,20.7335,172.246,-1.32932,0.0,0.0
2520,629.75,59.3282,63.1865,141.809,104.973,120.701,0.000974134,0.248144,20.7366,170.554,-1.27935,0.0,0.0
2610,652.25,59.504,62.626,139.113,104.969,123.173,0.000767386,0.245191,20.7392,168.933,-1.46545,0.0,0.0
2700,674.75,59.2156,63.0416,144.323,104.954,122.62,0.00083016,0.242414,20.7437,167.272,-1.42546,0.0,0.0
2790,697.25,59.495,63.3676,145.979,104.904,122.37,0.000725833,0.241271,20.7444,165.7,-1.41116,0.0,0.0
2880,719.75,59.4124,62.9533,142.991,104.334,122.637,0.000967785,0.241822,20.7429,164.159,-1.4811,0.0,0.0
2970,742.25,59.145,62.6657,146.301,102.968,120.452,0.000996987,0.239094,20.7476,162.577,-1.43707,0.0,0.0
3060,764.75,59.2202,62.4601,139.799,103.688,123.396,0.000732758,0.234894,20.7518,161.076,-1.59454,0.0,0.0
3150,787.25,59.366,62.8525,140.8125,104.031,123.092,0.000830521,0.231099,20.7555,159.545,-1.54173,0.0,0.0
3240,809.75,58.9553,62.5393,140.048,104.585,125.082,0.000801828,0.227736,20.7565,158.073,-1.63996,0.0,0.0
3330,832.25,59.0452,62.494,142.458,104.964,126.581,0.000753438,0.228995,20.7598,156.622,-1.71595,0.0,0.0
3420,854.75,58.9969,62.6307,142.755,102.925,122.12,0.000836425,0.22847,20.7592,155.151,-1.56698,0.0,0.0
3510,877.25,58.9308,62.4179,138.546,104.251,123.012,0.000707924,0.227286,20.7626,153.709,-1.51637,0.0,0.0
3600,899.75,59.106,62.6416,144.312,104.39,123.592,0.000815011,0.226629,20.76,152.268,-1.54723,0.0,0.0
3690,922.25,58.7568,62.1486,143.743,104.305,122.994,0.000722914,0.228509,20.7582,150.857,-1.51026,0.0,0.0
3780,944.75,59.1993,62.7596,139.786,104.006,120.871,0.000568663,0.227435,20.7578,149.415,-1.37701,0.0,0.0
3870,967.25,58.7561,62.364,148.778,104.576,122.281,0.000916589,0.230444,20.7563,148.004,-1.43318,0.0,0.0
3960,989.75,59.0871,62.7489,144.397,103.845,122.477,0.000481426,0.232849,20.7539,146.603,-1.51216,0.0,0.0
4050,1012.25,59.5482,63.252,139.633,104.256,124.788,0.000955606,0.233599,20.7526,145.161,-1.64727,0.0,0.0
4140,1034.75,59.6131,63.2532,140.827,104.625,123.726,0.000687191,0.234666,20.7519,143.71,-1.53657,0.0,0.0
4230,1057.25,60.3188,64.1873,141.319,103.046,121.478,0.00054523,0.237569,20.7495,142.209,-1.50791,0.0,0.0
4320,1079.75,60.3409,63.9352,142.608,103.836,121.647,0.000942869,0.237387,20.7478,140.747,-1.45066,0.0,0.0
4410,1102.25,60.3434,64.2018,141.779,104.415,122.655,0.000601441,0.236523,20.7474,139.296,-1.47534,0.0,0.0
4500,1124.75,60.3396,64.3711,140.643,104.611,122.423,0.000929908,0.237997,20.7485,137.835,-1.44085,0.0,0.0
4590,1147.25,60.4524,64.246,143.21,103.138,119.97,0.00087748,0.238008,20.7471,136.394,-1.38523,0.0,0.0
4680,1169.75,60.7465,64.3005,144.268,103.5,119.667,0.000720596,0.24055,20.7406,134.942,-1.32991,0.0,0.0
4770,1192.25,59.9774,64.2517,146.483,104.208,120.3,0.00101056,0.24477,20.7372,133.491,-1.31585,0.0,0.0
4860,1214.75,60.4408,64.3297,138.456,104.373,119.194,0.000812661,0.247368,20.7347,132.03,-1.2167,0.0,0.0
4950,1237.25,60.8429,64.5511,140.04,103.899,120.122,0.000997531,0.250291,20.7302,130.548,-1.32946,0.0,0.0
5040,1259.75,61.3931,65.2871,142.129,104.11,120.3,0.000569136,0.25213,20.7279,129.057,-1.32449,0.0,0.0
5130,1282.25,61.2714,64.9893,139.94,104.557,120.969,0.00108099,0.253968,20.726,127.576,-1.33601,0.0,0.0
5220,1304.75,61.3355,65.6198,141.961,104.168,120.139,0.000706539,0.257766,20.7209,126.044,-1.30712,0.0,0.0
5310,1327.25,61.4665,65.5936,145.423,104.662,120.862,0.00112189,0.262082,20.7161,124.523,-1.31877,0.0,0.0
5400,1349.75,61.9186,66.4651,140.168,104.954,120.853,0.000827549,0.264936,20.7116,122.951,-1.29253,0.0,0.0
5490,1372.25,62.8259,66.5245,137.604,105.016,120.719,0.00107032,0.271434,20.7035,121.42,-1.277,0.0,0.0
5580,1394.75,62.9129,66.8667,143.217,105.003,120.603,0.000732242,0.275366,20.7024,119.819,-1.26926,0.0,0.0
5670,1417.25,63.7631,67.5973,139.359,105.014,123.414,0.000951863,0.278883,20.6942,118.207,-1.47945,0.0,0.0
5760,1439.75,63.735,67.9169,145.352,105.031,121.727,0.00104658,0.282834,20.6888,116.626,-1.35191,0.0,0.0
5850,1462.25,64.0054,68.2207,140.429,104.997,122.86,0.00130284,0.289975,20.6791,114.954,-1.43974,0.0,0.0
5940,1484.75,64.7549,68.6278,139.072,104.896,120.264,0.00118776,0.300415,20.6658,113.213,-1.25286,0.0,0.0
6030,1507.25,65.1131,69.4404,142.199,104.714,121.246,0.00128663,0.308376,20.6599,111.461,-1.34324,0.0,0.0
6120,1529.75,65.9835,70.3689,135.17,104.416,121.638,0.00125596,0.315457,20.6488,109.589,-1.39893,0.0,0.0
6210,1552.25,67.0786,71.4765,140.473,104.131,121.799,0.00141301,0.325473,20.6395,107.708,-1.43612,0.0,0.0
6300,1574.75,67.2377,71.5709,133.916,104.561,120.773,0.00164039,0.332391,20.6325,105.786,-1.32083,0.0,0.0
6390,1597.25,68.7213,73.1287,139.529,104.17,119.952,0.00193515,0.345359,20.6139,103.824,-1.29267,0.0,0.0
6480,1619.75,68.9906,74.3509,141.024,103.826,120.059,0.00165097,0.360768,20.591,101.702,-1.33111,0.0,0.0
6570,1642.25,70.2085,74.5919,139.163,104.269,120.22,0.00155005,0.357302,20.592,99.6303,-1.30439,0.0,0.0
6660,1664.75,70.1545,75.3473,135.994,104.372,120.291,0.00162643,0.344293,20.602,97.6385,-1.30079,0.0,0.0
6750,1687.25,70.3988,74.6414,142.94,103.899,121.504,0.00186393,0.329825,20.621,95.7668,-1.43435,0.0,0.0
6840,1709.75,69.372,73.977,140.795,103.322,117.356,0.0021611,0.315976,20.6351,94.1153,-1.16702,0.0,0.0
6930,1732.25,68.1955,72.7542,138.911,103.085,118.756,0.00260081,0.297359,20.6576,92.5739,-1.2968,0.0,0.0
7020,1754.75,66.9809,71.4141,144.769,103.362,118.587,0.00261056,0.270044,20.6873,91.2327,-1.25915,0.0,0.0
7110,1777.25,64.5729,68.6881,140.577,103.958,120.585,0.0040467,0.228543,20.73,90.2518,-1.35961,0.0,0.0
7200,1799.75,62.1834,66.4906,144.169,104.495,119.336,0.00516506,0.208161,20.7522,89.5211,-1.21693,0.0,0.0
7290,1822.25,60.2978,63.7923,148.128,104.898,119.952,0.00544871,0.197984,20.767,88.8705,-1.22881,0.0,0.0
7380,1844.75,59.1484,62.4341,143.154,105.002,120.648,0.00606721,0.188169,20.7765,88.31,-1.2728,0.0,0.0
7470,1867.25,57.6747,61.1582,147.252,104.816,119.158,0.0065835,0.183254,20.7802,87.7795,-1.17512,0.0,0.0
7560,1889.75,56.3574,59.2337,145.708,104.48,118.444,0.00668459,0.178049,20.7903,87.2991,-1.14955,0.0,0.0
7650,1912.25,55.5907,58.2589,149.729,104.183,118.364,0.00682904,0.175498,20.7952,86.8587,-1.16943,0.0,0.0
7740,1934.75,55.3026,57.7033,143.467,104.326,116.767,0.00739634,0.171593,20.8013,86.4683,-1.03232,0.0,0.0
7830,1957.25,53.8939,56.295,144.118,104.585,118.462,0.00757969,0.168106,20.8041,86.0379,-1.14172,0.0,0.0
7920,1979.75,54.2853,56.6758,145.825,104.413,116.294,0.00818841,0.166041,20.8075,85.6576,-0.98749,0.0,0.0
8010,2002.25,53.7931,56.427,146.284,104.064,115.152,0.00867183,0.168902,20.8039,85.2472,-0.927814,0.0,0.0
8100,2024.75,53.4317,55.6758,143.869,103.745,115.125,0.00873218,0.167359,20.8043,84.8769,-0.953759,0.0,0.0
8190,2047.25,52.3096,54.8655,143.224,103.991,114.813,0.0093487,0.16496,20.8081,84.5466,-0.90716,0.0,0.0
8280,2069.75,51.9132,54.4492,145.743,104.279,114.67,0.00950081,0.159933,20.8144,84.2163,-0.870439,0.0,0.0
8370,2092.25,51.8267,53.767,147.181,104.362,115.268,0.00969273,0.159135,20.8168,83.886,-0.910765,0.0,0.0
8460,2114.75,51.1631,53.7341,145.078,104.224,115.232,0.00948639,0.158928,20.8176,83.5257,-0.920065,0.0,0.0
8550,2137.25,51.0118,53.7319,143.926,103.742,114.769,0.0103187,0.159412,20.8172,83.1553,-0.925572,0.0,0.0
8637,2159,50.8628,53.5831,149.866,103.27,113.698,,,,82.835,-0.881534,0.0,0.0