Folder: fsri_materials_database/01_Data/Wood_Stud/Cone

Note: 01_Data/README.md
# Materials and Products Database
## 01_Data

Raw data generated from each apparatus are included here in plain-text format. The data is organized first by material, next by the short name of test apparatus used, and where applicable additional filtering by test settings.

### material.json

Each material directory contains a json file of the same name as the material. This file links the data stored in the repository as well as data and graphs produced by the accompanying scripts (__02_Scripts__) to the respective landing page for the material on the front-end website.

File: Wood_Stud_Cone_HF25Scalar_221004_R1.csv
LABORATORY,FSRI
TEST IDENT,Wood_Stud_HF25_1
OPERATOR,Dow
MATERIAL,Wood stud
ORIENTATION,Horizontal
HEAT FLUX,25
SURF AREA,0.01
C FACTOR,0.0396611
SPEC HOLDER DIFF,-566
SPECIMEN MASS,171.46
SCAN TIME,0.25
O2 DELAY TIME,11
CO DELAY TIME,11
CO2 DELAY TIME,8
FLOW FACTOR,1
SCAN COUNT,8726
TIME TO IGN,133
END OF TEST SCAN,8246
END OF TEST TIME,2061.5
TEST STATUS,1
PRE TEST CMT,Dimensions: 100.86 x 101.59 x 37.98 mm; sample composed of 2 pieces with seam on center

File: Wood_Stud_Cone_HF25Scalar_221004_R2.csv
LABORATORY,FSRI
TEST IDENT,Wood_Stud_HF25_2
OPERATOR,Dow
MATERIAL,Wood stud
ORIENTATION,Horizontal
HEAT FLUX,25
SURF AREA,0.01
C FACTOR,0.0396611
SPEC HOLDER DIFF,-566
SPECIMEN MASS,180.71
SCAN TIME,0.25
O2 DELAY TIME,11
CO DELAY TIME,11
CO2 DELAY TIME,8
FLOW FACTOR,1
SCAN COUNT,12628
TIME TO IGN,151.5
END OF TEST SCAN,12148
END OF TEST TIME,3037
TEST STATUS,1
PRE TEST CMT,Dimensions: 101.83 x 101.83 x 38.13 mm; sample composed of 2 pieces with seam on center

File: Wood_Stud_Cone_HF25Scalar_221004_R3.csv
LABORATORY,FSRI
TEST IDENT,Wood_Stud_HF25_3
OPERATOR,Dow
MATERIAL,Wood stud
ORIENTATION,Horizontal
HEAT FLUX,25
SURF AREA,0.01
C FACTOR,0.0389731
SPEC HOLDER DIFF,-566
SPECIMEN MASS,185.58
SCAN TIME,0.25
O2 DELAY TIME,11
CO DELAY TIME,11
CO2 DELAY TIME,8
FLOW FACTOR,1
SCAN COUNT,14016
TIME TO IGN,112.5
END OF TEST SCAN,13536
END OF TEST TIME,3384
TEST STATUS,1
PRE TEST CMT,Dimensions: 101.54 x 101.64 x 38.30 mm; sample composed of pieces with seam on center
POST TEST CMT,"""Ignition Verify"" button malfunctioned, actual ignition time at about 110 - 115 seconds."

File: Wood_Stud_Cone_HF25Scan_221004_R1.csv
Names,Time,Stack TC,Smoke TC,Exh Press,Smoke Comp,Smoke Meas,CO Meter,CO2 Meter,O2 Meter,Sample Mass,Ext Coeff,Start Test,Flame Verif
Chan Gain,,500,500,1,1,1,1,1,1,1,1,1.0,1.0
Offset,,0,0,0.140306,0,0,0,0,0,0,0,0.0,0.0
Gain,,1,1,25.011,14.0162,15.5607,1,1,1,1.0009,1.02981,1.0,1.0
Units,sec,C,C,Pa,%,%,%,%,%,g,/m,,
Baseline,,18.7286,19.4697,159.28,104.838,5.39504,-0.000286681,0.0859206,20.9643,-3.00196,26.8018,,
90,22.25,18.3793,19.0401,157.148,103.605,5.36372,-0.000487834,0.0840523,20.9694,664.83,26.7474,0.0,0.0
180,44.75,18.8721,19.5281,157.115,104.77,5.44207,-0.000529125,0.0869745,20.9662,664.54,26.7174,0.0,0.0
270,67.25,18.929,19.6488,155.57,105.48,5.33808,-0.000142165,0.0861024,20.9693,664.209,26.9527,0.0,0.0
360,89.75,18.9502,19.7944,158.933,105.466,5.32098,0.000399684,0.0861364,20.9704,663.809,26.9804,0.0,0.0
450,112.25,19.1341,20.0799,161.499,105.191,5.32003,0.00124865,0.0872364,20.9698,663.309,26.9585,0.0,0.0
540,134.75,20.1067,20.4663,143.412,104.743,5.72985,0.00258792,0.165221,20.8927,662.608,26.2496,0.0,1.0
630,157.25,34.9263,35.5247,148.305,104.971,5.77734,0.0024368,0.397049,20.6048,659.095,26.1946,0.0,0.0
720,179.75,37.3006,39.0281,143.426,105.211,5.78873,0.000968469,0.295377,20.7269,656.953,26.1975,0.0,0.0
810,202.25,36.2556,38.5741,148.902,105.091,5.75882,0.00100017,0.257038,20.7692,655.211,26.2339,0.0,0.0
900,224.75,34.937,37.5358,151.859,104.789,5.75597,0.00164134,0.233023,20.7998,653.66,26.2124,0.0,0.0
990,247.25,33.7031,36.3408,153.858,104.343,5.75027,0.00225187,0.218582,20.8152,652.329,26.1829,0.0,0.0
1080,269.75,32.967,34.8512,154.631,104.514,5.71703,0.00273213,0.207134,20.8273,651.048,26.25,0.0,0.0
1170,292.25,31.3741,33.5695,149.538,104.65,5.73982,0.00336598,0.199264,20.8393,649.877,26.2258,0.0,0.0
1260,314.75,30.1605,32.8068,153.551,104.695,5.75787,0.00435286,0.192717,20.8451,648.755,26.2013,0.0,0.0
1350,337.25,29.8556,31.7601,151.73,104.59,5.72083,0.00593974,0.185068,20.8518,647.645,26.2505,0.0,0.0
1440,359.75,28.6143,30.6632,153.854,104.265,5.63867,0.00667252,0.181632,20.8543,646.584,26.3531,0.0,0.0
1530,382.25,28.1866,30.3045,157.614,103.909,5.6306,0.00814203,0.177241,20.8603,645.513,26.3351,0.0,0.0
1620,404.75,27.7071,29.9359,151.185,103.58,5.62443,0.00732044,0.178064,20.8573,644.452,26.3165,0.0,0.0
1710,427.25,27.8055,29.1392,154.838,103.384,5.60306,0.00755648,0.175801,20.8593,643.431,26.3337,0.0,0.0
1800,449.75,28.1591,29.4579,155.485,103.237,5.54655,0.00709685,0.178195,20.8552,642.4,26.4124,0.0,0.0
1890,472.25,27.8157,29.1901,153.69,103.219,5.61398,0.00731122,0.178152,20.8571,641.359,26.3017,0.0,0.0
1980,494.75,27.7665,28.7241,151.945,103.311,5.58596,0.00704768,0.177904,20.8585,640.318,26.3549,0.0,0.0
2070,517.25,27.3045,29.0257,152.711,103.465,5.60353,0.00785846,0.173539,20.8635,639.267,26.34,0.0,0.0
2160,539.75,27.3957,28.8334,150.648,103.733,5.60543,0.00715634,0.177968,20.8558,638.236,26.3604,0.0,0.0
2250,562.25,27.4136,28.6364,155.972,103.857,5.60448,0.00712571,0.178489,20.8583,637.255,26.3727,0.0,0.0
2340,584.75,27.4536,29.143,152.788,104.105,5.65767,0.00761596,0.174599,20.8621,636.234,26.3089,0.0,0.0
2430,607.25,27.245,28.9814,158.933,104.523,5.59973,0.00823435,0.17194,20.8691,635.253,26.4381,0.0,0.0
2520,629.75,26.9529,28.503,153.163,104.894,5.6192,0.00737865,0.172265,20.8629,634.262,26.4387,0.0,0.0
2610,652.25,26.8584,28.5683,154.125,105.102,5.66812,0.00870402,0.174904,20.8607,633.272,26.3783,0.0,0.0
2700,674.75,27.0237,28.4036,154.064,104.95,5.67191,0.00789388,0.173652,20.8611,632.301,26.3592,0.0,0.0
2790,697.25,27.2104,28.5132,154.981,103.794,5.69328,0.00778875,0.170133,20.8689,631.4,26.2252,0.0,0.0
2880,719.75,26.9557,28.3339,149.934,103.309,5.59973,0.00938565,0.162117,20.88,630.459,26.3325,0.0,0.0
2970,742.25,28.0098,28.931,149.883,104.616,5.67714,0.00767747,0.168213,20.8738,629.468,26.3221,0.0,0.0
3060,764.75,28.2882,29.4333,152.658,104.674,5.7118,0.00699604,0.171284,20.8719,628.527,26.2721,0.0,0.0
3150,787.25,28.5283,29.604,150.415,104.896,5.74837,0.00681064,0.17222,20.8743,627.516,26.2336,0.0,0.0
3240,809.75,28.3912,29.8711,155.789,104.305,5.71608,0.00667413,0.172915,20.8701,626.516,26.2334,0.0,0.0
3330,832.25,28.3069,30.1737,153.119,103.941,5.64865,0.00593949,0.173673,20.8688,625.505,26.309,0.0,0.0
3420,854.75,28.253,29.911,154.674,104.187,5.69613,0.0066252,0.171746,20.8695,624.524,26.2548,0.0,0.0
3510,877.25,27.8579,29.521,147.203,105.225,5.73365,0.00799776,0.16869,20.8732,623.543,26.2851,0.0,0.0
3600,899.75,28.2019,29.8751,153.374,103.267,5.60021,0.00803405,0.163495,20.8782,622.562,26.3281,0.0,0.0
3690,922.25,28.0309,29.5735,154.838,104.342,5.67429,0.00746067,0.168371,20.8769,621.601,26.3029,0.0,0.0
3780,944.75,28.2612,29.5057,155.392,105.165,5.81153,0.00785898,0.168843,20.8743,620.64,26.158,0.0,0.0
3870,967.25,28.0314,29.8973,152.814,103.314,5.60876,0.00885217,0.164324,20.8793,619.669,26.3184,0.0,0.0
3960,989.75,28.2013,30.0533,153.713,104.442,5.73412,0.00848345,0.17189,20.8718,618.698,26.2169,0.0,0.0
4050,1012.25,28.3799,29.8904,152.587,104.79,5.65957,0.00874498,0.163307,20.8805,617.738,26.3651,0.0,0.0
4140,1034.75,28.0538,29.3828,148.718,105.363,5.7118,0.00843017,0.159359,20.8863,616.767,26.3314,0.0,0.0
4230,1057.25,27.5774,28.6268,154.022,104.303,5.6363,0.00822369,0.159017,20.8855,615.846,26.3602,0.0,0.0
4320,1079.75,27.3771,28.6346,154.347,103.341,5.59688,0.00856143,0.159475,20.8821,614.915,26.3399,0.0,0.0
4410,1102.25,27.0835,28.6621,151.487,104.143,5.61303,0.00873011,0.157613,20.887,614.004,26.3837,0.0,0.0
4500,1124.75,27.223,28.4265,154.25,104.698,5.61303,0.00844589,0.156792,20.885,613.103,26.4318,0.0,0.0
4590,1147.25,26.7374,28.3737,154.012,104.324,5.63582,0.008254,0.156892,20.8833,612.203,26.3628,0.0,0.0
4680,1169.75,27.0536,27.8222,157.258,104.48,5.56317,0.00858171,0.155428,20.8841,611.292,26.4935,0.0,0.0
4770,1192.25,26.1204,28.1824,152.636,105.02,5.61161,0.0081755,0.155214,20.8832,610.391,26.4618,0.0,0.0
4860,1214.75,26.5664,27.9425,157.114,104.726,5.62585,0.00660737,0.160244,20.879,609.52,26.4135,0.0,0.0
4950,1237.25,26.7907,28.0793,156.045,104.552,5.62205,0.00711299,0.161957,20.8761,608.649,26.4046,0.0,0.0
5040,1259.75,27.0313,28.0756,152.887,104.542,5.60021,0.00686349,0.161703,20.8756,607.749,26.4389,0.0,0.0
5130,1282.25,26.8033,28.3117,156.864,104.548,5.57741,0.00704309,0.160464,20.874,606.858,26.4763,0.0,0.0
5220,1304.75,26.7773,28.5522,154.749,104.957,5.62015,0.00712752,0.160752,20.8766,606.007,26.4426,0.0,0.0
5310,1327.25,26.6126,27.8621,155.721,105.001,5.57077,0.00660198,0.161587,20.8751,605.106,26.5262,0.0,0.0
5400,1349.75,27.126,28.2651,157.059,104.803,5.6325,0.00677368,0.163945,20.8712,604.215,26.4095,0.0,0.0
5490,1372.25,26.4737,28.1663,158.339,104.337,5.58264,0.00655909,0.162794,20.8729,603.335,26.4496,0.0,0.0
5580,1394.75,26.5389,28.031,154.431,104.216,5.61873,0.00695615,0.160983,20.8717,602.474,26.3809,0.0,0.0
5670,1417.25,27.1095,28.238,151.86,104.544,5.55842,0.00641061,0.163629,20.871,601.583,26.5068,0.0,0.0
5760,1439.75,27.0474,28.7316,157.34,104.619,5.59119,0.00643057,0.163998,20.8712,600.732,26.4602,0.0,0.0
5850,1462.25,27.1174,28.6674,155.047,103.973,5.55794,0.00680648,0.163779,20.8687,599.851,26.458,0.0,0.0
5940,1484.75,26.9953,27.9628,155.247,103.342,5.53942,0.00681668,0.162328,20.8706,598.991,26.4333,0.0,0.0
6030,1507.25,26.5774,28.0229,153.222,103.666,5.55604,0.00668354,0.162061,20.8714,598.15,26.4344,0.0,0.0
6120,1529.75,26.5776,27.9357,154.061,104.37,5.57789,0.00667124,0.160598,20.873,597.299,26.4601,0.0,0.0
6210,1552.25,26.6447,28.3401,155.423,105.137,5.58074,0.00676122,0.157684,20.8762,596.488,26.5217,0.0,0.0
6300,1574.75,27.1321,28.3253,156.116,105.308,5.68711,0.0068219,0.157326,20.8782,595.688,26.3658,0.0,0.0
6390,1597.25,26.5055,27.8034,152.795,104.622,5.59024,0.00615295,0.157475,20.878,594.887,26.462,0.0,0.0
6480,1619.75,26.2107,27.9445,157.705,105.009,5.60448,0.00670006,0.156995,20.8771,594.076,26.4723,0.0,0.0
6570,1642.25,26.4142,27.5615,156.483,104.115,5.53752,0.00695151,0.153849,20.8819,593.326,26.5036,0.0,0.0
6660,1664.75,25.5697,27.1417,152.93,104.493,5.56792,0.00707468,0.150997,20.8868,592.585,26.487,0.0,0.0
6750,1687.25,25.7896,26.9844,155.481,104.609,5.55225,0.00794321,0.144392,20.8923,591.844,26.5224,0.0,0.0
6840,1709.75,25.6664,26.6155,155.876,103.915,5.55367,0.00778802,0.144173,20.8911,591.094,26.46,0.0,0.0
6930,1732.25,25.0626,26.2265,155.86,103.307,5.46962,0.00764057,0.144201,20.8901,590.353,26.5447,0.0,0.0
7020,1754.75,24.9719,26.071,151.757,103.515,5.48101,0.00778957,0.142351,20.8943,589.632,26.5441,0.0,0.0
7110,1777.25,24.8996,26.317,153.859,104.407,5.5266,0.00739159,0.142093,20.8961,588.932,26.5468,0.0,0.0
7200,1799.75,24.9171,26.0556,155.681,105.27,5.58216,0.00774461,0.141781,20.8973,588.241,26.5308,0.0,0.0
7290,1822.25,24.508,25.7857,156.372,105.208,5.58169,0.0073029,0.140111,20.8989,587.53,26.5262,0.0,0.0
7380,1844.75,24.5332,25.6989,155.757,104.557,5.50666,0.00729842,0.141124,20.897,586.85,26.5924,0.0,0.0
7470,1867.25,24.9344,25.8509,153.276,105.03,5.52708,0.00762714,0.139489,20.9008,586.159,26.5997,0.0,0.0
7560,1889.75,24.7753,25.855,155.863,104.551,5.46914,0.00758196,0.139556,20.8979,585.478,26.6537,0.0,0.0
7650,1912.25,24.2079,25.5342,153.342,104.242,5.47722,0.00751281,0.139088,20.8971,584.798,26.6136,0.0,0.0
7740,1934.75,24.5983,25.4743,154.209,104.491,5.52185,0.00746976,0.138785,20.8995,584.107,26.5618,0.0,0.0
7830,1957.25,23.5414,24.7112,157.332,104.624,5.51853,0.00723974,0.138195,20.9013,583.437,26.5788,0.0,0.0
7920,1979.75,24.464,25.5273,155.762,104.415,5.57836,0.00775686,0.136109,20.9022,582.766,26.4632,0.0,0.0
8010,2002.25,24.4094,25.2313,156.451,103.879,5.46392,0.00725608,0.140122,20.8998,582.105,26.604,0.0,0.0
8100,2024.75,24.308,25.2281,153.851,103.33,5.41406,0.00800791,0.137625,20.9027,581.445,26.639,0.0,0.0
8190,2047.25,23.9786,25.0545,160.143,103.296,5.42498,0.00914537,0.127631,20.9134,580.814,26.6178,0.0,0.0
8280,2069.75,23.1146,23.8691,155.438,103.744,5.41643,0.00923413,0.125684,20.9161,580.194,26.6712,0.0,0.0
8370,2092.25,22.9073,23.8373,157.838,104.4,5.51141,0.00876717,0.127997,20.9161,579.523,26.571,0.0,0.0
8460,2114.75,22.7719,23.7141,154.793,104.954,5.43828,0.00882392,0.128083,20.9089,578.892,26.7395,0.0,0.0
8550,2137.25,22.9854,23.5147,150.839,105.339,5.47057,0.00922544,0.128119,20.9117,578.272,26.7191,0.0,0.0
8640,2159.75,22.4646,23.8682,157.072,105.3,5.45917,0.00853927,0.12795,20.9146,577.661,26.7347,0.0,0.0
8726,2181.25,22.7873,23.4982,151.455,105.013,5.4416,,,,577.051,26.739,0.0,0.0

File: Wood_Stud_Cone_HF25Scan_221004_R2.csv
Names,Time,Stack TC,Smoke TC,Exh Press,Smoke Comp,Smoke Meas,CO Meter,CO2 Meter,O2 Meter,Sample Mass,Ext Coeff,Start Test,Flame Verif
Chan Gain,,500,500,1,1,1,1,1,1,1,1,1.0,1.0
Offset,,0,0,0.140306,0,0,0,0,0,0,0,0.0,0.0
Gain,,1,1,25.011,14.0162,15.5607,1,1,1,1.0009,1.02981,1.0,1.0
Units,sec,C,C,Pa,%,%,%,%,%,g,/m,,
Baseline,,20.2478,21.027,157.767,104.579,5.39114,-0.000586187,0.0820809,20.973,-2.96342,26.7859,,
130,32.25,19.9391,20.9677,155.931,104.561,5.36419,-0.000553595,0.0850646,20.9657,673.818,26.8296,0.0,0.0
260,64.75,20.2087,21.1066,159.437,105.329,5.34283,-0.000166282,0.0877121,20.9638,673.348,26.9317,0.0,0.0
390,97.25,20.2357,21.2564,159.3,104.331,5.264,0.00124708,0.094311,20.9557,672.657,26.98,0.0,0.0
520,129.75,20.7873,20.9177,158.278,103.344,5.16665,0.00192558,0.0918826,20.9602,671.816,27.0628,0.0,0.0
650,162.25,32.2647,31.1269,135.202,103.51,5.75787,0.00336322,0.568826,20.3778,669.024,26.0985,0.0,0.0
780,194.75,39.0076,40.764,148.991,104.02,5.61066,0.00105191,0.32232,20.685,665.421,26.3769,0.0,0.0
910,227.25,37.6832,40.8719,150.363,104.034,5.6325,0.0012619,0.259336,20.7576,662.898,26.343,0.0,0.0
1040,259.75,35.8719,38.4939,150.297,103.548,5.64105,0.00094103,0.240944,20.7789,660.786,26.287,0.0,0.0
1170,292.25,34.7704,37.5715,149.972,103.413,5.67001,0.00134182,0.232043,20.7899,658.785,26.2289,0.0,0.0
1300,324.75,33.6236,36.664,152.212,104.234,5.68616,0.00137578,0.228871,20.7942,656.863,26.2747,0.0,0.0
1430,357.25,33.0691,35.8577,149.737,105.197,5.77401,0.00160432,0.224276,20.8002,655.031,26.2193,0.0,0.0
1560,389.75,32.7115,35.2305,150.64,105.178,5.73175,0.00223397,0.22136,20.801,653.29,26.284,0.0,0.0
1690,422.25,32.4335,34.7271,150.146,104.574,5.68426,0.00247563,0.219801,20.8052,651.558,26.3071,0.0,0.0
1820,454.75,32.4199,34.5444,152.328,104.99,5.74694,0.00303734,0.217491,20.8077,649.847,26.2439,0.0,0.0
1950,487.25,32.0517,33.7681,154.218,104.197,5.67951,0.00411188,0.210006,20.8159,648.195,26.2821,0.0,0.0
2080,519.75,31.257,33.4531,151.646,104.652,5.67334,0.00431196,0.201187,20.8246,646.624,26.3312,0.0,0.0
2210,552.25,31.0457,32.7326,148.672,103.472,5.57741,0.00498642,0.198475,20.8264,645.092,26.3829,0.0,0.0
2340,584.75,30.803,32.3253,151.155,104.171,5.63582,0.00477173,0.197639,20.8278,643.561,26.3495,0.0,0.0
2470,617.25,30.9213,32.7373,153.133,105.327,5.72653,0.00424865,0.198452,20.8226,642.039,26.3051,0.0,0.0
2600,649.75,30.4584,31.8416,150.005,104.84,5.66622,0.00498487,0.195324,20.8287,640.568,26.3588,0.0,0.0
2730,682.25,30.696,32.0458,153.653,104.961,5.63202,0.00372097,0.202418,20.8207,639.047,26.4239,0.0,0.0
2860,714.75,31.2247,32.5379,151.593,104.337,5.59878,0.00321951,0.208221,20.8142,637.435,26.4235,0.0,0.0
2990,747.25,31.0484,33.1416,151.775,104.478,5.66906,0.00289897,0.212898,20.809,635.814,26.323,0.0,0.0
3120,779.75,31.968,33.3895,152.758,103.43,5.64865,0.00264005,0.208699,20.8166,634.192,26.2645,0.0,0.0
3250,812.25,31.5441,32.9901,150.846,103.656,5.67049,0.00293867,0.20594,20.8187,632.591,26.2494,0.0,0.0
3380,844.75,31.809,33.192,155.541,105.006,5.68711,0.00315409,0.202543,20.8218,631.03,26.3398,0.0,0.0
3510,877.25,31.0944,32.5665,157.225,105.238,5.75122,0.00350948,0.200679,20.823,629.518,26.2585,0.0,0.0
3640,909.75,30.8061,32.438,155.558,104.461,5.68664,0.00354846,0.198957,20.8246,627.987,26.2936,0.0,0.0
3770,942.25,30.4551,32.1579,153.459,104.942,5.67096,0.00387445,0.206446,20.8208,626.485,26.3601,0.0,0.0
3900,974.75,30.3391,32.0053,154.451,104.207,5.60733,0.00410579,0.202894,20.8184,624.944,26.3984,0.0,0.0
4030,1007.25,31.0591,32.3258,149.624,104.607,5.69803,0.00392725,0.203799,20.82,623.433,26.2881,0.0,0.0
4160,1039.75,30.4326,31.8771,150.248,104.404,5.59973,0.00427337,0.201693,20.8239,621.901,26.4278,0.0,0.0
4290,1072.25,30.6933,32.2472,153.289,104.045,5.70278,0.00445398,0.203404,20.8197,620.35,26.2319,0.0,0.0
4420,1104.75,30.6385,32.2732,150.608,103.418,5.57694,0.00472122,0.199989,20.8226,618.809,26.3789,0.0,0.0
4550,1137.25,29.9384,31.5248,154.196,103.356,5.66574,0.00497634,0.19481,20.8299,617.267,26.2308,0.0,0.0
4680,1169.75,30.1529,31.7869,151.343,104.384,5.642,0.00579146,0.185021,20.8444,615.766,26.3581,0.0,0.0
4810,1202.25,30.3958,32.103,149.494,104.275,5.7308,0.00639544,0.177877,20.8545,614.244,26.2076,0.0,0.0
4940,1234.75,30.6615,32.0832,152.321,105.227,5.75074,0.00624748,0.177842,20.8568,612.763,26.2583,0.0,0.0
5070,1267.25,30.0545,31.6168,153.308,103.267,5.58929,0.00594453,0.17975,20.8535,611.252,26.3457,0.0,0.0
5200,1299.75,29.921,31.8243,153.281,104.106,5.66669,0.00591529,0.178626,20.8556,609.78,26.2946,0.0,0.0
5330,1332.25,29.5692,31.0929,154.571,105.226,5.70183,0.00614434,0.176887,20.8552,608.299,26.3354,0.0,0.0
5460,1364.75,29.5525,30.9532,152.667,104.613,5.68189,0.00586724,0.174327,20.861,606.868,26.3142,0.0,0.0
5590,1397.25,29.7063,31.0316,150.401,105.128,5.69946,0.00589003,0.173179,20.8645,605.456,26.3307,0.0,0.0
5720,1429.75,30.0594,31.0509,150.275,104.217,5.72273,0.00535431,0.176453,20.8618,604.025,26.2153,0.0,0.0
5850,1462.25,30.1422,31.6953,151.801,104.696,5.71228,0.00540135,0.178274,20.8582,602.554,26.2732,0.0,0.0
5980,1494.75,30.283,31.7579,155.735,104.977,5.73127,0.00601779,0.186616,20.8466,601.103,26.2675,0.0,0.0
6110,1527.25,29.7673,31.2488,151.24,103.419,5.59641,0.0055418,0.182037,20.8497,599.721,26.3475,0.0,0.0
6240,1559.75,29.9471,31.9208,155.935,104.276,5.623,0.00483875,0.187062,20.8443,598.27,26.3792,0.0,0.0
6370,1592.25,30.2398,31.5855,154.007,104.756,5.63107,0.00434438,0.182396,20.8521,596.899,26.4077,0.0,0.0
6500,1624.75,30.2512,31.8464,153.607,104.458,5.65529,0.00524628,0.179224,20.8565,595.517,26.3432,0.0,0.0
6630,1657.25,29.9901,31.608,150.919,104.196,5.59166,0.00558133,0.178361,20.8542,594.126,26.4228,0.0,0.0
6760,1689.75,29.2054,30.7375,154.287,104.098,5.56032,0.0060323,0.177689,20.856,592.745,26.4651,0.0,0.0
6890,1722.25,29.1544,31.0455,152.832,104.305,5.55794,0.00525086,0.177747,20.8538,591.404,26.4869,0.0,0.0
7020,1754.75,29.6464,31.0816,151.626,104.195,5.55415,0.0051202,0.17691,20.8544,590.053,26.4835,0.0,0.0
7150,1787.25,29.3815,30.9012,150.154,104.205,5.60638,0.00534497,0.179082,20.8493,588.721,26.3999,0.0,0.0
7280,1819.75,29.6191,30.8728,152.984,104.519,5.59071,0.00514323,0.184371,20.843,587.42,26.4523,0.0,0.0
7410,1852.25,29.395,31.0651,150.501,104.748,5.67904,0.00523925,0.181328,20.8487,586.069,26.3304,0.0,0.0
7540,1884.75,29.1116,30.6345,152.897,104.671,5.58454,0.00532513,0.183578,20.8413,584.788,26.4754,0.0,0.0
7670,1917.25,28.6952,30.8216,151.902,104.075,5.61018,0.00516289,0.179786,20.8486,583.507,26.3824,0.0,0.0
7800,1949.75,28.8666,30.4591,156.395,103.439,5.53515,0.00476747,0.18229,20.8445,582.185,26.4487,0.0,0.0
7930,1982.25,29.3448,31.1347,148.438,104.595,5.63345,0.00397744,0.183924,20.8438,580.864,26.3901,0.0,0.0
8060,2014.75,28.818,30.5324,148.783,105.365,5.71133,0.00391776,0.188703,20.837,579.593,26.3323,0.0,0.0
8190,2047.25,29.3277,30.8593,151.357,104.904,5.6439,0.00381386,0.191339,20.8349,578.262,26.4,0.0,0.0
8320,2079.75,29.7737,31.3998,155.025,104.289,5.61303,0.00415706,0.192083,20.8345,576.961,26.3964,0.0,0.0
8450,2112.25,29.7079,31.5018,151.864,104.479,5.63013,0.00381606,0.189158,20.8375,575.62,26.3853,0.0,0.0
8580,2144.75,30.0252,31.721,152.039,103.411,5.54322,0.00328587,0.193902,20.834,574.318,26.433,0.0,0.0
8710,2177.25,30.1799,32.0345,148.535,104.959,5.66954,0.0034671,0.192829,20.8331,572.957,26.3638,0.0,0.0
8840,2209.75,30.619,32.3067,152.636,105.066,5.67904,0.00305046,0.199457,20.8249,571.616,26.3578,0.0,0.0
8970,2242.25,31.1706,32.5905,152.655,105.037,5.75977,0.00312193,0.205244,20.8202,570.205,26.2278,0.0,0.0
9100,2274.75,31.8471,33.4279,150.574,104.252,5.67714,0.0022993,0.21286,20.8142,568.733,26.2906,0.0,0.0
9230,2307.25,31.7826,33.4908,153.615,104.683,5.69281,0.00304268,0.214949,20.8104,567.212,26.303,0.0,0.0
9360,2339.75,32.9499,34.9392,147.838,103.49,5.69851,0.00262745,0.226338,20.7943,565.671,26.1904,0.0,0.0
9490,2372.25,33.0526,34.8573,152.892,104.075,5.68901,0.00222184,0.230272,20.7912,564.019,26.2564,0.0,0.0
9620,2404.75,34.0841,35.7928,156.867,105.383,5.76451,0.00199398,0.23202,20.7893,562.368,26.2501,0.0,0.0
9750,2437.25,34.3446,36.7049,147.628,104.883,5.74125,0.00183381,0.23515,20.7859,560.616,26.2437,0.0,0.0
9880,2469.75,35.4235,36.9004,148.704,105.039,5.78778,0.0020309,0.239791,20.7828,558.824,26.1842,0.0,0.0
10010,2502.25,35.439,37.3461,152.117,104.236,5.75454,0.00178249,0.247362,20.7704,556.963,26.1669,0.0,0.0
10140,2534.75,36.0583,38.4297,152.116,104.481,5.80298,0.00150889,0.263727,20.7522,555.031,26.1124,0.0,0.0
10270,2567.25,36.7561,39.2332,149.259,104.704,5.84667,0.00140406,0.27237,20.7422,553.009,26.0639,0.0,0.0
10400,2599.75,37.7044,39.8074,148.192,104.235,5.85474,0.00147231,0.263183,20.7532,550.957,26.0109,0.0,0.0
10530,2632.25,38.2196,40.4481,151.726,103.649,5.81533,0.00180521,0.269184,20.7438,548.825,26.021,0.0,0.0
10660,2664.75,38.3596,40.7364,148.841,103.321,5.81628,0.00124686,0.274257,20.741,546.653,25.9908,0.0,0.0
10790,2697.25,39.0855,41.7168,145.226,103.824,5.89083,0.00129089,0.277515,20.7309,544.491,25.9196,0.0,0.0
10920,2729.75,39.9522,42.2964,147.336,104.703,5.93642,0.0016083,0.275416,20.734,542.299,25.9262,0.0,0.0
11050,2762.25,39.6138,41.9692,146.729,105.264,5.90793,0.00138383,0.273628,20.7359,540.188,26.0179,0.0,0.0
11180,2794.75,39.7933,41.9491,151.53,105.38,5.87421,0.00166614,0.270269,20.7358,538.166,26.0796,0.0,0.0
11310,2827.25,39.1566,41.5725,150.521,105.049,5.82103,0.00139005,0.260954,20.7464,536.254,26.1333,0.0,0.0
11440,2859.75,38.531,41.0583,153.045,104.578,5.77544,0.00234474,0.250413,20.7599,534.542,26.1637,0.0,0.0
11570,2892.25,36.8681,38.8504,147.72,105.009,5.84904,0.00268375,0.224104,20.7852,533.111,26.0865,0.0,0.0
11700,2924.75,34.4557,36.9694,152.027,104.871,5.75027,0.00434022,0.198909,20.813,531.95,26.2284,0.0,0.0
11830,2957.25,32.2734,34.6126,151.338,104.228,5.69756,0.00512504,0.180595,20.841,531.029,26.2561,0.0,0.0
11960,2989.75,30.7221,32.0073,154.393,104.237,5.58406,0.00650426,0.168938,20.8561,530.289,26.4387,0.0,0.0
12090,3022.25,28.7231,30.3024,152.971,104.449,5.58359,0.00863501,0.153616,20.8712,529.668,26.4577,0.0,0.0
12220,3054.75,26.5004,27.7992,156.082,104.652,5.58359,0.00946788,0.146924,20.8822,529.108,26.4753,0.0,0.0
12350,3087.25,26.0252,26.5756,158.615,104.608,5.57836,0.00881471,0.146385,20.8837,528.597,26.4799,0.0,0.0
12480,3119.75,26.5691,26.7892,155.201,104.352,5.54085,0.00900005,0.148347,20.8753,528.097,26.5188,0.0,0.0
12610,3152.25,26.2287,27.3488,156.258,104.79,5.61588,,,,527.626,26.4351,0.0,0.0
12628,3156.75,26.2599,27.1298,151.607,105.038,5.64532,,,,527.556,26.4092,0.0,0.0