Folder: fsri_materials_database/01_Data/Wood_Stud/Cone (part 2)

File: Wood_Stud_Cone_HF25Scan_221004_R3.csv
Names,Time,Stack TC,Smoke TC,Exh Press,Smoke Comp,Smoke Meas,CO Meter,CO2 Meter,O2 Meter,Sample Mass,Ext Coeff,Start Test,Flame Verif
Chan Gain,,500,500,1,1,1,1,1,1,1,1,1.0,1.0
Offset,,0,0,0.136221,0,0,0,0,0,0,0,0.0,0.0
Gain,,1,1,25.011,13.9274,292.346,1,1,1,1.00091,1.04463,1.0,1.0
Units,sec,C,C,Pa,%,%,%,%,%,g,/m,,
Baseline,,17.6999,18.3356,159.284,103.322,103.3125,0.000879196,0.0688045,20.9449,-438.423,0.000960215,,
147,36.5,17.855,18.1515,159.99,102.74,102.697,0.00118924,0.0731936,20.9418,239.817,0.00383777,0.0,0.0
294,73.25,18.3045,18.7893,159.993,103.736,102.439,0.00179232,0.0686618,20.9496,239.267,0.115307,0.0,0.0
441,110,28.321,26.5433,138.587,104.214,115.866,0.00434613,0.596952,20.3223,236.805,-0.971195,0.0,0.0
588,146.75,35.8814,37.6758,144.914,103.657,112.03,0.00264284,0.270466,20.715,233.031,-0.711784,0.0,0.0
735,183.5,33.8556,37.0209,150.565,103.529,110.789,0.00231407,0.226203,20.7671,230.389,-0.621101,0.0,0.0
882,220.25,33.0842,36.0741,152.068,103.916,110.896,0.00283042,0.214956,20.7823,227.967,-0.595743,0.0,0.0
1029,257,31.6952,34.4988,147.102,103.218,111.842,0.00238585,0.207536,20.7898,225.755,-0.735305,0.0,0.0
1176,293.75,31.2496,33.8327,153.108,103.276,111.048,0.00278518,0.204852,20.7906,223.603,-0.664924,0.0,0.0
1323,330.5,31.1377,33.6081,150.497,103.45,111.441,0.00358206,0.199938,20.7968,221.521,-0.681773,0.0,0.0
1470,367.25,30.8979,33.0201,152.422,102.805,110.45,0.00385655,0.192843,20.8037,219.549,-0.657346,0.0,0.0
1617,404,30.5957,32.477,152.924,102.271,109.986,0.00397065,0.190919,20.8083,217.617,-0.666483,0.0,0.0
1764,440.75,30.6704,32.6971,153,102.111,110.076,0.00389075,0.193331,20.8044,215.715,-0.688205,0.0,0.0
1911,477.5,30.747,32.7316,147.438,102.23,109.094,0.00375342,0.190339,20.807,213.804,-0.595468,0.0,0.0
2058,514.25,31.0131,32.7722,156.132,102.542,109.692,0.00450872,0.185308,20.8136,211.962,-0.617694,0.0,0.0
2205,551,30.0619,31.6529,148.553,102.85,110.013,0.00528943,0.181728,20.8184,210.17,-0.61699,0.0,0.0
2352,587.75,30.303,31.67,151.116,103.243,111.557,0.00444652,0.18573,20.8136,208.359,-0.709658,0.0,0.0
2499,624.5,30.0753,32.1286,151.507,103.509,111.378,0.00375066,0.189606,20.8114,206.487,-0.671442,0.0,0.0
2646,661.25,30.8931,32.6164,153.415,103.803,110.094,0.00378717,0.186969,20.8114,204.655,-0.539129,0.0,0.0
2793,698,30.8098,32.6637,150.927,103.96,112.672,0.00408204,0.183734,20.813,202.844,-0.737425,0.0,0.0
2940,734.75,30.3498,32.0439,152.026,103.998,112.511,0.00441048,0.179995,20.8187,201.082,-0.721022,0.0,0.0
3087,771.5,29.7618,31.4285,151.935,103.956,110.201,0.00534718,0.171692,20.8278,199.371,-0.534575,0.0,0.0
3234,808.25,29.2228,30.8662,150.219,103.989,110.682,0.00607209,0.169753,20.8317,197.669,-0.571627,0.0,0.0
3381,845,29.8983,31.2464,155.817,104.098,110.183,0.00513131,0.172007,20.8288,195.998,-0.520512,0.0,0.0
3528,881.75,29.5804,30.8914,150.431,104.148,110.95,0.00630451,0.170688,20.829,194.336,-0.579725,0.0,0.0
3675,918.5,29.0695,30.6171,153.893,104.183,110.557,0.00742308,0.161205,20.8414,192.685,-0.54418,0.0,0.0
3822,955.25,28.571,29.6877,149.734,104.177,110.201,0.00675085,0.161726,20.8407,191.063,-0.515077,0.0,0.0
3969,992,28.2966,29.8123,155.162,104.149,109.478,0.00693468,0.159295,20.8431,189.462,-0.457293,0.0,0.0
4116,1028.75,28.3928,30.0046,154.088,104.095,110.575,0.00734934,0.160246,20.8432,187.82,-0.553438,0.0,0.0
4263,1065.5,28.3305,29.7498,149.962,104.114,111.057,0.00728828,0.158843,20.8442,186.189,-0.591592,0.0,0.0
4410,1102.25,28.167,29.7355,153.471,104.145,110.406,0.00720684,0.158083,20.8465,184.567,-0.534965,0.0,0.0
4557,1139,27.6431,29.2169,155.861,104.149,109.969,0.00860631,0.155129,20.851,182.916,-0.498274,0.0,0.0
4704,1175.75,28.1611,28.768,154.837,104.144,110.352,0.00850412,0.149717,20.8576,181.274,-0.530634,0.0,0.0
4851,1212.5,27.6143,29.0993,157.823,104.175,110.584,0.0094975,0.146758,20.8624,179.663,-0.547146,0.0,0.0
4998,1249.25,26.9227,28.2096,156.787,104.149,109.683,0.0102156,0.143181,20.8627,178.081,-0.474416,0.0,0.0
5145,1286,26.504,28.1653,152.508,103.99,108.755,0.0104912,0.138577,20.8685,176.47,-0.410566,0.0,0.0
5292,1322.75,26.2935,28.023,153.676,103.734,108.818,0.0089223,0.14343,20.8648,174.928,-0.4384,0.0,0.0
5439,1359.5,27.4618,28.5752,155.672,103.792,108.969,0.00840094,0.149625,20.8568,173.347,-0.446059,0.0,0.0
5586,1396.25,27.3711,28.1712,152.803,104.116,109.728,0.00942435,0.146708,20.8596,171.756,-0.481059,0.0,0.0
5733,1433,27.8141,28.7298,153.243,104.158,109.166,0.00937742,0.152521,20.8548,170.134,-0.43026,0.0,0.0
5880,1469.75,28.393,29.7174,153.492,104.087,108.443,0.00932363,0.152359,20.8551,168.513,-0.375682,0.0,0.0
6027,1506.5,28.7142,30.0233,156.302,104.102,110.459,0.00752353,0.156406,20.8513,166.911,-0.543185,0.0,0.0
6174,1543.25,27.689,30.024,152.249,104.132,110.156,0.00825732,0.152813,20.8532,165.34,-0.515331,0.0,0.0
6321,1580,27.7617,29.5235,151.419,104.155,109.647,0.00816961,0.151797,20.8566,163.828,-0.470948,0.0,0.0
6468,1616.75,27.4945,29.6073,156.174,104.131,109.808,0.00916097,0.147136,20.8577,162.337,-0.486453,0.0,0.0
6615,1653.5,27.4242,28.8991,153.465,104.112,110.352,0.00858291,0.147022,20.8612,160.856,-0.533439,0.0,0.0
6762,1690.25,27.6702,29.5555,152.726,103.609,110.147,0.00813576,0.148582,20.8604,159.384,-0.560709,0.0,0.0
6909,1727,28.3838,29.9265,152.056,102.445,108.987,0.00791979,0.14551,20.8641,158.023,-0.567252,0.0,0.0
7056,1763.75,28.3548,30.1636,150.054,102.944,110.433,0.00849816,0.143987,20.8669,156.582,-0.643447,0.0,0.0
7203,1800.5,28.8006,30.0043,153.395,104.141,111.271,0.00805827,0.14635,20.8646,155.101,-0.606811,0.0,0.0
7350,1837.25,28.5029,30.0934,153.024,103.106,108.996,0.00846684,0.144297,20.8647,153.699,-0.509112,0.0,0.0
7497,1874,28.0138,29.4606,154.328,103.824,110.254,0.00791932,0.14342,20.8661,152.318,-0.55061,0.0,0.0
7644,1910.75,28.3869,29.7159,153.289,103.429,110.343,0.00758347,0.145558,20.863,150.907,-0.592976,0.0,0.0
7791,1947.5,28.2531,29.7989,155.955,103.724,111.021,0.00786119,0.145299,20.8634,149.505,-0.623015,0.0,0.0
7938,1984.25,28.4588,29.6253,149.209,103.496,111.084,0.00797306,0.148032,20.8594,148.164,-0.648354,0.0,0.0
8085,2021,28.7191,30.0987,156.467,103.429,110.343,0.0069284,0.150193,20.859,146.753,-0.592938,0.0,0.0
8232,2057.75,29.3244,30.3426,156.179,104.274,110.593,0.00659583,0.154018,20.8543,145.312,-0.539141,0.0,0.0
8379,2094.5,28.8517,31.1075,153.356,103.032,109.05,0.00614275,0.159645,20.8497,143.88,-0.520148,0.0,0.0
8526,2131.25,29.3086,31.1637,149.84,102.399,108.987,0.00553383,0.164775,20.8405,142.339,-0.571397,0.0,0.0
8673,2168,30.0589,31.5812,151.51,103.141,109.201,0.00543764,0.166717,20.8395,140.808,-0.523213,0.0,0.0
8820,2204.75,30.3938,31.8585,153.409,103.601,108.996,0.00490633,0.169103,20.8333,139.286,-0.465173,0.0,0.0
8967,2241.5,30.0194,32.789,156.042,103.682,109.79,0.00474922,0.173061,20.8288,137.705,-0.524546,0.0,0.0
9114,2278.25,31.2774,32.3448,151.627,103.499,112.333,0.00450299,0.178535,20.8239,136.083,-0.750513,0.0,0.0
9261,2315,31.7634,33.3942,152.5,103.67,110.334,0.00396648,0.184852,20.8167,134.432,-0.570871,0.0,0.0
9408,2351.75,32.3783,33.6604,153.451,103.697,109.157,0.00397961,0.19004,20.8139,132.72,-0.47021,0.0,0.0
9555,2388.5,32.5949,34.3053,159.77,103.054,110.611,0.0041355,0.196216,20.8056,130.919,-0.648486,0.0,0.0
9702,2425.25,33.0408,35.7411,152.031,102.425,110.415,0.00376603,0.202016,20.7987,129.057,-0.688317,0.0,0.0
9849,2462,33.8406,35.863,151.59,102.889,110.388,0.00348123,0.205901,20.7936,127.165,-0.644666,0.0,0.0
9996,2498.75,34.4187,35.9825,152.199,103.63,111.833,0.0037042,0.209127,20.7904,125.223,-0.698083,0.0,0.0
10143,2535.5,34.6944,36.7632,151.084,104.308,111.708,0.00360414,0.212213,20.7859,123.262,-0.628056,0.0,0.0
10290,2572.25,35.3431,37.5183,153.654,104.144,112.806,0.0036542,0.218859,20.7798,121.23,-0.732132,0.0,0.0
10437,2609,36.0455,38.3312,147.942,103.565,112.27,0.0037323,0.231915,20.7629,119.128,-0.739623,0.0,0.0
10584,2645.75,36.8663,39.0534,150.973,103.991,113.154,0.00326973,0.234922,20.7571,116.896,-0.773751,0.0,0.0
10731,2682.5,37.3536,39.6528,148.486,103.733,112.003,0.00300851,0.237987,20.7533,114.714,-0.702909,0.0,0.0
10878,2719.25,37.226,39.8402,148.01,103.153,112.199,0.00283765,0.231796,20.762,112.532,-0.77031,0.0,0.0
11025,2756,36.8952,40.078,150.097,103.5625,112.493,0.00333215,0.227382,20.7672,110.5,-0.757998,0.0,0.0
11172,2792.75,36.861,38.9153,147.767,103.65,111.798,0.0033614,0.216595,20.7767,108.548,-0.693355,0.0,0.0
11319,2829.5,35.8052,38.2825,147.94,102.991,110.575,0.00399225,0.209328,20.7851,106.757,-0.651124,0.0,0.0
11466,2866.25,35.7489,37.0645,153.75,102.389,109.755,0.003675,0.202341,20.792,105.035,-0.636555,0.0,0.0
11613,2903,34.3234,36.8234,150.988,103.023,110.522,0.00456264,0.198081,20.7948,103.454,-0.643851,0.0,0.0
11760,2939.75,34.1381,35.867,148.218,103.788,110.691,0.00511061,0.194257,20.8007,101.912,-0.59006,0.0,0.0
11907,2976.5,33.8477,35.4813,154.293,104.386,111.093,0.00473575,0.189023,20.8058,100.511,-0.570626,0.0,0.0
12054,3013.25,32.8465,34.6673,149.368,103.948,112.547,0.00617044,0.185135,20.8072,99.1098,-0.728274,0.0,0.0
12201,3050,32.5476,34.4569,150.821,103.816,110.986,0.00538527,0.184786,20.8092,97.7486,-0.611924,0.0,0.0
12348,3086.75,32.48,33.8308,155.821,103.82,110.165,0.00527845,0.183103,20.8103,96.4273,-0.543529,0.0,0.0
12495,3123.5,32.265,33.5322,155.995,103.236,109.647,0.00587946,0.179761,20.815,95.1562,-0.552114,0.0,0.0
12642,3160.25,31.2176,33.6271,152.744,103.574,109.799,0.00666031,0.174018,20.8191,93.9551,-0.534874,0.0,0.0
12789,3197,31.6387,32.8962,152.726,103.603,109.38,0.00602488,0.171015,20.8227,92.8241,-0.497218,0.0,0.0
12936,3233.75,30.8421,31.988,151.289,102.757,109.264,0.00658903,0.161793,20.8316,91.7831,-0.562651,0.0,0.0
13083,3270.5,29.86,31.073,150.975,102.414,108.033,0.00662894,0.154784,20.8402,90.8623,-0.489412,0.0,0.0
13230,3307.25,29.2912,30.0945,152.538,103.314,108.666,0.00731624,0.14345,20.8544,90.0916,-0.46279,0.0,0.0
13377,3344,28.0264,29.0144,155.809,104.258,108.363,0.00911445,0.132041,20.8694,89.451,-0.353865,0.0,0.0
13524,3380.75,27.0421,28.1425,156.039,104.235,108.149,0.00921314,0.125159,20.8773,88.8505,-0.337757,0.0,0.0
13671,3417.5,25.5489,26.7605,154.346,103.643,107.827,0.00894035,0.123412,20.8789,88.35,-0.362664,0.0,0.0
13818,3454.25,25.0952,26.2334,156.075,103.92,107.961,0.00877136,0.124392,20.8752,87.8796,-0.349599,0.0,0.0
13965,3491,25.1988,26.2253,153.467,104.019,107.408,0.00871756,0.124265,20.8786,87.4392,-0.293838,0.0,0.0
14016,3503.75,25.0595,25.5231,156.116,103.923,107.524,,,,87.2891,-0.312157,0.0,0.0

File: Wood_Stud_Cone_HF50Scalar_221004_R1.csv
LABORATORY,FSRI
TEST IDENT,Wood_Stud_HF50_1
OPERATOR,Dow
MATERIAL,Wood stud
ORIENTATION,Horizontal
HEAT FLUX,50
SURF AREA,0.01
C FACTOR,0.0389731
SPEC HOLDER DIFF,-566
SPECIMEN MASS,189.21
SCAN TIME,0.25
O2 DELAY TIME,11
CO DELAY TIME,11
CO2 DELAY TIME,8
FLOW FACTOR,1
SCAN COUNT,10389
TIME TO IGN,18
END OF TEST SCAN,9909
END OF TEST TIME,2477.25
TEST STATUS,1
PRE TEST CMT,Dimensions: 100.70 x 101.76 x 38.02 mm; sample composed of 2 pieces with seam on center

File: Wood_Stud_Cone_HF50Scalar_221004_R2.csv
LABORATORY,FSRI
TEST IDENT,Wood_Stud_HF50_2
OPERATOR,Dow
MATERIAL,Wood stud
ORIENTATION,Horizontal
HEAT FLUX,50
SURF AREA,0.01
C FACTOR,0.0389731
SPEC HOLDER DIFF,-566
SPECIMEN MASS,175.07
SCAN TIME,0.25
O2 DELAY TIME,11
CO DELAY TIME,11
CO2 DELAY TIME,8
FLOW FACTOR,1
SCAN COUNT,9490
TIME TO IGN,17.5
END OF TEST SCAN,9010
END OF TEST TIME,2252.5
TEST STATUS,1
PRE TEST CMT,Dimensions: 100.34 x 101.74 x 37.90 mm; sample composed of 2 pieces with seam on center

File: Wood_Stud_Cone_HF50Scalar_221004_R3.csv
LABORATORY,FSRI
TEST IDENT,Wood_Stud_HF50_3
OPERATOR,Dow
MATERIAL,Wood stud
ORIENTATION,Horizontal
HEAT FLUX,50
SURF AREA,0.01
C FACTOR,0.0389731
SPEC HOLDER DIFF,-566
SPECIMEN MASS,165.36
SCAN TIME,0.25
O2 DELAY TIME,11
CO DELAY TIME,11
CO2 DELAY TIME,8
FLOW FACTOR,1
SCAN COUNT,10269
TIME TO IGN,14.25
END OF TEST SCAN,9789
END OF TEST TIME,2447.25
TEST STATUS,1
PRE TEST CMT,Dimensions: 101.41 x 101.84 x 38.07 mm; sample composed of 2 pieces with seam on center

File: Wood_Stud_Cone_HF50Scan_221004_R1.csv
Names,Time,Stack TC,Smoke TC,Exh Press,Smoke Comp,Smoke Meas,CO Meter,CO2 Meter,O2 Meter,Sample Mass,Ext Coeff,Start Test,Flame Verif
Chan Gain,,500,500,1,1,1,1,1,1,1,1,1.0,1.0
Offset,,0,0,0.136221,0,0,0,0,0,0,0,0.0,0.0
Gain,,1,1,25.011,13.9274,292.346,1,1,1,1.00091,1.04463,1.0,1.0
Units,sec,C,C,Pa,%,%,%,%,%,g,/m,,
Baseline,,30.153,31.7804,153.091,103.732,108.619,0.001052,0.0623634,20.9559,-442.871,-0.421729,,
108,26.75,38.4992,37.8633,130.02,104.357,120.139,0.00497649,0.585968,20.3532,247.554,-1.29054,0.0,0.0
216,53.75,50.8544,53.4902,134.269,103.163,116.357,0.00398131,0.385699,20.5788,243.791,-1.10281,0.0,0.0
324,80.75,52.4841,56.648,138.875,103.834,116.767,0.00300574,0.326305,20.6502,240.698,-1.07569,0.0,0.0
432,107.75,52.8107,57.3688,137.818,104.287,118.819,0.00249852,0.292737,20.6925,238.126,-1.19543,0.0,0.0
540,134.75,51.3751,56.4174,136.565,102.987,118.48,0.0023122,0.274755,20.712,235.754,-1.28417,0.0,0.0
648,161.75,51.298,55.7998,145.153,102.603,116.758,0.00250561,0.268164,20.7179,233.441,-1.18423,0.0,0.0
756,188.75,50.3627,54.9522,144.281,103.53,118.516,0.00213554,0.258061,20.7318,231.29,-1.23872,0.0,0.0
864,215.75,49.2332,54.1253,143.164,103.58,117.927,0.00207819,0.249519,20.7414,229.248,-1.18865,0.0,0.0
972,242.75,50.4019,54.1083,143.369,103.168,117.168,0.00171726,0.25536,20.7329,227.216,-1.16607,0.0,0.0
1080,269.75,49.6044,53.8188,140.048,103.302,117.204,0.00197647,0.249784,20.741,225.164,-1.15694,0.0,0.0
1188,296.75,49.6604,53.7094,139.489,103.812,118.114,0.00198075,0.240762,20.7527,223.212,-1.18276,0.0,0.0
1296,323.75,48.8199,53.1176,144.571,103.94,118.542,0.00199449,0.244449,20.7497,221.24,-1.20456,0.0,0.0
1404,350.75,49.1868,52.6659,145.183,103.939,118.007,0.00182361,0.243943,20.75,219.289,-1.16324,0.0,0.0
1512,377.75,49.4699,52.9823,140.919,103.914,119.711,0.00205595,0.239912,20.7535,217.377,-1.29679,0.0,0.0
1620,404.75,49.2106,53.0822,142.982,103.948,119.649,0.00183723,0.23944,20.7531,215.425,-1.28905,0.0,0.0
1728,431.75,50.1547,53.2067,140.523,103.87,118.498,0.00189237,0.241889,20.7531,213.543,-1.20734,0.0,0.0
1836,458.75,49.89,53.5033,142.349,103.738,118.739,0.00194192,0.239361,20.7538,211.622,-1.23754,0.0,0.0
1944,485.75,49.9486,53.2136,144.02,103.72,118.043,0.0020847,0.234827,20.7572,209.78,-1.18529,0.0,0.0
2052,512.75,50.0866,52.873,142.908,103.788,118.016,0.00183903,0.232575,20.7593,207.898,-1.17721,0.0,0.0
2160,539.75,49.5071,52.7625,142.359,103.903,119.015,0.00215258,0.23246,20.761,206.097,-1.2443,0.0,0.0
2268,566.75,49.7319,52.8245,146.147,103.939,119.301,0.00232037,0.23261,20.7616,204.295,-1.26315,0.0,0.0
2376,593.75,49.0406,52.3295,145.4,103.941,117.525,0.00222221,0.228899,20.7654,202.483,-1.12553,0.0,0.0
2484,620.75,49.1988,52.2393,145.323,103.868,117.427,0.00234602,0.225424,20.7698,200.692,-1.12436,0.0,0.0
2592,647.75,49.1744,52.3951,147.06,103.767,117.695,0.00219185,0.227816,20.7646,198.95,-1.15415,0.0,0.0
2700,674.75,49.0762,51.9338,146.829,103.725,117.65,0.00191534,0.229101,20.7635,197.169,-1.15435,0.0,0.0
2808,701.75,49.4371,52.7665,141.562,103.758,119.113,0.00189268,0.228133,20.7635,195.397,-1.26472,0.0,0.0
2916,728.75,49.506,52.7393,140.143,103.639,117.802,0.00190066,0.223037,20.7698,193.605,-1.17371,0.0,0.0
3024,755.75,49.7336,52.4394,144.307,103.177,115.09,0.00191265,0.222002,20.7733,191.894,-1.00129,0.0,0.0
3132,782.75,48.9418,51.9341,144.752,103.163,115.964,0.00225091,0.220124,20.7748,190.172,-1.07181,0.0,0.0
3240,809.75,48.7462,51.5039,143.431,103.431,117.231,0.00214459,0.218924,20.7746,188.421,-1.14762,0.0,0.0
3348,836.75,48.5421,51.4968,142.735,103.682,117.177,0.00224534,0.219788,20.7722,186.759,-1.12124,0.0,0.0
3456,863.75,48.3183,51.2262,142.212,103.691,116.553,0.00256289,0.218752,20.7779,184.998,-1.07145,0.0,0.0
3564,890.75,48.7166,51.2129,141.886,103.429,118.239,0.00235032,0.215055,20.7817,183.326,-1.22624,0.0,0.0
3672,917.75,48.3511,51.2205,143.57,102.947,115.58,0.00236753,0.213465,20.7821,181.685,-1.06068,0.0,0.0
3780,944.75,48.0508,50.8661,143.199,102.454,115.714,0.00200389,0.207213,20.7894,180.043,-1.11531,0.0,0.0
3888,971.75,48.1217,50.6767,142.304,102.494,114.893,0.00249903,0.206382,20.7916,178.432,-1.04643,0.0,0.0
3996,998.75,47.6824,50.5102,140.692,103.018,116.062,0.00191209,0.204344,20.793,176.87,-1.09244,0.0,0.0
4104,1025.75,47.0269,48.5346,143.364,103.728,118.239,0.00232239,0.204801,20.7955,175.279,-1.19984,0.0,0.0
4212,1052.75,47.6611,50.214,140.015,104.26,117.499,0.00240389,0.205942,20.7927,173.717,-1.09534,0.0,0.0
4320,1079.75,47.4404,49.8842,145.759,104.3,116.285,0.00230796,0.205022,20.7931,172.156,-0.996752,0.0,0.0
4428,1106.75,46.986,50.0386,144.217,103.931,115.687,0.00252216,0.204503,20.7972,170.595,-0.981997,0.0,0.0
4536,1133.75,47.3633,49.4404,146.77,103.536,116.365,0.00222939,0.20416,20.7921,169.083,-1.07047,0.0,0.0
4644,1160.75,47.3453,49.6295,144.226,103.639,115.705,0.00270531,0.202334,20.7976,167.552,-1.00919,0.0,0.0
4752,1187.75,47.1876,49.833,141.136,103.938,117.24,0.00206332,0.199635,20.8002,166.06,-1.1035,0.0,0.0
4860,1214.75,46.8161,49.5777,140.686,103.88,117.24,0.00232886,0.199704,20.8005,164.569,-1.1086,0.0,0.0
4968,1241.75,46.9832,49.49,140.954,103.584,116.214,0.00275104,0.201751,20.7987,163.098,-1.05426,0.0,0.0
5076,1268.75,46.7232,49.3873,148.147,103.06,116.696,0.00256964,0.201258,20.799,161.616,-1.13865,0.0,0.0
5184,1295.75,47.5397,49.763,144.366,103.202,116.178,0.00254468,0.203252,20.7983,160.165,-1.08528,0.0,0.0
5292,1322.75,47.3303,49.8823,147.548,103.381,115.491,0.00259094,0.201923,20.7975,158.674,-1.01502,0.0,0.0
5400,1349.75,46.9769,49.8772,142.247,103.543,117.177,0.00251842,0.202186,20.7966,157.242,-1.13354,0.0,0.0
5508,1376.75,46.9787,49.6882,139.613,103.663,117.222,0.00223115,0.202666,20.7965,155.821,-1.12642,0.0,0.0
5616,1403.75,46.99,49.6611,142.672,103.678,115.5,0.00243844,0.203582,20.7954,154.4,-0.989469,0.0,0.0
5724,1430.75,47.4195,49.8324,142.089,103.546,116.526,0.00236286,0.208181,20.7878,152.909,-1.0822,0.0,0.0
5832,1457.75,47.6061,50.2183,144.616,103.334,114.938,0.00196942,0.209482,20.7878,151.467,-0.975209,0.0,0.0
5940,1484.75,48.0239,50.6975,141.577,103.052,115.786,0.00244757,0.21205,20.7833,149.956,-1.06759,0.0,0.0
6048,1511.75,48.3861,51.2171,144.527,102.692,115.634,0.0020639,0.214818,20.7836,148.485,-1.08769,0.0,0.0
6156,1538.75,48.3044,50.9552,144.653,102.567,115.411,0.00231306,0.21608,20.7773,146.983,-1.08115,0.0,0.0
6264,1565.75,48.4176,51.3859,142.448,102.464,114.965,0.00240911,0.219491,20.7771,145.452,-1.05482,0.0,0.0
6372,1592.75,48.4204,51.7478,146.151,102.408,115.696,0.00237193,0.218421,20.7778,143.96,-1.118,0.0,0.0
6480,1619.75,48.749,51.5188,142.773,102.362,115.652,0.00246873,0.219274,20.7779,142.449,-1.11854,0.0,0.0
6588,1646.75,49.0956,51.7125,142.104,102.346,115.339,0.00234506,0.222005,20.7708,140.998,-1.09518,0.0,0.0
6696,1673.75,49.2769,52.3603,139.943,102.361,115.25,0.00234187,0.224231,20.7717,139.456,-1.08683,0.0,0.0
6804,1700.75,50.1846,51.67,143.476,102.385,116.553,0.00193483,0.22893,20.7652,137.905,-1.18764,0.0,0.0
6912,1727.75,49.9614,53.1836,140.792,102.421,116.419,0.00229212,0.237482,20.7573,136.273,-1.17388,0.0,0.0
7020,1754.75,50.1608,53.328,140.772,102.383,117.284,0.00233609,0.243594,20.7479,134.592,-1.24517,0.0,0.0
7128,1781.75,51.0774,54.2413,147.527,102.352,117.98,0.0020804,0.246791,20.7473,132.87,-1.30216,0.0,0.0
7236,1808.75,51.9107,54.7175,139.034,102.444,117.168,0.0021571,0.254016,20.7399,131.069,-1.23059,0.0,0.0
7344,1835.75,52.5236,55.6834,136.697,102.855,117.882,0.00183746,0.26005,20.7313,129.237,-1.24955,0.0,0.0
7452,1862.75,53.5738,56.4902,138.647,103.43,118.435,0.0020437,0.272713,20.717,127.295,-1.2414,0.0,0.0
7560,1889.75,53.8648,57.3226,137.217,103.876,121.54,0.00286493,0.283037,20.7032,125.243,-1.4391,0.0,0.0
7668,1916.75,54.9369,58.5694,141.009,104.087,121.049,0.00225894,0.29117,20.6907,123.182,-1.38345,0.0,0.0
7776,1943.75,56.0118,59.8777,140.779,104.175,120.764,0.00254553,0.312278,20.6633,121.03,-1.35404,0.0,0.0
7884,1970.75,56.5708,62.0221,136.712,104.261,118.525,0.0023463,0.328859,20.6367,118.728,-1.17497,0.0,0.0
7992,1997.75,58.3991,62.1347,137.854,104.332,118.516,0.00277482,0.314853,20.6549,116.425,-1.16801,0.0,0.0
8100,2024.75,58.0676,62.1478,139.641,104.322,118.337,0.00275278,0.293639,20.6842,114.294,-1.15506,0.0,0.0
8208,2051.75,56.6081,60.9966,142.385,104.292,117.704,0.00307298,0.272627,20.7075,112.332,-1.10853,0.0,0.0
8316,2078.75,55.2983,59.1525,141.932,104.229,118.346,0.00349563,0.265661,20.7169,110.58,-1.16393,0.0,0.0
8424,2105.75,54.7141,58.543,140.544,104.123,117.481,0.00338563,0.258437,20.7216,108.889,-1.10603,0.0,0.0
8532,2132.75,54.1434,57.6377,141.082,103.98,117.204,0.00302633,0.254951,20.7262,107.237,-1.097,0.0,0.0
8640,2159.75,53.7501,56.9962,139.041,103.727,115.607,0.00322056,0.25001,20.7292,105.676,-0.993677,0.0,0.0
8748,2186.75,52.5513,56.059,141.692,103.56,116.731,0.00338148,0.231582,20.7502,104.274,-1.09708,0.0,0.0
8856,2213.75,51.5703,54.6848,144.065,103.501,115.839,0.00385379,0.214453,20.7717,103.053,-1.03201,0.0,0.0
8964,2240.75,50.2209,52.8435,142.707,103.468,115.304,0.00371022,0.201708,20.7862,101.992,-0.992459,0.0,0.0
9072,2267.75,49.5009,51.9754,144.669,103.602,116.936,0.004633,0.18941,20.7971,101.062,-1.10949,0.0,0.0
9180,2294.75,47.8137,50.4153,143.198,104.32,115.741,0.00451433,0.172923,20.8192,100.381,-0.952011,0.0,0.0
9288,2321.75,46.2642,49.0047,144.842,102.883,115.438,0.00533017,0.157528,20.8374,99.7203,-1.05507,0.0,0.0
9396,2348.75,44.9577,47.8195,144.08,103.179,113.038,0.00592331,0.154105,20.8429,99.1598,-0.836207,0.0,0.0
9504,2375.75,44.5103,46.4422,149.306,103.122,113.796,0.0063609,0.150174,20.8487,98.6494,-0.902536,0.0,0.0
9612,2402.75,43.3705,45.6959,148.35,103.826,114.412,0.00675381,0.143943,20.8514,98.1389,-0.889604,0.0,0.0
9720,2429.75,42.8284,44.8059,148.305,102.901,112.993,0.00661386,0.140425,20.8577,97.6885,-0.85731,0.0,0.0
9828,2456.75,42.178,44.1655,147.08,103.658,114.474,0.0073755,0.141097,20.8575,97.2681,-0.90951,0.0,0.0
9936,2483.75,41.3399,43.1988,150.016,103.79,114.412,0.00725779,0.142038,20.8532,96.8477,-0.892831,0.0,0.0
10044,2510.75,41.2819,42.7649,145.934,104.385,114.858,0.00769603,0.136849,20.8619,96.4874,-0.876067,0.0,0.0
10152,2537.75,40.4992,42.7917,144.819,102.656,112.021,0.0077475,0.137987,20.8612,96.1071,-0.79997,0.0,0.0
10260,2564.75,40.5109,42.1569,146.147,103.667,112.966,0.00747485,0.133563,20.866,95.6967,-0.78715,0.0,0.0
10368,2591.75,39.9467,42.7507,147.863,104.102,112.868,,,,95.3264,-0.74087,0.0,0.0
10389,2597,40.043,41.9546,150.307,103.953,113.189,,,,95.2163,-0.78005,0.0,0.0