Folder: fsri_materials_database/01_Data/Wood_Stud/HFM

Note: 01_Data/README.md
# Materials and Products Database
## 01_Data

Raw data generated from each apparatus are included here in plain-text format. The data is organized first by material, next by the short name of test apparatus used, and where applicable additional filtering by test settings.

### material.json

Each material directory contains a json file of the same name as the material. This file links the data stored in the repository as well as data and graphs produced by the accompanying scripts (__02_Scripts__) to the respective landing page for the material on the front-end website.

File: Wood_Stud_Density_Wet_R1.csv
,Wood_Stud_WET_1
Sample Mass [g],316.2
Sample Volume [cm3],880.2
Sample Density [kg/m3],359

File: Wood_Stud_Density_Wet_R2.csv
,Wood_Stud_WET_2
Sample Mass [g],322.7
Sample Volume [cm3],873.3
Sample Density [kg/m3],370

File: Wood_Stud_Density_Wet_R3.csv
,Wood_Stud_WET_3
Sample Mass [g],356.1
Sample Volume [cm3],872.4
Sample Density [kg/m3],408

File: Wood_Stud_Ignition_Temp_Properties.csv
Thermal Conductivity (W/m-K),0.1
Heat Capacity (J/kg-K),1242.0
Density (kg/m3),379.0