Folder: fsri_materials_database/01_Data/Wood_Stud/MCC (part 2)

File: Wood_Stud_MCC_30K_min_211004_R3.txt
Sample ID:	C:\MCC\MCC Cal\Test\Wood_Stud_MCC_30K_min_211004_R3.txt
Sample Weight (mg):	4.67
Heating Rate (C/s):	0.5
Combustor Temp (C):	900
N2 Flow Rate (cc/min):	80
O2 Flow Rate (cc/min):	20
Calibration File:	C:\MCC\MCC Cal\Coeff1 JN10440_30_210304.txt.txt
T Correction Coefficients:	0	1.024463	0
Time Shift (s):	14
*
Time (s)	Temperature (C)	N2 flow rate (cc/min)	O2 flow rate (cc/min)	Flow Rate (cc/min)	Oxygen (%)	HRR (W/g)	Heating rate (C/s)
0.000	106.432	80.003	19.997	100.848	19.903	-0.068	0.002
8.000	106.450	80.003	19.996	100.850	19.901	0.064	-0.022
16.000	106.424	80.002	19.995	100.885	19.894	0.567	-0.010
24.000	106.611	80.002	19.995	100.923	19.886	1.103	0.017
32.000	107.054	80.006	19.995	100.926	19.885	1.162	0.119
40.000	107.660	80.004	19.994	100.951	19.884	1.249	0.101
48.000	108.498	80.003	19.996	100.984	19.877	1.708	0.124
56.001	109.673	80.002	19.996	101.012	19.871	2.137	0.150
64.000	111.131	80.002	19.996	101.045	19.865	2.534	0.182
72.000	112.947	80.002	19.996	101.059	19.863	2.680	0.234
80.000	115.167	80.000	19.996	101.086	19.860	2.864	0.301
88.000	117.599	80.003	19.995	101.081	19.857	3.038	0.305
96.001	120.375	80.001	19.995	101.082	19.854	3.239	0.331
104.000	123.310	80.002	19.995	101.083	19.856	3.143	0.377
112.001	126.438	80.004	19.995	101.085	19.860	2.862	0.393
120.000	129.784	80.004	19.995	101.085	19.853	3.323	0.429
128.000	133.227	80.003	19.996	101.088	19.859	2.952	0.458
136.000	136.775	80.002	19.996	101.090	19.858	3.004	0.471
144.000	140.478	80.001	19.995	101.087	19.854	3.268	0.468
152.000	144.233	80.000	19.995	101.085	19.857	3.036	0.460
160.000	148.037	80.002	19.995	101.085	19.860	2.875	0.479
168.000	151.958	80.003	19.996	101.083	19.860	2.875	0.474
176.000	155.869	80.003	19.998	101.082	19.859	2.955	0.496
184.000	159.816	80.002	19.996	101.083	19.859	2.909	0.511
192.000	163.743	80.003	19.995	101.083	19.860	2.834	0.509
200.000	167.698	80.002	19.996	101.075	19.864	2.606	0.508
208.000	171.708	80.001	19.995	101.068	19.865	2.541	0.485
216.000	175.693	80.002	19.995	101.057	19.864	2.616	0.472
224.000	179.711	80.003	19.994	101.057	19.862	2.721	0.570
232.000	183.623	80.001	19.996	101.053	19.865	2.541	0.487
240.001	187.698	80.000	19.998	101.046	19.868	2.319	0.522
248.000	191.654	80.002	19.996	101.045	19.864	2.565	0.480
256.000	195.649	80.002	19.997	101.047	19.862	2.741	0.451
264.000	199.601	80.002	19.995	101.046	19.865	2.504	0.503
272.000	203.558	80.003	19.996	101.046	19.863	2.635	0.508
280.000	207.565	80.003	19.995	101.046	19.859	2.929	0.477
288.000	211.482	80.002	19.995	101.044	19.857	3.068	0.466
296.000	215.380	80.002	19.995	101.046	19.855	3.184	0.474
304.000	219.383	80.003	19.997	101.043	19.851	3.469	0.502
312.000	223.348	80.002	19.996	101.044	19.851	3.440	0.498
320.000	227.355	80.002	19.996	101.046	19.844	3.978	0.506
328.000	231.361	80.003	19.996	101.049	19.836	4.467	0.491
336.000	235.332	80.002	19.996	101.047	19.828	4.996	0.501
344.000	239.241	80.001	19.995	101.048	19.822	5.455	0.497
352.000	243.209	80.002	19.995	101.050	19.805	6.574	0.477
360.000	247.225	80.004	19.996	101.055	19.795	7.275	0.527
368.000	251.295	80.002	19.995	101.061	19.780	8.299	0.501
376.001	255.249	80.002	19.995	101.060	19.769	9.026	0.517
384.000	259.252	80.002	19.995	101.064	19.752	10.157	0.500
392.000	263.237	80.002	19.996	101.084	19.738	11.109	0.492
400.000	267.289	79.999	19.994	101.086	19.721	12.232	0.522
408.000	271.336	80.002	19.995	101.088	19.702	13.523	0.534
416.000	275.347	80.005	19.994	101.084	19.680	15.019	0.504
424.000	279.373	80.003	19.996	101.089	19.659	16.422	0.528
432.000	283.339	80.003	19.995	101.096	19.634	18.127	0.533
440.000	287.357	80.004	19.995	101.114	19.614	19.518	0.528
448.000	291.392	80.001	19.996	101.119	19.577	22.011	0.509
456.000	295.406	80.001	19.996	101.128	19.548	23.982	0.470
464.000	299.358	80.002	19.996	101.153	19.511	26.433	0.478
472.000	303.432	80.002	19.995	101.165	19.468	29.388	0.509
480.000	307.466	80.001	19.997	101.173	19.425	32.251	0.515
488.000	311.490	80.002	19.995	101.195	19.382	35.219	0.515
496.000	315.544	80.003	19.995	101.203	19.333	38.474	0.495
504.000	319.562	80.001	19.996	101.207	19.289	41.497	0.488
512.002	323.596	80.003	19.996	101.230	19.240	44.799	0.489
520.000	327.601	80.005	19.995	101.237	19.202	47.398	0.490
528.000	331.619	80.002	19.995	101.232	19.168	49.688	0.527
536.000	335.686	80.002	19.995	101.238	19.142	51.416	0.502
544.000	339.566	80.002	19.996	101.243	19.112	53.441	0.448
552.000	343.579	80.001	19.997	101.246	19.088	55.084	0.499
560.000	347.560	80.002	19.996	101.269	19.052	57.513	0.479
568.000	351.526	80.002	19.996	101.280	19.013	60.209	0.479
576.000	355.457	80.004	19.995	101.280	18.968	63.233	0.472
584.000	359.334	80.003	19.996	101.305	18.921	66.462	0.432
592.000	363.216	80.004	19.996	101.310	18.889	68.578	0.483
600.000	367.104	80.004	19.994	101.299	18.880	69.152	0.463
608.000	371.041	80.005	19.995	101.256	18.897	67.974	0.450
616.000	375.051	80.003	19.996	101.231	18.961	63.629	0.485
624.000	378.992	80.003	19.996	101.153	19.077	55.727	0.494
632.000	382.975	80.004	19.996	101.084	19.229	45.432	0.485
640.000	386.982	80.001	19.997	101.032	19.402	33.767	0.500
648.000	390.939	80.001	19.997	100.994	19.548	23.931	0.459
656.000	394.989	80.003	19.995	100.966	19.665	16.000	0.476
664.000	398.955	80.004	19.994	100.968	19.737	11.131	0.508
672.000	402.923	80.003	19.996	100.966	19.775	8.612	0.489
680.001	406.892	80.004	19.996	100.962	19.791	7.534	0.512
688.000	410.889	80.005	19.995	100.964	19.798	7.033	0.507
696.000	414.783	80.003	19.994	100.958	19.804	6.633	0.478
704.000	418.740	80.002	19.996	100.963	19.810	6.244	0.490
712.000	422.764	80.002	19.996	100.963	19.812	6.117	0.490
720.000	426.739	80.001	19.996	100.965	19.816	5.819	0.498
728.000	430.704	79.998	19.997	100.967	19.821	5.474	0.493
736.000	434.727	80.002	19.997	100.960	19.827	5.086	0.499
744.000	438.630	80.003	19.996	100.948	19.835	4.547	0.487
752.000	442.521	80.004	19.996	100.947	19.837	4.437	0.478
760.000	446.392	80.005	19.995	100.944	19.846	3.817	0.485
768.000	450.341	80.003	19.995	100.962	19.851	3.437	0.539
776.000	454.447	80.002	19.994	100.961	19.856	3.137	0.503
784.000	458.777	80.003	19.995	100.968	19.859	2.901	0.552
792.000	463.160	80.002	19.996	100.965	19.868	2.298	0.529
800.000	467.547	80.002	19.997	100.969	19.869	2.232	0.538
808.000	471.980	80.001	19.996	100.954	19.875	1.847	0.548
816.000	476.374	80.002	19.996	100.944	19.880	1.527	0.533
824.000	480.737	80.003	19.997	100.953	19.883	1.305	0.534
832.000	485.061	80.003	19.998	100.956	19.887	1.043	0.542
840.000	489.314	80.004	19.995	100.953	19.891	0.778	0.549
848.000	493.538	80.004	19.996	100.955	19.885	1.180	0.526
856.000	497.740	80.002	19.996	100.959	19.889	0.912	0.538
864.000	501.893	80.002	19.996	100.964	19.892	0.727	0.546
872.000	506.079	80.002	19.995	100.953	19.893	0.663	0.549
880.000	510.247	80.001	19.996	100.945	19.894	0.565	0.492
888.000	514.458	80.002	19.997	100.951	19.894	0.595	0.538
896.000	518.661	80.001	19.997	100.951	19.897	0.369	0.511
904.000	522.902	80.003	19.996	100.962	19.897	0.340	0.576
912.000	527.020	80.002	19.995	100.955	19.897	0.334	0.506
920.000	531.186	80.002	19.996	100.952	19.896	0.461	0.505
928.000	535.277	80.003	19.996	100.964	19.897	0.362	0.520
936.000	539.318	80.004	19.996	100.951	19.899	0.259	0.480
944.000	543.430	80.002	19.995	100.952	19.898	0.321	0.487
952.000	547.550	80.002	19.995	100.949	19.899	0.257	0.548
960.000	551.614	80.003	19.996	100.949	19.903	-0.064	0.515
968.000	555.720	80.002	19.996	100.955	19.901	0.088	0.525
976.000	559.815	80.002	19.996	100.949	19.901	0.125	0.527
984.000	563.815	80.003	19.996	100.952	19.902	0.004	0.504
992.000	567.785	80.003	19.996	100.957	19.902	0.053	0.466
1000.000	571.836	80.004	19.995	100.955	19.899	0.211	0.521
1008.000	575.839	80.003	19.996	100.943	19.903	-0.029	0.469
1016.000	579.869	80.004	19.997	100.953	19.903	-0.006	0.500
1024.000	583.870	80.002	19.996	100.948	19.903	-0.029	0.487
1032.001	587.879	80.003	19.996	100.960	19.900	0.162	0.497
1040.000	591.825	80.004	19.995	100.960	19.900	0.173	0.484
1048.000	595.810	80.002	19.995	100.959	19.902	0.028	0.491
1056.001	599.797	80.002	19.995	100.965	19.901	0.119	0.500
1064.001	603.854	80.003	19.995	100.962	19.905	-0.174	0.527
1072.000	607.904	80.005	19.995	100.961	19.898	0.301	0.527
1080.000	612.031	80.004	19.997	100.962	19.898	0.310	0.523
1088.000	616.209	80.006	19.997	100.961	19.902	0.046	0.497
1096.001	620.435	80.005	19.995	100.961	19.900	0.196	0.543
1104.000	624.572	80.003	19.996	100.961	19.905	-0.193	0.504
1112.000	628.639	80.002	19.997	100.963	19.904	-0.097	0.488
1120.000	632.614	80.001	19.994	100.954	19.901	0.081	0.503
1128.001	636.500	80.001	19.996	100.959	19.900	0.141	0.467
1136.000	640.318	80.003	19.996	100.937	19.904	-0.092	0.455
1144.000	644.040	80.004	19.996	100.961	19.902	0.028	0.464
1152.000	647.792	80.005	19.996	100.939	19.904	-0.097	0.443
1160.000	651.588	80.005	19.995	100.957	19.905	-0.198	0.489
1168.000	655.383	80.004	19.996	100.962	19.906	-0.239	0.496
1176.000	659.067	80.008	19.995	100.960	19.907	-0.286	0.458
1184.000	662.831	80.002	19.996	100.964	19.899	0.200	0.500
1192.001	666.580	80.001	19.996	100.965	19.906	-0.217	0.480
1200.000	670.437	80.002	19.996	100.964	19.903	-0.035	0.497
1208.001	674.395	80.000	19.996	100.964	19.902	0.033	0.512
1216.000	678.400	80.001	19.996	100.962	19.905	-0.169	0.472
1224.000	682.406	80.003	19.996	100.966	19.900	0.184	0.467
1232.000	686.579	80.004	19.996	100.968	19.900	0.176	0.528
1240.000	690.860	80.004	19.996	100.996	19.900	0.193	0.573
1248.001	695.479	80.004	19.994	101.001	19.899	0.239	0.617
1256.000	700.255	80.005	19.994	100.990	19.898	0.303	0.571
1264.001	705.186	80.002	19.995	100.966	19.897	0.360	0.625
1272.000	710.073	80.003	19.996	100.984	19.892	0.690	0.586
1280.000	714.898	80.004	19.996	100.978	19.892	0.672	0.587
1288.000	719.633	80.002	19.997	100.979	19.895	0.534	0.605
1296.000	724.260	79.999	19.996	100.981	19.896	0.417	0.582
1304.000	728.842	80.004	19.997	100.991	19.892	0.692	0.587
1312.000	733.265	80.003	19.994	100.980	19.891	0.778	0.541
1320.000	737.572	80.002	19.997	100.969	19.893	0.630	0.532
1328.000	741.809	80.004	19.996	100.965	19.890	0.846	0.538
1331.000	743.370	80.006	19.996	100.966	19.890	0.848	0.537