Folder: fsri_materials_database/01_Data/Wood_Stud/MCC

Note: 01_Data/README.md
# Materials and Products Database
## 01_Data

Raw data generated from each apparatus are included here in plain-text format. The data is organized first by material, next by the short name of test apparatus used, and where applicable additional filtering by test settings.

### material.json

Each material directory contains a json file of the same name as the material. This file links the data stored in the repository as well as data and graphs produced by the accompanying scripts (__02_Scripts__) to the respective landing page for the material on the front-end website.

File: Wood_Stud_MCC_30K_min_211004_R1.txt
Sample ID:	C:\MCC\MCC Cal\Test\Wood_Stud_MCC_30K_min_211004_R1.txt
Sample Weight (mg):	4.95
Heating Rate (C/s):	0.5
Combustor Temp (C):	900
N2 Flow Rate (cc/min):	80
O2 Flow Rate (cc/min):	20
Calibration File:	C:\MCC\MCC Cal\Coeff1 JN10440_30_210304.txt.txt
T Correction Coefficients:	0	1.024463	0
Time Shift (s):	14
*
Time (s)	Temperature (C)	N2 flow rate (cc/min)	O2 flow rate (cc/min)	Flow Rate (cc/min)	Oxygen (%)	HRR (W/g)	Heating rate (C/s)
0.000	108.476	79.997	19.995	100.649	20.040	-0.262	-0.012
8.000	108.475	79.997	19.996	100.637	20.040	-0.302	-0.009
16.000	108.452	79.996	19.996	100.662	20.036	-0.003	-0.012
24.000	108.628	79.994	19.995	100.797	20.021	0.955	0.053
32.000	109.351	79.996	19.995	100.852	20.009	1.690	0.123
40.001	110.595	79.995	19.995	100.853	20.005	1.948	0.174
48.000	112.102	79.995	19.994	100.866	20.000	2.262	0.195
56.000	114.049	79.998	19.994	100.874	19.999	2.349	0.241
64.000	116.353	79.998	19.995	100.894	19.998	2.380	0.301
72.001	118.907	79.997	19.996	100.894	19.997	2.465	0.315
80.000	121.865	79.998	19.996	100.897	19.994	2.628	0.387
88.000	124.975	79.997	19.997	100.897	19.992	2.773	0.360
96.000	128.358	79.996	19.997	100.905	19.992	2.763	0.454
104.001	131.863	79.996	19.996	100.904	19.994	2.643	0.470
112.000	135.552	79.995	19.995	100.908	19.990	2.896	0.463
120.000	139.322	79.995	19.996	100.901	19.990	2.887	0.451
128.000	143.273	79.996	19.995	100.900	19.990	2.929	0.488
136.000	147.201	79.997	19.995	100.893	19.994	2.620	0.485
144.000	151.181	79.998	19.995	100.894	19.997	2.454	0.496
152.000	155.178	79.998	19.996	100.888	19.996	2.515	0.495
160.000	159.179	79.998	19.994	100.882	19.999	2.312	0.488
168.000	163.151	79.998	19.995	100.874	19.998	2.371	0.496
176.000	167.139	79.996	19.995	100.875	19.996	2.511	0.454
184.000	171.092	79.996	19.995	100.858	20.001	2.183	0.489
192.000	175.033	79.996	19.996	100.862	20.001	2.218	0.506
200.000	178.981	79.997	19.995	100.857	19.998	2.362	0.482
208.000	182.993	79.996	19.996	100.858	20.001	2.171	0.514
216.000	186.910	79.997	19.995	100.858	20.004	2.012	0.501
224.000	190.908	79.996	19.994	100.859	20.003	2.054	0.494
232.000	194.795	79.997	19.995	100.858	20.007	1.810	0.474
240.000	198.702	79.998	19.994	100.857	20.000	2.280	0.513
248.000	202.605	79.999	19.994	100.853	20.001	2.223	0.495
256.000	206.501	79.996	19.995	100.856	20.000	2.265	0.483
264.000	210.431	79.996	19.995	100.854	19.999	2.334	0.470
272.000	214.419	79.995	19.996	100.854	19.991	2.844	0.494
280.000	218.355	79.996	19.996	100.850	19.994	2.664	0.471
288.000	222.366	79.995	19.996	100.855	19.990	2.924	0.496
296.000	226.365	79.998	19.995	100.857	19.984	3.251	0.513
304.000	230.439	79.998	19.994	100.849	19.983	3.325	0.510
312.000	234.383	79.998	19.994	100.847	19.975	3.848	0.493
320.000	238.451	79.997	19.994	100.855	19.963	4.640	0.514
328.000	242.435	79.998	19.995	100.854	19.955	5.109	0.537
336.000	246.471	79.996	19.996	100.857	19.944	5.824	0.528
344.000	250.527	79.995	19.995	100.862	19.931	6.622	0.513
352.000	254.483	79.996	19.996	100.859	19.921	7.312	0.478
360.000	258.534	79.995	19.996	100.862	19.904	8.346	0.520
368.000	262.566	79.996	19.995	100.865	19.894	9.012	0.504
376.000	266.587	79.996	19.996	100.873	19.872	10.392	0.513
384.000	270.583	79.997	19.995	100.881	19.854	11.537	0.517
392.000	274.627	79.997	19.995	100.890	19.835	12.746	0.501
400.000	278.631	79.998	19.995	100.893	19.815	14.044	0.512
408.000	282.621	79.998	19.994	100.891	19.793	15.456	0.465
416.000	286.549	79.997	19.996	100.907	19.771	16.824	0.490
424.000	290.612	79.996	19.995	100.923	19.740	18.794	0.520
432.000	294.647	79.995	19.995	100.932	19.712	20.589	0.524
440.000	298.584	79.998	19.996	100.933	19.677	22.824	0.506
448.000	302.556	79.996	19.997	100.944	19.642	25.023	0.520
456.000	306.509	79.997	19.995	100.964	19.606	27.340	0.512
464.000	310.414	79.997	19.996	100.971	19.561	30.197	0.499
472.000	314.338	79.997	19.995	100.976	19.516	33.046	0.494
480.000	318.105	79.999	19.995	100.983	19.472	35.878	0.469
488.000	321.801	79.998	19.994	101.011	19.428	38.655	0.457
496.000	325.596	79.995	19.995	101.022	19.384	41.461	0.461
504.000	329.433	79.996	19.997	101.032	19.351	43.615	0.503
512.000	333.367	79.998	19.995	101.053	19.317	45.775	0.494
520.000	337.387	79.997	19.995	101.042	19.286	47.736	0.504
528.000	341.351	79.996	19.996	101.046	19.253	49.867	0.470
536.000	345.377	79.996	19.996	101.060	19.216	52.217	0.495
544.000	349.427	79.998	19.995	101.072	19.181	54.478	0.509
552.000	353.518	79.997	19.996	101.099	19.131	57.656	0.538
560.000	357.641	79.999	19.997	101.134	19.074	61.318	0.525
568.000	361.842	79.997	19.997	101.149	19.011	65.307	0.561
576.000	366.045	79.997	19.996	101.145	18.951	69.135	0.538
584.000	370.199	79.996	19.995	101.139	18.913	71.533	0.510
592.000	374.319	79.996	19.995	101.131	18.908	71.782	0.468
600.000	378.690	79.996	19.994	101.074	18.967	68.028	0.580
608.000	382.611	79.996	19.995	100.997	19.091	60.093	0.484
616.000	386.573	79.997	19.997	100.914	19.276	48.268	0.488
624.001	390.511	79.996	19.996	100.866	19.474	35.700	0.496
632.000	394.551	79.996	19.994	100.819	19.652	24.371	0.497
640.000	398.592	79.997	19.997	100.791	19.781	16.161	0.518
648.000	402.589	79.999	19.996	100.789	19.857	11.329	0.515
656.000	406.583	79.995	19.996	100.785	19.894	8.967	0.492
664.000	410.574	79.996	19.996	100.803	19.905	8.267	0.493
672.000	414.616	79.995	19.996	100.802	19.917	7.502	0.494
680.000	418.685	79.997	19.995	100.801	19.925	7.042	0.508
688.000	422.790	79.995	19.995	100.804	19.926	6.958	0.511
696.000	426.946	79.998	19.995	100.801	19.933	6.499	0.525
704.000	431.121	79.998	19.996	100.805	19.939	6.138	0.536
712.000	435.309	79.996	19.996	100.799	19.945	5.760	0.536
720.000	439.495	79.998	19.996	100.791	19.952	5.293	0.532
728.000	443.650	79.998	19.995	100.785	19.962	4.680	0.502
736.000	447.787	79.995	19.996	100.788	19.964	4.552	0.499
744.000	451.904	79.995	19.997	100.787	19.968	4.300	0.487
752.000	456.029	79.996	19.996	100.790	19.979	3.567	0.515
760.000	460.243	79.995	19.995	100.791	19.984	3.254	0.521
768.000	464.517	79.995	19.996	100.785	19.989	2.970	0.529
776.000	468.786	79.998	19.996	100.781	19.994	2.611	0.531
784.000	473.039	79.997	19.995	100.782	19.999	2.325	0.566
792.000	477.235	79.997	19.996	100.782	20.006	1.897	0.521
800.000	481.450	79.998	19.995	100.782	20.006	1.859	0.530
808.000	485.568	79.999	19.995	100.786	20.011	1.540	0.547
816.000	489.666	79.995	19.996	100.788	20.014	1.381	0.498
824.001	493.823	79.997	19.996	100.782	20.016	1.215	0.502
832.001	497.951	79.996	19.997	100.777	20.012	1.521	0.489
840.000	502.057	79.996	19.996	100.779	20.015	1.319	0.481
848.000	506.088	79.995	19.995	100.780	20.019	1.079	0.506
856.000	510.100	79.996	19.994	100.781	20.016	1.214	0.467
864.000	514.154	79.997	19.996	100.783	20.015	1.310	0.492
872.000	518.245	79.997	19.995	100.780	20.016	1.274	0.468
880.000	522.325	79.999	19.994	100.780	20.024	0.745	0.518
888.000	526.385	79.998	19.995	100.776	20.022	0.889	0.496
896.000	530.423	79.996	19.995	100.770	20.019	1.077	0.459
904.000	534.291	79.995	19.996	100.769	20.023	0.819	0.490
912.000	537.927	79.995	19.997	100.765	20.022	0.866	0.458
920.000	541.511	79.995	19.997	100.764	20.022	0.882	0.437
928.000	545.016	79.996	19.996	100.774	20.025	0.643	0.451
936.000	548.578	79.998	19.995	100.773	20.026	0.602	0.426
944.000	552.258	79.997	19.997	100.780	20.030	0.356	0.473
952.000	556.262	79.998	19.995	100.779	20.025	0.645	0.533
960.000	560.212	79.998	19.996	100.782	20.023	0.792	0.506
968.000	564.279	79.998	19.995	100.777	20.025	0.648	0.528
976.000	568.337	79.997	19.996	100.779	20.023	0.785	0.534
984.000	572.395	79.996	19.996	100.780	20.025	0.690	0.484
992.000	576.636	79.996	19.995	100.782	20.029	0.427	0.528
1000.000	580.846	79.995	19.996	100.793	20.026	0.583	0.535
1008.000	585.112	79.996	19.996	100.780	20.027	0.562	0.539
1016.000	589.213	79.998	19.996	100.775	20.027	0.567	0.501
1024.000	593.224	79.998	19.994	100.775	20.027	0.572	0.489
1032.000	597.067	79.998	19.996	100.777	20.031	0.271	0.455
1040.001	600.960	79.999	19.995	100.777	20.027	0.558	0.484
1048.001	604.786	79.998	19.996	100.789	20.026	0.605	0.501
1056.000	608.843	79.997	19.995	100.787	20.027	0.517	0.531
1064.000	612.953	79.997	19.995	100.782	20.024	0.754	0.496
1072.000	616.995	79.996	19.996	100.776	20.038	-0.126	0.509
1080.000	620.974	79.997	19.995	100.783	20.018	1.124	0.506
1088.000	625.167	79.995	19.996	100.789	20.021	0.932	0.519
1096.001	629.403	79.998	19.996	100.776	20.025	0.693	0.525
1104.000	633.633	79.996	19.996	100.785	20.022	0.880	0.550
1112.000	637.964	79.998	19.995	100.782	20.025	0.641	0.540
1120.001	642.189	79.999	19.997	100.779	20.025	0.681	0.513
1128.001	646.306	79.997	19.996	100.782	20.029	0.443	0.492
1136.000	650.308	79.997	19.995	100.783	20.024	0.730	0.541
1144.000	654.361	79.997	19.997	100.784	20.025	0.683	0.495
1152.001	658.433	79.997	19.995	100.780	20.026	0.619	0.521
1160.000	662.804	79.994	19.997	100.779	20.022	0.852	0.534
1168.001	667.376	79.996	19.996	100.786	20.025	0.666	0.578
1176.000	671.990	79.999	19.996	100.781	20.024	0.766	0.580
1184.000	676.634	79.997	19.996	100.780	20.027	0.524	0.558
1192.000	681.228	79.997	19.995	100.783	20.024	0.704	0.563
1200.000	685.713	79.999	19.995	100.777	20.024	0.730	0.551
1208.000	690.125	79.997	19.995	100.780	20.024	0.726	0.550
1216.000	694.526	79.996	19.996	100.777	20.028	0.474	0.581
1224.000	698.868	79.996	19.996	100.778	20.022	0.877	0.560
1232.000	703.130	79.996	19.995	100.784	20.025	0.650	0.507
1240.000	707.364	79.996	19.995	100.782	20.021	0.927	0.534
1248.000	711.541	79.997	19.997	100.782	20.025	0.700	0.478
1256.000	715.741	79.999	19.996	100.781	20.029	0.422	0.520
1264.000	719.892	79.999	19.995	100.779	20.029	0.415	0.523
1272.001	723.986	80.000	19.996	100.777	20.024	0.743	0.514
1280.001	727.988	79.999	19.995	100.777	20.027	0.546	0.508
1288.000	732.009	79.997	19.995	100.779	20.026	0.586	0.501
1296.000	736.038	79.995	19.996	100.780	20.020	1.011	0.511
1304.000	740.039	79.996	19.995	100.786	20.023	0.790	0.496
1311.000	743.599	79.997	19.996	100.783	20.019	1.036	0.496

File: Wood_Stud_MCC_30K_min_211004_R2.txt
Sample ID:	C:\MCC\MCC Cal\Test\Wood_Stud_MCC_30K_min_211004_R2.txt
Sample Weight (mg):	4.27
Heating Rate (C/s):	0.5
Combustor Temp (C):	900
N2 Flow Rate (cc/min):	80
O2 Flow Rate (cc/min):	20
Calibration File:	C:\MCC\MCC Cal\Coeff1 JN10440_30_210304.txt.txt
T Correction Coefficients:	0	1.024463	0
Time Shift (s):	14
*
Time (s)	Temperature (C)	N2 flow rate (cc/min)	O2 flow rate (cc/min)	Flow Rate (cc/min)	Oxygen (%)	HRR (W/g)	Heating rate (C/s)
0.000	107.895	79.996	19.996	100.702	20.049	0.312	0.019
8.000	107.851	79.995	19.997	100.706	20.047	0.469	-0.027
16.000	107.844	79.996	19.995	100.742	20.044	0.656	0.009
24.000	108.017	79.995	19.995	100.792	20.032	1.535	0.031
32.000	108.550	79.995	19.996	100.862	20.018	2.619	0.043
39.999	109.546	79.996	19.995	100.904	20.008	3.300	0.123
47.999	110.954	79.997	19.995	100.922	20.004	3.643	0.194
56.000	112.846	79.994	19.995	100.944	20.002	3.800	0.282
64.000	114.996	79.995	19.996	100.954	20.006	3.472	0.302
71.999	117.525	79.997	19.996	100.967	20.004	3.659	0.353
79.999	120.340	79.996	19.996	100.966	19.998	4.082	0.342
87.999	123.422	79.995	19.998	100.970	20.001	3.867	0.398
96.000	126.642	79.995	19.996	100.974	19.994	4.345	0.429
103.999	130.047	79.996	19.996	100.974	19.995	4.287	0.429
111.999	133.587	79.994	19.997	100.976	19.992	4.550	0.449
119.999	137.318	79.996	19.996	100.980	19.995	4.283	0.458
127.999	141.167	79.996	19.996	100.976	19.996	4.201	0.481
136.000	145.114	79.995	19.995	100.974	19.997	4.146	0.478
144.000	149.125	79.996	19.996	100.969	19.996	4.208	0.508
152.000	153.118	79.997	19.997	100.962	20.001	3.881	0.491
160.000	157.147	79.994	19.995	100.952	19.994	4.360	0.513
168.000	161.151	79.995	19.995	100.949	19.998	4.103	0.511
176.000	165.188	79.995	19.996	100.941	20.000	3.956	0.515
184.000	169.221	79.996	19.995	100.939	19.997	4.119	0.485
192.000	173.213	79.994	19.997	100.935	20.000	3.908	0.482
200.000	177.237	79.996	19.996	100.931	19.998	4.082	0.498
208.000	181.195	79.996	19.997	100.935	20.002	3.759	0.465
216.000	185.108	79.996	19.996	100.927	20.007	3.376	0.472
224.000	189.092	79.997	19.994	100.927	20.002	3.761	0.459
232.000	193.072	79.997	19.997	100.918	20.003	3.711	0.452
240.000	196.985	79.996	19.995	100.908	20.001	3.848	0.497
248.000	200.854	79.996	19.995	100.926	20.001	3.823	0.511
256.000	204.736	79.996	19.995	100.926	19.997	4.120	0.501
264.000	208.687	79.997	19.997	100.923	19.997	4.134	0.461
272.000	212.592	79.996	19.995	100.927	19.995	4.290	0.491
280.000	216.506	79.997	19.996	100.916	19.992	4.494	0.487
288.000	220.380	79.996	19.997	100.922	19.991	4.616	0.498
296.000	224.269	79.995	19.997	100.916	19.987	4.901	0.496
304.000	228.162	79.997	19.995	100.920	19.982	5.265	0.524
312.000	232.090	79.997	19.995	100.934	19.972	6.018	0.461
320.000	235.939	79.996	19.995	100.931	19.968	6.298	0.485
328.000	239.813	79.995	19.995	100.932	19.959	6.929	0.488
336.000	243.805	79.998	19.996	100.985	19.948	7.756	0.502
344.000	247.739	79.997	19.995	100.935	19.940	8.341	0.542
352.000	251.654	79.994	19.997	100.943	19.926	9.361	0.482
360.000	255.678	79.996	19.997	100.944	19.914	10.295	0.511
368.000	259.620	79.998	19.996	100.942	19.902	11.167	0.516
376.000	263.557	79.996	19.996	100.967	19.884	12.483	0.464
384.000	267.570	79.997	19.996	100.957	19.865	13.894	0.467
392.000	271.584	79.998	19.996	100.970	19.847	15.249	0.505
400.000	275.598	79.995	19.996	100.971	19.824	16.898	0.513
408.000	279.590	79.996	19.996	100.975	19.808	18.130	0.479
416.000	283.623	79.995	19.995	100.975	19.784	19.859	0.496
424.000	287.732	79.996	19.995	101.001	19.761	21.621	0.497
432.000	291.778	79.995	19.995	101.042	19.736	23.388	0.499
440.000	295.907	79.997	19.996	101.012	19.704	25.797	0.520
448.000	299.848	79.996	19.996	101.010	19.672	28.144	0.487
456.000	303.796	79.997	19.995	101.029	19.636	30.771	0.510
464.000	307.776	79.999	19.994	101.025	19.595	33.860	0.476
472.000	311.627	79.999	19.996	101.046	19.558	36.577	0.447
480.000	315.604	79.994	19.997	101.058	19.517	39.615	0.473
488.000	319.573	79.994	19.995	101.077	19.474	42.783	0.482
496.000	323.518	79.996	19.995	101.084	19.437	45.483	0.514
504.000	327.391	79.995	19.996	101.094	19.403	48.013	0.493
512.000	331.279	79.994	19.996	101.103	19.369	50.570	0.462
520.000	335.243	79.996	19.994	101.128	19.343	52.490	0.471
528.000	339.165	79.997	19.995	101.128	19.319	54.247	0.473
536.000	343.174	79.996	19.996	101.130	19.286	56.706	0.511
544.000	347.331	79.997	19.995	101.128	19.252	59.223	0.508
552.000	351.588	79.998	19.995	101.162	19.207	62.510	0.548
560.000	355.941	79.995	19.996	101.160	19.146	67.054	0.555
568.000	360.279	79.994	19.997	101.207	19.081	71.931	0.559
576.000	364.577	79.995	19.997	101.221	19.023	76.168	0.517
584.000	368.885	79.999	19.995	101.224	18.978	79.499	0.523
592.000	373.164	79.993	19.996	101.208	18.971	79.955	0.540
600.000	377.398	79.994	20.000	101.154	19.032	75.419	0.532
608.000	381.630	79.999	19.995	101.090	19.157	66.160	0.545
616.000	385.849	79.998	19.994	101.015	19.331	53.273	0.531
624.000	390.006	79.995	19.998	100.958	19.516	39.585	0.507
632.000	394.195	79.997	19.994	100.913	19.678	27.690	0.494
640.000	398.341	79.997	19.996	100.899	19.785	19.771	0.529
648.000	402.442	79.998	19.995	100.900	19.852	14.860	0.520
656.000	406.462	79.996	19.994	100.894	19.880	12.773	0.513
664.000	410.466	79.997	19.996	100.903	19.894	11.731	0.499
672.000	414.398	79.998	19.993	100.898	19.903	11.075	0.489
680.000	418.322	79.997	19.993	100.902	19.909	10.619	0.463
688.000	422.260	79.997	19.997	100.907	19.913	10.329	0.499
696.000	426.234	80.002	19.992	100.909	19.912	10.390	0.487
704.000	430.131	79.998	19.992	100.898	19.917	10.005	0.459
712.000	434.162	80.000	19.996	100.901	19.918	9.951	0.510
720.000	438.154	79.998	19.994	100.899	19.924	9.523	0.460
728.000	442.154	79.996	19.995	100.897	19.931	9.018	0.522
736.000	446.118	79.994	19.997	100.902	19.929	9.142	0.488
744.000	450.105	79.996	19.995	100.894	19.935	8.726	0.514
752.000	453.942	79.996	19.996	100.898	19.937	8.579	0.112
760.000	458.192	79.995	19.995	100.901	19.945	7.990	0.539
768.000	462.248	79.998	19.997	100.919	19.944	8.036	0.539
776.000	466.277	79.996	19.997	100.908	19.950	7.603	0.514
784.000	470.302	79.996	19.995	100.915	19.954	7.308	0.528
792.000	474.445	79.999	19.994	100.919	19.956	7.177	0.499
800.000	478.535	79.996	19.996	100.923	19.957	7.119	0.524
808.000	482.648	79.995	19.997	100.911	19.960	6.869	0.511
816.000	486.665	79.993	19.997	100.902	19.961	6.785	0.490
824.000	490.736	79.995	19.995	100.916	19.959	6.955	0.502
832.000	494.672	79.995	19.996	100.908	19.961	6.807	0.463
840.000	498.581	79.996	19.996	100.909	19.958	7.057	0.446
848.000	502.473	79.996	19.997	100.929	19.958	7.037	0.482
856.000	506.585	79.997	19.995	100.927	19.958	7.015	0.522
864.000	510.833	79.997	19.995	100.935	19.960	6.876	0.534
872.000	515.192	80.000	19.995	100.930	19.961	6.817	0.553
880.000	519.525	79.997	19.995	100.935	19.960	6.907	0.531
888.000	523.784	79.996	19.996	100.936	19.960	6.895	0.504
896.000	528.165	79.996	19.995	100.928	19.957	7.091	0.549
904.000	532.496	79.996	19.996	100.929	19.958	6.997	0.536
912.000	536.911	79.996	19.996	100.931	19.957	7.111	0.496
920.000	541.317	79.996	19.997	100.929	19.953	7.368	0.572
928.000	545.655	79.996	19.996	100.925	19.954	7.340	0.544
936.000	549.951	79.997	19.996	100.929	19.954	7.318	0.546
944.000	554.254	79.996	19.996	100.927	19.959	6.981	0.566
952.000	558.490	79.999	19.994	100.930	19.956	7.139	0.540
960.000	562.729	79.998	19.995	100.928	19.951	7.503	0.539
968.000	566.792	79.996	19.995	100.929	19.953	7.406	0.480
976.000	570.866	79.996	19.997	100.928	19.949	7.696	0.463
984.000	575.040	79.998	19.995	100.928	19.949	7.713	0.537
992.000	579.123	79.995	19.995	100.926	19.947	7.800	0.517
1000.000	583.127	79.996	19.997	100.933	19.951	7.563	0.494
1008.000	587.193	79.997	19.995	100.930	19.948	7.737	0.511
1016.000	591.310	79.998	19.996	100.930	19.949	7.659	0.521
1024.000	595.413	79.996	19.997	100.930	19.949	7.663	0.515
1032.000	599.456	79.998	19.997	100.930	19.943	8.129	0.493
1040.000	603.514	79.999	19.996	100.930	19.941	8.257	0.538
1047.999	607.478	79.995	19.996	100.930	19.946	7.929	0.509
1055.999	611.481	79.995	19.996	100.934	19.940	8.336	0.522
1063.999	615.597	79.998	19.996	100.934	19.940	8.324	0.538
1071.999	619.621	79.996	19.996	100.935	19.938	8.517	0.505
1080.000	623.641	79.997	19.996	100.936	19.937	8.599	0.508
1087.999	627.656	79.997	19.996	100.932	19.936	8.616	0.522
1095.999	631.641	79.999	19.997	100.929	19.937	8.536	0.469
1103.999	635.665	79.997	19.996	100.929	19.935	8.741	0.506
1111.999	639.694	79.998	19.997	100.932	19.937	8.542	0.513
1119.999	643.733	79.997	19.996	100.933	19.939	8.450	0.525
1127.999	647.767	79.995	19.995	100.935	19.934	8.810	0.515
1135.999	651.840	79.996	19.994	100.935	19.934	8.820	0.520
1143.999	655.865	79.997	19.996	100.930	19.936	8.615	0.493
1151.999	659.939	79.998	19.996	100.931	19.931	9.024	0.492
1159.999	663.993	79.998	19.996	100.933	19.934	8.793	0.493
1167.999	668.075	79.997	19.996	100.934	19.928	9.217	0.561
1176.000	672.083	80.000	19.996	100.929	19.930	9.097	0.480
1183.999	676.126	79.998	19.997	100.937	19.929	9.183	0.493
1192.000	680.091	79.998	19.997	100.936	19.925	9.421	0.502
1199.999	683.905	79.999	19.996	100.938	19.924	9.516	0.450
1208.000	687.608	79.997	19.997	100.935	19.925	9.456	0.449
1215.999	691.444	79.997	19.998	100.931	19.922	9.642	0.481
1223.999	695.443	79.996	19.996	100.931	19.922	9.663	0.504
1231.999	699.519	79.999	19.996	100.938	19.920	9.860	0.491
1239.999	703.696	79.997	19.995	100.937	19.921	9.745	0.514
1247.999	707.917	79.998	19.995	100.943	19.915	10.217	0.518
1255.999	712.157	80.000	19.995	100.951	19.915	10.205	0.462
1264.000	716.463	79.998	19.994	100.953	19.911	10.519	0.560
1271.999	720.588	79.997	19.997	100.945	19.910	10.542	0.511
1279.999	724.773	80.000	19.995	100.939	19.908	10.705	0.521
1287.999	728.929	79.999	19.996	100.935	19.903	11.071	0.534
1295.999	733.102	79.997	19.998	100.956	19.909	10.655	0.529
1303.999	737.180	79.997	19.997	100.943	19.902	11.159	0.503
1311.999	741.328	79.997	19.995	100.942	19.902	11.123	0.511
1316.499	743.647	79.997	19.994	100.959	19.903	11.077	0.522