Folder: fsri_materials_database/01_Data/Straw/STA/N2/10K_min (part 2)

File: Straw_STA_N2_10KData_220429_R2.csv
##Temp./Â°C,Time/min,Mass loss(subtr.2)/mg,DSC(subtr.2)/(mW/mg),Sensit./(uV/mW)
49.763,10.00917,0.00823,0.00213688,1.06051
52.863,11.30715,0.01005046,0.09923152,1.05986
55.963,11.74878,0.01072687,0.14788,1.0592
59.063,12.1263,0.01019362,0.17716,1.05852
62.163,12.4783,0.01138147,0.19618,1.05782
65.263,12.81911,0.008549944,0.21348,1.05711
68.363,13.1531,0.01214041,0.22687,1.05637
71.463,13.4836,0.008437754,0.23831,1.05562
74.563,13.81044,0.008450001,0.25102,1.05485
77.663,14.13445,0.008367648,0.26319,1.05407
80.763,14.4549,0.003204491,0.27556,1.05326
83.863,14.7717,0.0004634894,0.28271,1.05244
86.963,15.086,0.00465983,0.28905,1.0516
90.063,15.3977,0.0003363046,0.29195,1.05075
93.163,15.7065,-0.000673817,0.29135,1.04988
96.263,16.01441,-0.0046134,0.2893,1.04899
99.363,16.32003,-0.004193302,0.28377,1.04808
102.463,16.62521,-0.004270227,0.27886,1.04716
105.563,16.92954,-0.00471,0.27492,1.04621
108.663,17.233,-0.005378423,0.26789,1.04526
111.763,17.5369,-0.005709847,0.26055,1.04428
114.863,17.83934,-0.00603034,0.25866,1.04329
117.963,18.1418,-0.008749055,0.25192,1.04229
121.063,18.44341,-0.006358103,0.2491,1.04126
124.163,18.74509,-0.00608378,0.24746,1.04022
127.263,19.04645,-0.00764561,0.24528,1.03917
130.363,19.34675,-0.006171495,0.24719,1.03809
133.463,19.64641,-0.00504357,0.24948,1.037
136.563,19.94598,-0.00692693,0.25038,1.0359
139.663,20.24481,-0.008194939,0.25336,1.03478
142.763,20.54308,-0.009532718,0.25474,1.03364
145.863,20.84139,-0.00558957,0.25665,1.03249
148.963,21.13989,-0.00525868,0.26077,1.03132
152.063,21.43712,-0.007899222,0.26509,1.03014
155.163,21.7346,-0.008709215,0.26546,1.02894
158.263,22.0319,-0.006556288,0.26999,1.02772
161.363,22.3298,-0.007512348,0.27346,1.02649
164.463,22.6271,-0.007899945,0.2774,1.02525
167.563,22.92325,-0.01045675,0.28052,1.02399
170.663,23.2196,-0.01049298,0.28353,1.02271
173.763,23.51662,-0.008234029,0.28351,1.02142
176.863,23.81328,-0.01085476,0.28573,1.02011
179.963,24.1095,-0.01216998,0.28583,1.01879
183.063,24.40598,-0.0141518,0.2872,1.01745
186.163,24.70206,-0.01678109,0.28835,1.0161
189.263,24.99806,-0.01908,0.28851,1.01474
192.363,25.29401,-0.01942017,0.29106,1.01336
195.463,25.58989,-0.02175782,0.29843,1.01196
198.563,25.88485,-0.02674079,0.30056,1.01055
201.663,26.17973,-0.0294,0.30316,1.00913
204.763,26.4744,-0.03333335,0.30395,1.00769
207.863,26.76871,-0.04124333,0.30655,1.00624
210.963,27.06373,-0.04816475,0.30311,1.00477
214.063,27.35857,-0.05450646,0.30146,1.00329
217.163,27.65428,-0.06734643,0.30092,1.0018
220.263,27.94906,-0.07557396,0.303,1.00029
223.363,28.2442,-0.09034439,0.3093,0.99877
226.463,28.54,-0.10475,0.31208,0.99723
229.563,28.83505,-0.11966,0.31745,0.99568
232.663,29.12971,-0.13788,0.3256,0.99412
235.763,29.4245,-0.15612,0.32825,0.99255
238.863,29.71922,-0.17616,0.32949,0.99096
241.963,30.01405,-0.19904,0.32915,0.98936
245.063,30.3091,-0.2187,0.32788,0.98774
248.163,30.60365,-0.24237,0.32163,0.98611
251.263,30.89953,-0.26524,0.31462,0.98447
254.363,31.1951,-0.29095,0.3085,0.98282
257.463,31.49062,-0.31407,0.30437,0.98115
260.563,31.78605,-0.34313,0.2935,0.97947
263.663,32.08117,-0.3722,0.28223,0.97778
266.763,32.37696,-0.40541,0.27595,0.97607
269.863,32.67156,-0.43925,0.2667,0.97436
272.963,32.96748,-0.4788,0.25467,0.97263
276.063,33.26338,-0.52445,0.24697,0.97089
279.163,33.5593,-0.57532,0.23909,0.96913
282.263,33.8553,-0.63749,0.22825,0.96737
285.363,34.15227,-0.70358,0.21827,0.96559
288.463,34.44854,-0.77236,0.20773,0.9638
291.563,34.74514,-0.84851,0.19855,0.962
294.663,35.0422,-0.93101,0.19067,0.96019
297.763,35.33876,-1.02666,0.18092,0.95836
300.863,35.63602,-1.12486,0.1723,0.95653
303.963,35.93274,-1.22861,0.16325,0.95468
307.063,36.2297,-1.33394,0.15119,0.95282
310.163,36.52632,-1.448,0.13678,0.95095
313.263,36.82358,-1.5648,0.11619,0.94907
316.363,37.12153,-1.68318,0.09431765,0.94718
319.463,37.41888,-1.7944,0.06489493,0.94527
322.563,37.7164,-1.90886,0.03754224,0.94336
325.663,38.01401,-2.01195,0.008307357,0.94143
328.763,38.31194,-2.10003,-0.006101314,0.9395
331.863,38.60989,-2.16875,-0.005501006,0.93755
334.963,38.90805,-2.2241,0.0177809,0.9356
338.063,39.20748,-2.26123,0.03287424,0.93363
341.163,39.5062,-2.28725,0.0373151,0.93165
344.263,39.80577,-2.31243,0.03497337,0.92966
347.363,40.10518,-2.33186,0.03355981,0.92767
350.463,40.40497,-2.34758,0.03016764,0.92566
353.563,40.70422,-2.3677,0.02863315,0.92364
356.663,41.0039,-2.37903,0.02236836,0.92161
359.763,41.30318,-2.3955,0.01933333,0.91958
362.863,41.60309,-2.40683,0.01826965,0.91753
365.963,41.90307,-2.41857,0.01572337,0.91547
369.063,42.20348,-2.43085,0.009147728,0.91341
372.163,42.50468,-2.4448,0.00704375,0.91133
375.263,42.80583,-2.4522,0.001893717,0.90925
378.363,43.10669,-2.46212,-9.31086e-05,0.90715
381.463,43.40848,-2.47196,-0.001651745,0.90505
384.563,43.70949,-2.48331,0.001084336,0.90293
387.663,44.01109,-2.49196,0.003054996,0.90081
390.763,44.31215,-2.50107,0.002076511,0.89868
393.863,44.61435,-2.50885,0.002167291,0.89654
396.963,44.9163,-2.51901,0.005251586,0.89439
400.063,45.21823,-2.52686,0.00931395,0.89224
403.163,45.52012,-2.53506,0.01230304,0.89007
406.263,45.8221,-2.54677,0.01633843,0.8879
409.363,46.1241,-2.55255,0.01972191,0.88572
412.463,46.42615,-2.56053,0.02271706,0.88353
415.563,46.7288,-2.56863,0.02954126,0.88133
418.663,47.0311,-2.5778,0.03110539,0.87912
421.763,47.33381,-2.58546,0.03342109,0.87691
424.863,47.6373,-2.59111,0.03713245,0.87468
427.963,47.94076,-2.59901,0.04037582,0.87245
431.063,48.24459,-2.60491,0.04497778,0.87021
434.163,48.54786,-2.61535,0.04658039,0.86797
437.263,48.85159,-2.62143,0.05087403,0.86572
440.363,49.15518,-2.62716,0.05042849,0.86345
443.463,49.4593,-2.63455,0.05171369,0.86119
446.563,49.7639,-2.64238,0.05240442,0.85891
449.663,50.06842,-2.64914,0.0532493,0.85663
452.763,50.37314,-2.65406,0.05768934,0.85434
455.863,50.67747,-2.65846,0.05875982,0.85204
458.963,50.9816,-2.66265,0.05863216,0.84974
462.063,51.28633,-2.6699,0.0604257,0.84742
465.163,51.59129,-2.67614,0.0650303,0.84511
468.263,51.89687,-2.68182,0.06176161,0.84278
471.363,52.202,-2.68407,0.06416351,0.84045
474.463,52.5069,-2.69063,0.06157206,0.83811
477.563,52.81245,-2.6954,0.06360058,0.83577
480.663,53.1175,-2.70201,0.0646635,0.83342
483.763,53.4227,-2.70032,0.06698669,0.83106
486.863,53.72809,-2.70979,0.07940241,0.8287
489.963,54.03377,-2.71611,0.09000218,0.82633
493.063,54.3402,-2.71649,0.10181,0.82395
496.163,54.64594,-2.72307,0.1119,0.82157
499.263,54.9519,-2.72438,0.11562,0.81918
502.363,55.25872,-2.72711,0.11651,0.81679
505.463,55.5658,-2.73371,0.11437,0.81439
508.563,55.87259,-2.73771,0.1122,0.81199
511.663,56.17946,-2.7416,0.11062,0.80958
514.763,56.4864,-2.74259,0.10631,0.80716
517.863,56.7933,-2.74666,0.08850935,0.80474
520.963,57.10065,-2.7506,0.07869361,0.80231
524.063,57.408,-2.7539,0.07240185,0.79988
527.163,57.71578,-2.75595,0.070388,0.79745
530.263,58.02335,-2.75717,0.06581777,0.795
533.363,58.3309,-2.76311,0.06228524,0.79256
536.463,58.63876,-2.76509,0.06115007,0.79011
539.563,58.94725,-2.76705,0.06104476,0.78765
542.663,59.2553,-2.77232,0.06350907,0.78519
545.763,59.5631,-2.77099,0.05918952,0.78272
548.863,59.87135,-2.77526,0.05680132,0.78025
551.963,60.18028,-2.77889,0.05595224,0.77778
555.063,60.4897,-2.77925,0.05491073,0.7753
558.163,60.79991,-2.78278,0.04984702,0.77282
561.263,61.1096,-2.78318,0.05123872,0.77033
564.363,61.41864,-2.78449,0.0525724,0.76784
567.463,61.7289,-2.78713,0.05479288,0.76534
570.563,62.03835,-2.78935,0.06095977,0.76284
573.663,62.3478,-2.79239,0.05902262,0.76034
576.763,62.65707,-2.79239,0.06291545,0.75783
579.863,62.96646,-2.79465,0.06692879,0.75532
582.963,63.2772,-2.79601,0.07100804,0.7528
586.063,63.58824,-2.79642,0.07273105,0.75028
589.163,63.89906,-2.80127,0.06517618,0.74776
592.263,64.21043,-2.80174,0.06890218,0.74524
595.363,64.52107,-2.80517,0.07059491,0.74271
598.463,64.8313,-2.80392,0.06505758,0.74018
601.563,65.14148,-2.8084,0.0639884,0.73764
604.663,65.45173,-2.80709,0.06236804,0.7351
607.763,65.76268,-2.80989,0.06191879,0.73256
610.863,66.0735,-2.81005,0.05570909,0.73002
613.963,66.38432,-2.81136,0.05890288,0.72747
617.063,66.6956,-2.81159,0.05367238,0.72492
620.163,67.00695,-2.81016,0.05216441,0.72236
623.263,67.31806,-2.81202,0.05188685,0.71981
626.363,67.6297,-2.81465,0.05292512,0.71725
629.463,67.94045,-2.81729,0.05516665,0.71469
632.563,68.25089,-2.81895,0.04942079,0.71213
635.663,68.56272,-2.82255,0.0485292,0.70956
638.763,68.8742,-2.82288,0.04673425,0.70699
641.863,69.18597,-2.81738,0.04255822,0.70442
644.963,69.49792,-2.82442,0.04832736,0.70185
648.063,69.81006,-2.82311,0.04299303,0.69928
651.163,70.1224,-2.81908,0.04445584,0.6967
654.263,70.43466,-2.82202,0.04593,0.69412
657.363,70.7467,-2.82584,0.04554636,0.69154
660.463,71.0583,-2.82628,0.04492746,0.68896
663.563,71.36994,-2.82759,0.04399383,0.68638
666.663,71.682,-2.82891,0.04725708,0.68379
669.763,71.9939,-2.83027,0.04597793,0.68121
672.863,72.3055,-2.83122,0.04422965,0.67862
675.963,72.61686,-2.83287,0.04376667,0.67603
679.063,72.92868,-2.8332,0.04913975,0.67344
682.163,73.24184,-2.83121,0.04501772,0.67085
685.263,73.55466,-2.83187,0.0501359,0.66826
688.363,73.8682,-2.83462,0.0526537,0.66566
691.463,74.18105,-2.83595,0.05617802,0.66307
694.563,74.49428,-2.83809,0.05908036,0.66047
697.663,74.8082,-2.83719,0.06199023,0.65787
700.763,75.12171,-2.84008,0.06609549,0.65528
703.863,75.43566,-2.83859,0.0689391,0.65268
706.963,75.7483,-2.83857,0.07081747,0.65008
710.063,76.06102,-2.8412,0.06788396,0.64748
713.163,76.3746,-2.84318,0.07050531,0.64488
716.263,76.6871,-2.84321,0.06812159,0.64228
719.363,77.00018,-2.83922,0.07439801,0.63968
722.463,77.31362,-2.84465,0.06849885,0.63708
725.563,77.62701,-2.8459,0.06847916,0.63448
728.663,77.94155,-2.84575,0.06975851,0.63188
731.763,78.25554,-2.84229,0.07344223,0.62928
734.863,78.56976,-2.84667,0.07006135,0.62668
737.963,78.88425,-2.84888,0.07200705,0.62407
741.063,79.1985,-2.84361,0.06707291,0.62147
744.163,79.51256,-2.84931,0.0702972,0.61887
747.263,79.82643,-2.84729,0.06344376,0.61627
748.863,79.98917,-2.8525,0.06541255,0.61493