Folder: fsri_materials_database/01_Data/Straw/STA/N2/30K_min (part 2)

File: Straw_STA_N2_30KData_220429_R2.csv
##Temp./Â°C,Time/min,Mass loss(subtr.2)/mg,DSC(subtr.2)/(mW/mg),Sensit./(uV/mW)
48.538,10.00667,-0.01065,0.006468068,1.07504
51.538,10.866,-0.01060267,0.1417,1.07372
54.538,11.09285,-0.01173818,0.23732,1.07238
57.538,11.2665,-0.01163555,0.3123,1.07104
60.538,11.4154,-0.01168706,0.37759,1.06968
63.538,11.55085,-0.01307701,0.43149,1.06832
66.538,11.6768,-0.0126208,0.47939,1.06694
69.538,11.79696,-0.01305185,0.51852,1.06556
72.538,11.91257,-0.01281234,0.55838,1.06416
75.538,12.0253,-0.01400707,0.59501,1.06276
78.538,12.13512,-0.01326994,0.62567,1.06135
81.538,12.24346,-0.01457278,0.65597,1.05992
84.538,12.34978,-0.01347767,0.68533,1.05849
87.538,12.45496,-0.01283055,0.70917,1.05705
90.538,12.55878,-0.01392662,0.73341,1.0556
93.538,12.6614,-0.01566794,0.76141,1.05414
96.538,12.7638,-0.01759937,0.78511,1.05267
99.538,12.8652,-0.02046445,0.80676,1.05119
102.538,12.9662,-0.02128,0.82288,1.04971
105.538,13.06718,-0.02227017,0.84099,1.04821
108.538,13.16792,-0.02096,0.85129,1.04671
111.538,13.2684,-0.02096001,0.85674,1.0452
114.538,13.36825,-0.02227001,0.86442,1.04368
117.538,13.468,-0.02272451,0.86742,1.04215
120.538,13.56732,-0.02491066,0.867,1.04061
123.538,13.6662,-0.02622011,0.86578,1.03907
126.538,13.76472,-0.0268822,0.86673,1.03751
129.538,13.86251,-0.02819997,0.86691,1.03595
132.538,13.9603,-0.0282,0.86274,1.03438
135.538,14.05689,-0.03084268,0.86275,1.0328
138.538,14.15368,-0.03017028,0.85737,1.03122
141.538,14.25,-0.02852,0.85698,1.02962
144.538,14.34583,-0.02785316,0.8568,1.02802
147.538,14.4411,-0.02917997,0.86319,1.02641
150.538,14.53641,-0.03050001,0.87003,1.0248
153.538,14.6309,-0.03049948,0.87493,1.02317
156.538,14.72595,-0.02984,0.88384,1.02154
159.538,14.8201,-0.0298405,0.89161,1.01991
162.538,14.91421,-0.02983996,0.90251,1.01826
165.538,15.0084,-0.02984,0.91192,1.01661
168.538,15.10215,-0.03052552,0.92318,1.01495
171.538,15.1957,-0.03182029,0.93397,1.01328
174.538,15.28878,-0.03247002,0.94062,1.01161
177.538,15.38195,-0.03375368,0.95084,1.00993
180.538,15.4747,-0.03477993,0.96289,1.00824
183.538,15.5671,-0.03510978,0.97132,1.00655
186.538,15.6594,-0.03577303,0.97975,1.00485
189.538,15.75146,-0.03642975,0.98627,1.00314
192.538,15.84296,-0.03905136,0.99388,1.00143
195.538,15.93472,-0.03913434,1.00099,0.99971
198.538,16.02629,-0.04169036,1.00459,0.99798
201.538,16.11767,-0.04300237,1.01173,0.99625
204.538,16.20893,-0.04299676,1.01809,0.99451
207.538,16.3,-0.04563999,1.02162,0.99276
210.538,16.39106,-0.04838083,1.02207,0.99101
213.538,16.48227,-0.05118047,1.02395,0.98925
216.538,16.57326,-0.05615165,1.02432,0.98749
219.538,16.66405,-0.0613421,1.02172,0.98572
222.538,16.755,-0.06779273,1.02044,0.98394
225.538,16.84591,-0.07424927,1.02195,0.98216
228.538,16.93654,-0.08015302,1.02835,0.98038
231.538,17.0271,-0.08941828,1.03491,0.97858
234.538,17.11767,-0.09850403,1.04289,0.97679
237.538,17.20834,-0.11041,1.05623,0.97498
240.538,17.2988,-0.11956,1.07096,0.97317
243.538,17.38949,-0.13359,1.0861,0.97136
246.538,17.4796,-0.14716,1.10009,0.96954
249.538,17.57056,-0.1647,1.10848,0.96771
252.538,17.66077,-0.18233,1.11793,0.96588
255.538,17.75114,-0.198,1.12178,0.96405
258.538,17.84156,-0.21711,1.11894,0.96221
261.538,17.93195,-0.23667,1.11268,0.96036
264.538,18.02223,-0.25677,1.10251,0.95851
267.538,18.11271,-0.27617,1.08581,0.95665
270.538,18.20288,-0.29848,1.06548,0.95479
273.538,18.2933,-0.32127,1.04103,0.95293
276.538,18.3835,-0.34324,1.01443,0.95105
279.538,18.47373,-0.36736,0.98634,0.94918
282.538,18.56417,-0.39424,0.953,0.9473
285.538,18.65436,-0.42634,0.91587,0.94541
288.538,18.74472,-0.45814,0.87865,0.94352
291.538,18.83537,-0.49419,0.83988,0.94163
294.538,18.92576,-0.53622,0.79564,0.93973
297.538,19.01608,-0.58081,0.75135,0.93782
300.538,19.10656,-0.6325,0.70649,0.93592
303.538,19.19687,-0.68741,0.6607,0.934
306.538,19.28742,-0.7479,0.61381,0.93209
309.538,19.37775,-0.81511,0.5721,0.93016
312.538,19.46815,-0.89167,0.5309,0.92824
315.538,19.5587,-0.97165,0.49527,0.92631
318.538,19.64926,-1.05768,0.45868,0.92437
321.538,19.73992,-1.14889,0.43263,0.92244
324.538,19.8305,-1.24659,0.40277,0.92049
327.538,19.9212,-1.35018,0.37434,0.91855
330.538,20.0122,-1.45319,0.3416,0.9166
333.538,20.1031,-1.55835,0.30452,0.91464
336.538,20.19419,-1.66387,0.25858,0.91268
339.538,20.28538,-1.76838,0.20265,0.91072
342.538,20.3766,-1.87181,0.14042,0.90875
345.538,20.46785,-1.96983,0.06988576,0.90678
348.538,20.5594,-2.0593,0.02080719,0.90481
351.538,20.65084,-2.1332,0.01712255,0.90283
354.538,20.74295,-2.18951,0.06752675,0.90085
357.538,20.835,-2.22983,0.1456,0.89886
360.538,20.92696,-2.2606,0.20614,0.89687
363.538,21.0194,-2.28464,0.24107,0.89488
366.538,21.11156,-2.30326,0.25599,0.89288
369.538,21.20415,-2.32129,0.25885,0.89088
372.538,21.29641,-2.33601,0.25137,0.88888
375.538,21.38909,-2.34973,0.24641,0.88687
378.538,21.4817,-2.36152,0.23688,0.88486
381.538,21.57447,-2.37367,0.22633,0.88284
384.538,21.66715,-2.38418,0.21486,0.88083
387.538,21.75985,-2.39499,0.20444,0.8788
390.538,21.85272,-2.4054,0.19309,0.87678
393.538,21.94554,-2.41541,0.18002,0.87475
396.538,22.0385,-2.42511,0.17014,0.87272
399.538,22.13157,-2.43382,0.16176,0.87069
402.538,22.22474,-2.44053,0.15257,0.86865
405.538,22.3181,-2.45049,0.14714,0.86661
408.538,22.41133,-2.45836,0.14189,0.86456
411.538,22.5049,-2.46766,0.14143,0.86251
414.538,22.5982,-2.47596,0.13979,0.86046
417.538,22.69213,-2.48621,0.13945,0.85841
420.538,22.7859,-2.4927,0.1447,0.85635
423.538,22.87964,-2.50118,0.15216,0.85429
426.538,22.97352,-2.50929,0.16226,0.85223
429.538,23.0674,-2.5158,0.16769,0.85016
432.538,23.1617,-2.52317,0.17939,0.84809
435.538,23.25585,-2.52956,0.18948,0.84602
438.538,23.3502,-2.53722,0.19721,0.84395
441.538,23.44458,-2.54368,0.20839,0.84187
444.538,23.53906,-2.55049,0.2163,0.83979
447.538,23.63372,-2.55799,0.22888,0.8377
450.538,23.72853,-2.56493,0.23592,0.83562
453.538,23.82281,-2.57136,0.24333,0.83353
456.538,23.9179,-2.57582,0.25232,0.83143
459.538,24.01306,-2.58344,0.25742,0.82934
462.538,24.10809,-2.58547,0.26253,0.82724
465.538,24.2031,-2.59351,0.26726,0.82514
468.538,24.29826,-2.60105,0.26998,0.82304
471.538,24.39391,-2.60856,0.27363,0.82093
474.538,24.48912,-2.61355,0.27351,0.81882
477.538,24.58471,-2.61722,0.27428,0.81671
480.538,24.68016,-2.62195,0.27722,0.8146
483.538,24.77597,-2.62628,0.2791,0.81248
486.538,24.87162,-2.63077,0.27993,0.81036
489.538,24.9674,-2.63594,0.28077,0.80824
492.538,25.06329,-2.6424,0.27864,0.80611
495.538,25.15925,-2.64552,0.28156,0.80399
498.538,25.25531,-2.65025,0.28142,0.80186
501.538,25.35146,-2.65546,0.28092,0.79973
504.538,25.44751,-2.65827,0.2816,0.79759
507.538,25.54364,-2.66229,0.28154,0.79545
510.538,25.63994,-2.66658,0.28218,0.79331
513.538,25.73622,-2.67122,0.28558,0.79117
516.538,25.83227,-2.6747,0.2847,0.78903
519.538,25.92855,-2.678,0.2872,0.78688
522.538,26.02506,-2.68252,0.2894,0.78473
525.538,26.12164,-2.68625,0.29161,0.78258
528.538,26.2182,-2.68954,0.29246,0.78043
531.538,26.31458,-2.69235,0.29845,0.77827
534.538,26.4114,-2.695,0.30678,0.77611
537.538,26.50801,-2.69631,0.31524,0.77395
540.538,26.6043,-2.69952,0.32764,0.77179
543.538,26.70178,-2.70409,0.33337,0.76963
546.538,26.79865,-2.70464,0.34336,0.76746
549.538,26.89558,-2.7064,0.35207,0.76529
552.538,26.9927,-2.70903,0.36054,0.76312
555.538,27.0898,-2.71211,0.36411,0.76094
558.538,27.18705,-2.71474,0.36959,0.75877
561.538,27.28449,-2.71604,0.36955,0.75659
564.538,27.38178,-2.71797,0.36782,0.75441
567.538,27.4793,-2.72012,0.35652,0.75223
570.538,27.5767,-2.72274,0.34618,0.75004
573.538,27.67452,-2.72486,0.33851,0.74786
576.538,27.7723,-2.72687,0.33475,0.74567
579.538,27.87,-2.72934,0.33276,0.74348
582.538,27.9679,-2.73196,0.32923,0.74129
585.538,28.06584,-2.73327,0.3275,0.73909
588.538,28.16385,-2.73583,0.32688,0.7369
591.538,28.26209,-2.73637,0.32616,0.7347
594.538,28.36007,-2.7392,0.3254,0.7325
597.538,28.45843,-2.74052,0.32116,0.7303
600.538,28.5567,-2.74051,0.32128,0.72809
603.538,28.6551,-2.74407,0.32202,0.72589
606.538,28.7536,-2.74446,0.31958,0.72368
609.538,28.85193,-2.74578,0.31504,0.72147
612.538,28.95058,-2.74709,0.3202,0.71926
615.538,29.04897,-2.7471,0.31649,0.71705
618.538,29.1478,-2.74972,0.31366,0.71483
621.538,29.2463,-2.75103,0.31154,0.71262
624.538,29.34497,-2.75105,0.30522,0.7104
627.538,29.44408,-2.75479,0.30008,0.70818
630.538,29.5426,-2.75539,0.29362,0.70596
633.538,29.6415,-2.755,0.28991,0.70373
636.538,29.7402,-2.75666,0.2844,0.70151
639.538,29.83918,-2.75959,0.2797,0.69928
642.538,29.93787,-2.75959,0.27063,0.69706
645.538,30.0369,-2.7596,0.2657,0.69483
648.538,30.13577,-2.75977,0.26602,0.6926
651.538,30.23439,-2.76222,0.25903,0.69036
654.538,30.33366,-2.76223,0.25084,0.68813
657.538,30.4327,-2.76355,0.24577,0.68589
660.538,30.5316,-2.76487,0.23896,0.68366
663.538,30.6307,-2.76652,0.23125,0.68142
666.538,30.72962,-2.76684,0.22566,0.67918
669.538,30.8284,-2.76927,0.22396,0.67694
672.538,30.92782,-2.76947,0.21552,0.6747
675.538,31.027,-2.76947,0.21391,0.67245
678.538,31.12609,-2.77207,0.20576,0.67021
681.538,31.22537,-2.7721,0.19761,0.66796
684.538,31.3248,-2.77256,0.19204,0.66572
687.538,31.4243,-2.77408,0.19157,0.66347
690.538,31.5234,-2.7754,0.17903,0.66122
693.538,31.62306,-2.77671,0.17952,0.65897
696.538,31.72225,-2.77816,0.16946,0.65672
699.538,31.8217,-2.7766,0.16791,0.65446
702.538,31.9215,-2.77792,0.16056,0.65221
705.538,32.0212,-2.77792,0.15976,0.64995
708.538,32.12103,-2.77924,0.15243,0.6477
711.538,32.2206,-2.78055,0.15045,0.64544
714.538,32.32047,-2.78056,0.14438,0.64318
717.538,32.42044,-2.78186,0.13812,0.64092
720.538,32.5201,-2.78219,0.13762,0.63866
723.538,32.6203,-2.78055,0.13667,0.6364
726.538,32.7202,-2.78055,0.12617,0.63414
729.538,32.8202,-2.78055,0.13079,0.63188
732.538,32.9203,-2.78354,0.12513,0.62962
735.538,33.02026,-2.78581,0.1195,0.62735
738.538,33.1205,-2.78713,0.1187,0.62509
741.538,33.22059,-2.78977,0.11178,0.62282
744.538,33.3207,-2.78871,0.10748,0.62056
744.838,33.3309,-2.78842,0.1071,0.62033