Folder: fsri_materials_database/01_Data/Straw/STA/N2/30K_min

Note: 01_Data/README.md
# Materials and Products Database
## 01_Data

Raw data generated from each apparatus are included here in plain-text format. The data is organized first by material, next by the short name of test apparatus used, and where applicable additional filtering by test settings.

### material.json

Each material directory contains a json file of the same name as the material. This file links the data stored in the repository as well as data and graphs produced by the accompanying scripts (__02_Scripts__) to the respective landing page for the material on the front-end website.

File: Straw_STA_N2_30KData_22054_R3.csv
##Temp./Â°C,Time/min,Mass loss(subtr.2)/mg,DSC(subtr.2)/(mW/mg),Sensit./(uV/mW)
48.735,10.00667,0.00527,0.009813816,1.07495
51.735,10.86627,0.003125633,0.16091,1.07363
54.735,11.09225,0.001392141,0.26591,1.07229
57.735,11.26551,0.003571119,0.34804,1.07095
60.735,11.41427,0.003417209,0.41847,1.06959
63.735,11.5494,0.005173232,0.48018,1.06823
66.735,11.6752,0.002193511,0.53491,1.06685
69.735,11.79525,0.00165165,0.585,1.06547
72.735,11.91122,0.002569943,0.63138,1.06407
75.735,12.02379,0.0012454,0.67487,1.06267
78.735,12.13393,0.0008661161,0.71618,1.06125
81.735,12.24258,-0.0007965356,0.75488,1.05983
84.735,12.34877,-0.00163925,0.79456,1.0584
87.735,12.45406,-0.003160715,0.83338,1.05696
90.735,12.55834,-0.005260779,0.86868,1.0555
93.735,12.66138,-0.005352759,0.90016,1.05404
96.735,12.7639,-0.007913839,0.92662,1.05257
99.735,12.8652,-0.009426588,0.94865,1.0511
102.735,12.96673,-0.01119112,0.96468,1.04961
105.735,13.0678,-0.01382322,0.9736,1.04811
108.735,13.1686,-0.01602811,0.98096,1.04661
111.735,13.2689,-0.01776995,0.97641,1.0451
114.735,13.3694,-0.01907978,0.9708,1.04358
117.735,13.46931,-0.02138977,0.96179,1.04205
120.735,13.56865,-0.02073426,0.95398,1.04051
123.735,13.6676,-0.02172006,0.94175,1.03896
126.735,13.7661,-0.0220404,0.93044,1.03741
129.735,13.86449,-0.02369,0.92583,1.03585
132.735,13.9618,-0.02369,0.92161,1.03428
135.735,14.05894,-0.02397875,0.91301,1.0327
138.735,14.1557,-0.02401994,0.90845,1.03111
141.735,14.2519,-0.02401996,0.90472,1.02952
144.735,14.3477,-0.02402,0.90513,1.02792
147.735,14.44319,-0.0253307,0.90994,1.02631
150.735,14.53845,-0.02545849,0.9157,1.02469
153.735,14.633,-0.02533034,0.92267,1.02307
156.735,14.7278,-0.02533,0.93187,1.02144
159.735,14.8225,-0.02533027,0.94104,1.0198
162.735,14.91656,-0.02665001,0.95093,1.01815
165.735,15.0107,-0.02631999,0.96127,1.0165
168.735,15.10436,-0.02767577,0.97128,1.01484
171.735,15.198,-0.02843604,0.98356,1.01317
174.735,15.29139,-0.0289603,0.99095,1.0115
177.735,15.3845,-0.02797,1.00291,1.00982
180.735,15.47735,-0.02797,1.01317,1.00813
183.735,15.5697,-0.02994075,1.02438,1.00644
186.735,15.66189,-0.02993999,1.03323,1.00473
189.735,15.7539,-0.03125995,1.0395,1.00303
192.735,15.84586,-0.03258395,1.04882,1.00131
195.735,15.9375,-0.03324,1.05568,0.99959
198.735,16.02907,-0.03379935,1.06136,0.99787
201.735,16.1204,-0.03586988,1.06859,0.99613
204.735,16.21153,-0.03719105,1.07057,0.99439
207.735,16.30304,-0.03969752,1.07612,0.99265
210.735,16.3943,-0.04123519,1.07668,0.9909
213.735,16.48537,-0.04569807,1.07571,0.98914
216.735,16.57633,-0.04854334,1.07246,0.98737
219.735,16.66753,-0.05333515,1.07199,0.9856
222.735,16.75856,-0.05885082,1.07389,0.98383
225.735,16.84933,-0.064289,1.07642,0.98205
228.735,16.94021,-0.07229552,1.08081,0.98026
231.735,17.03095,-0.08146257,1.08979,0.97847
234.735,17.12174,-0.09298049,1.09748,0.97667
237.735,17.21256,-0.10157,1.1121,0.97486
240.735,17.30311,-0.11499,1.12544,0.97305
243.735,17.3936,-0.12878,1.1398,0.97124
246.735,17.48432,-0.14311,1.15397,0.96942
249.735,17.57453,-0.15867,1.16406,0.96759
252.735,17.66566,-0.17313,1.17071,0.96576
255.735,17.756,-0.1926,1.17518,0.96393
258.735,17.84655,-0.21014,1.17364,0.96209
261.735,17.93704,-0.23,1.16758,0.96024
264.735,18.02721,-0.2484,1.15469,0.95839
267.735,18.11778,-0.26833,1.13712,0.95653
270.735,18.2082,-0.29132,1.11944,0.95467
273.735,18.29857,-0.31502,1.09557,0.9528
276.735,18.389,-0.3364,1.06974,0.95093
279.735,18.47945,-0.36102,1.04061,0.94905
282.735,18.56961,-0.38842,1.00628,0.94717
285.735,18.66029,-0.4191,0.97334,0.94529
288.735,18.75079,-0.45094,0.93324,0.9434
291.735,18.84131,-0.48682,0.89727,0.9415
294.735,18.9317,-0.52789,0.85342,0.9396
297.735,19.02228,-0.57235,0.80673,0.9377
300.735,19.11295,-0.62289,0.76177,0.93579
303.735,19.20362,-0.67819,0.71835,0.93388
306.735,19.29401,-0.74072,0.67031,0.93196
309.735,19.38449,-0.80871,0.63214,0.93004
312.735,19.4752,-0.88227,0.59077,0.92811
315.735,19.56595,-0.96314,0.55218,0.92618
318.735,19.65656,-1.04981,0.51452,0.92425
321.735,19.74731,-1.14282,0.48069,0.92231
324.735,19.83824,-1.23839,0.45009,0.92037
327.735,19.92875,-1.3404,0.41432,0.91842
330.735,20.0198,-1.44402,0.37805,0.91647
333.735,20.11075,-1.54955,0.33892,0.91451
336.735,20.20188,-1.65777,0.28967,0.91255
339.735,20.2932,-1.76319,0.23219,0.91059
342.735,20.38443,-1.86591,0.16572,0.90862
345.735,20.47564,-1.96279,0.09364654,0.90665
348.735,20.56697,-2.0514,0.04191163,0.90468
351.735,20.6587,-2.12534,0.03165909,0.9027
354.735,20.7503,-2.18254,0.07556476,0.90072
357.735,20.84219,-2.22538,0.14607,0.89873
360.735,20.9343,-2.25484,0.20073,0.89674
363.735,21.026,-2.27748,0.23185,0.89475
366.735,21.1186,-2.2963,0.2402,0.89275
369.735,21.21089,-2.31241,0.24122,0.89075
372.735,21.30292,-2.3272,0.22889,0.88874
375.735,21.3957,-2.34085,0.22468,0.88674
378.735,21.48827,-2.35345,0.20817,0.88473
381.735,21.58098,-2.36474,0.19576,0.88271
384.735,21.67359,-2.3756,0.18228,0.88069
387.735,21.76649,-2.38652,0.17131,0.87867
390.735,21.85943,-2.39675,0.15551,0.87665
393.735,21.95228,-2.4077,0.14681,0.87462
396.735,22.0455,-2.41775,0.13898,0.87259
399.735,22.1386,-2.4226,0.12979,0.87055
402.735,22.23176,-2.43573,0.12201,0.86851
405.735,22.32495,-2.44348,0.11667,0.86647
408.735,22.4182,-2.45448,0.11561,0.86443
411.735,22.5117,-2.46137,0.11324,0.86238
414.735,22.60519,-2.46914,0.11718,0.86033
417.735,22.6986,-2.47835,0.12263,0.85827
420.735,22.7926,-2.48646,0.12616,0.85622
423.735,22.8864,-2.49358,0.13324,0.85416
426.735,22.9803,-2.50107,0.14259,0.85209
429.735,23.0745,-2.50874,0.15345,0.85003
432.735,23.16856,-2.51651,0.1618,0.84796
435.735,23.26292,-2.52461,0.17271,0.84589
438.735,23.3572,-2.53177,0.18576,0.84381
441.735,23.45159,-2.53929,0.1933,0.84173
444.735,23.5462,-2.54693,0.20423,0.83965
447.735,23.64104,-2.55328,0.21412,0.83757
450.735,23.73575,-2.55842,0.22585,0.83548
453.735,23.83064,-2.56466,0.23196,0.83339
456.735,23.92556,-2.57132,0.24141,0.8313
459.735,24.02066,-2.57776,0.24865,0.8292
462.735,24.11572,-2.5822,0.25488,0.8271
465.735,24.21092,-2.58843,0.2613,0.825
468.735,24.30632,-2.59348,0.26699,0.8229
471.735,24.40156,-2.6006,0.27137,0.82079
474.735,24.49706,-2.60572,0.27397,0.81868
477.735,24.5924,-2.61043,0.27512,0.81657
480.735,24.68798,-2.61506,0.28067,0.81446
483.735,24.7837,-2.62105,0.2803,0.81234
486.735,24.87939,-2.62436,0.28431,0.81022
489.735,24.97525,-2.62772,0.28414,0.8081
492.735,25.07111,-2.63456,0.28769,0.80597
495.735,25.16704,-2.63689,0.28733,0.80385
498.735,25.26296,-2.64087,0.28783,0.80172
501.735,25.35898,-2.64678,0.28982,0.79959
504.735,25.45514,-2.65069,0.29075,0.79745
507.735,25.5514,-2.65582,0.2906,0.79531
510.735,25.6476,-2.65964,0.29132,0.79317
513.735,25.7439,-2.66357,0.29182,0.79103
516.735,25.84025,-2.66811,0.29362,0.78889
519.735,25.9365,-2.67282,0.29378,0.78674
522.735,26.03311,-2.67413,0.2912,0.78459
525.735,26.12959,-2.67836,0.29087,0.78244
528.735,26.22632,-2.68291,0.29497,0.78029
531.735,26.3231,-2.68572,0.29408,0.77813
534.735,26.42,-2.68972,0.29472,0.77597
537.735,26.51693,-2.69323,0.29646,0.77381
540.735,26.61403,-2.69647,0.29789,0.77165
543.735,26.71097,-2.69948,0.29995,0.76948
546.735,26.80844,-2.70159,0.30348,0.76732
549.735,26.9056,-2.70408,0.3103,0.76515
552.735,27.0028,-2.70713,0.3196,0.76297
555.735,27.1003,-2.70859,0.32726,0.7608
558.735,27.1974,-2.7099,0.33059,0.75862
561.735,27.295,-2.71254,0.33799,0.75645
564.735,27.39266,-2.71385,0.34754,0.75427
567.735,27.4902,-2.71639,0.34833,0.75208
570.735,27.588,-2.7178,0.35059,0.7499
573.735,27.68562,-2.7178,0.35363,0.74771
576.735,27.7835,-2.71973,0.35501,0.74552
579.735,27.8812,-2.7217,0.35644,0.74333
582.735,27.9793,-2.72176,0.35628,0.74114
585.735,28.0773,-2.72437,0.35603,0.73895
588.735,28.1754,-2.7257,0.35424,0.73675
591.735,28.2731,-2.72701,0.3532,0.73455
594.735,28.3719,-2.72955,0.35224,0.73235
597.735,28.46997,-2.73125,0.3481,0.73015
600.735,28.5685,-2.73195,0.34775,0.72795
603.735,28.6669,-2.73326,0.34491,0.72574
606.735,28.7651,-2.73691,0.3446,0.72353
609.735,28.86373,-2.7382,0.33703,0.72132
612.735,28.9623,-2.73952,0.33659,0.71911
615.735,29.0609,-2.73926,0.33071,0.7169
618.735,29.1594,-2.74084,0.32945,0.71469
621.735,29.25824,-2.74083,0.32609,0.71247
624.735,29.35687,-2.74084,0.32388,0.71025
627.735,29.4553,-2.7428,0.32655,0.70803
630.735,29.5542,-2.74413,0.32125,0.70581
633.735,29.65288,-2.7461,0.31734,0.70359
636.735,29.75191,-2.74601,0.31761,0.70136
639.735,29.85075,-2.7461,0.31117,0.69914
642.735,29.94955,-2.74681,0.30756,0.69691
645.735,30.0488,-2.74875,0.29995,0.69468
648.735,30.1475,-2.74971,0.29368,0.69245
651.735,30.24672,-2.75005,0.28987,0.69022
654.735,30.34579,-2.75136,0.28707,0.68798
657.735,30.44486,-2.75312,0.28392,0.68575
660.735,30.5442,-2.75443,0.28005,0.68351
663.735,30.6434,-2.75597,0.27868,0.68127
666.735,30.7424,-2.75597,0.2785,0.67903
669.735,30.84173,-2.75725,0.27376,0.67679
672.735,30.94087,-2.75729,0.27096,0.67455
675.735,31.0401,-2.75861,0.26956,0.67231
678.735,31.13921,-2.75893,0.26677,0.67006
681.735,31.23845,-2.76025,0.2649,0.66782
684.735,31.33789,-2.76093,0.26248,0.66557
687.735,31.43712,-2.76157,0.26213,0.66332
690.735,31.5365,-2.76288,0.26141,0.66107
693.735,31.63578,-2.76561,0.26194,0.65882
696.735,31.73503,-2.76607,0.25687,0.65657
699.735,31.8347,-2.7642,0.25752,0.65432
702.735,31.93422,-2.76651,0.25855,0.65206
705.735,32.03372,-2.7665,0.25606,0.64981
708.735,32.13327,-2.76782,0.2557,0.64755
711.735,32.23314,-2.76782,0.25281,0.64529
714.735,32.33282,-2.76913,0.25088,0.64303
717.735,32.4328,-2.76946,0.24961,0.64078
720.735,32.53264,-2.77112,0.24857,0.63852
723.735,32.6327,-2.7711,0.24631,0.63626
726.735,32.7327,-2.77242,0.24657,0.63399
729.735,32.83302,-2.77242,0.24032,0.63173
732.735,32.933,-2.77636,0.24103,0.62947
735.735,33.03322,-2.77637,0.24182,0.6272
738.735,33.13367,-2.77769,0.2436,0.62494
741.735,33.234,-2.77901,0.24272,0.62267
744.635,33.33103,-2.77769,0.24378,0.62048

File: Straw_STA_N2_30KData_220428_R1.csv
##Temp./Â°C,Time/min,Mass loss(subtr.2)/mg,DSC(subtr.2)/(mW/mg),Sensit./(uV/mW)
48.571,10.01,-0.02029,0.00585501,1.07503
51.571,10.86561,-0.02001153,0.15508,1.0737
54.571,11.0931,-0.01739044,0.25543,1.07237
57.571,11.26701,-0.02174873,0.33729,1.07102
60.571,11.41596,-0.02234799,0.40579,1.06967
63.571,11.5517,-0.02304133,0.46374,1.0683
66.571,11.67788,-0.02244845,0.51259,1.06693
69.571,11.7982,-0.02239381,0.56136,1.06554
72.571,11.9138,-0.02355218,0.60428,1.06415
75.571,12.02685,-0.02406349,0.64237,1.06274
78.571,12.1371,-0.02692931,0.68082,1.06133
81.571,12.24547,-0.02547059,0.71638,1.05991
84.571,12.35188,-0.02679917,0.75232,1.05848
87.571,12.45728,-0.02924805,0.78592,1.05703
90.571,12.56072,-0.02943427,0.82157,1.05558
93.571,12.66405,-0.03263885,0.85207,1.05412
96.571,12.7665,-0.036145,0.88032,1.05266
99.571,12.86811,-0.03500042,0.90386,1.05118
102.571,12.96932,-0.03367319,0.9218,1.04969
105.571,13.0703,-0.03499,0.93277,1.0482
108.571,13.17115,-0.03630263,0.94177,1.04669
111.571,13.2714,-0.04027011,0.94192,1.04518
114.571,13.37154,-0.04157636,0.93925,1.04366
117.571,13.47149,-0.04418528,0.93103,1.04213
120.571,13.57078,-0.04420076,0.92371,1.04059
123.571,13.6699,-0.04584781,0.914,1.03905
126.571,13.76857,-0.04677054,0.90581,1.03749
129.571,13.8666,-0.04552156,0.89899,1.03593
132.571,13.9641,-0.04782072,0.89339,1.03436
135.571,14.0613,-0.04883059,0.88806,1.03279
138.571,14.1581,-0.04899527,0.88258,1.0312
141.571,14.2544,-0.05011998,0.87661,1.02961
144.571,14.35017,-0.05242711,0.87907,1.02801
147.571,14.4458,-0.05115511,0.88384,1.0264
150.571,14.54075,-0.05013346,0.88823,1.02478
153.571,14.6357,-0.05084045,0.89749,1.02316
156.571,14.7301,-0.05078,0.90633,1.02153
159.571,14.8248,-0.05076739,0.91316,1.01989
162.571,14.9189,-0.04946314,0.92429,1.01824
165.571,15.01281,-0.04815894,0.93482,1.01659
168.571,15.1067,-0.04684137,0.9432,1.01493
171.571,15.19995,-0.04947065,0.9568,1.01326
174.571,15.2932,-0.05353419,0.96926,1.01159
177.571,15.38636,-0.05474409,0.97944,1.00991
180.571,15.479,-0.05617607,0.98724,1.00822
183.571,15.57129,-0.05615958,0.9992,1.00653
186.571,15.66365,-0.05625814,1.0073,1.00483
189.571,15.7557,-0.05746918,1.01448,1.00312
192.571,15.84746,-0.05689179,1.02225,1.00141
195.571,15.939,-0.05742082,1.02756,0.99969
198.571,16.03042,-0.06048946,1.03504,0.99796
201.571,16.1215,-0.06378748,1.04226,0.99623
204.571,16.21296,-0.06816672,1.04947,0.99449
207.571,16.30431,-0.069345,1.05027,0.99274
210.571,16.39528,-0.07226505,1.05548,0.99099
213.571,16.48643,-0.073866,1.05322,0.98923
216.571,16.57753,-0.08027847,1.05543,0.98747
219.571,16.66842,-0.08569212,1.05479,0.9857
222.571,16.7594,-0.08963976,1.05313,0.98393
225.571,16.85011,-0.09334461,1.05472,0.98214
228.571,16.94096,-0.10251,1.05915,0.98036
231.571,17.0316,-0.11235,1.06474,0.97857
234.571,17.12239,-0.12348,1.0737,0.97677
237.571,17.21301,-0.13108,1.08523,0.97496
240.571,17.30359,-0.13994,1.10118,0.97315
243.571,17.39397,-0.15109,1.1144,0.97134
246.571,17.48475,-0.16556,1.12808,0.96952
249.571,17.57518,-0.18576,1.13895,0.96769
252.571,17.6658,-0.20231,1.14778,0.96586
255.571,17.75591,-0.21796,1.14944,0.96403
258.571,17.84682,-0.23757,1.15235,0.96219
261.571,17.9371,-0.25643,1.14581,0.96034
264.571,18.02736,-0.27504,1.13475,0.95849
267.571,18.11776,-0.29702,1.11684,0.95663
270.571,18.20809,-0.31915,1.0967,0.95477
273.571,18.2985,-0.34235,1.07321,0.9529
276.571,18.38898,-0.36615,1.04452,0.95103
279.571,18.4793,-0.39082,1.01212,0.94916
282.571,18.5697,-0.41868,0.98011,0.94728
285.571,18.66004,-0.44808,0.94338,0.94539
288.571,18.7504,-0.48157,0.90471,0.9435
291.571,18.84091,-0.5163,0.86187,0.94161
294.571,18.93117,-0.5557,0.81876,0.93971
297.571,19.0218,-0.59928,0.77039,0.9378
300.571,19.11221,-0.6495,0.72403,0.93589
303.571,19.20265,-0.70542,0.67547,0.93398
306.571,19.29325,-0.76976,0.62845,0.93206
309.571,19.38363,-0.83556,0.58384,0.93014
312.571,19.47406,-0.90864,0.53811,0.92822
315.571,19.5648,-0.99121,0.50087,0.92629
318.571,19.65521,-1.0731,0.4616,0.92435
321.571,19.74595,-1.16307,0.42946,0.92241
324.571,19.8367,-1.26382,0.39804,0.92047
327.571,19.92744,-1.36562,0.36586,0.91852
330.571,20.01849,-1.46929,0.33065,0.91657
333.571,20.10951,-1.57446,0.28892,0.91462
336.571,20.2002,-1.68022,0.24125,0.91266
339.571,20.2914,-1.78462,0.1877,0.9107
342.571,20.38281,-1.88918,0.11839,0.90873
345.571,20.47418,-1.99004,0.0496514,0.90676
348.571,20.56565,-2.07701,-0.000965781,0.90479
351.571,20.65689,-2.14668,-0.00870983,0.90281
354.571,20.74881,-2.20264,0.04441852,0.90082
357.571,20.84076,-2.24846,0.12146,0.89884
360.571,20.93284,-2.27722,0.1848,0.89685
363.571,21.025,-2.30008,0.21586,0.89486
366.571,21.11732,-2.3199,0.22621,0.89286
369.571,21.20974,-2.33386,0.23014,0.89086
372.571,21.3022,-2.34959,0.22158,0.88885
375.571,21.39495,-2.36134,0.2103,0.88685
378.571,21.48741,-2.37337,0.19974,0.88484
381.571,21.58028,-2.38856,0.18832,0.88282
384.571,21.6732,-2.40097,0.17594,0.8808
387.571,21.7658,-2.41695,0.16296,0.87878
390.571,21.85902,-2.42923,0.1492,0.87676
393.571,21.95202,-2.4341,0.13926,0.87473
396.571,22.04526,-2.43972,0.12526,0.8727
399.571,22.13835,-2.45004,0.11684,0.87066
402.571,22.23165,-2.45966,0.10891,0.86862
405.571,22.3251,-2.46932,0.10219,0.86658
408.571,22.41866,-2.47942,0.09917219,0.86454
411.571,22.51215,-2.48664,0.10069,0.86249
414.571,22.60589,-2.49671,0.09812176,0.86044
417.571,22.69978,-2.50368,0.10085,0.85839
420.571,22.79345,-2.51168,0.10786,0.85633
423.571,22.88746,-2.51833,0.11277,0.85427
426.571,22.98142,-2.52643,0.12542,0.85221
429.571,23.07551,-2.53427,0.1324,0.85014
432.571,23.1694,-2.53972,0.14587,0.84807
435.571,23.2637,-2.54654,0.15445,0.846
438.571,23.35816,-2.55622,0.16432,0.84392
441.571,23.4526,-2.56317,0.17321,0.84185
444.571,23.54716,-2.5696,0.18323,0.83976
447.571,23.642,-2.5774,0.19394,0.83768
450.571,23.7366,-2.5824,0.20325,0.83559
453.571,23.83149,-2.58914,0.20902,0.8335
456.571,23.9264,-2.594,0.21594,0.83141
459.571,24.02092,-2.60316,0.22373,0.82932
462.571,24.11617,-2.609,0.22947,0.82722
465.571,24.21124,-2.61475,0.23362,0.82512
468.571,24.30635,-2.62375,0.24014,0.82301
471.571,24.40149,-2.62913,0.24582,0.82091
474.571,24.49687,-2.62983,0.24768,0.8188
477.571,24.5922,-2.63407,0.24776,0.81669
480.571,24.68761,-2.63989,0.25073,0.81457
483.571,24.7833,-2.64679,0.25466,0.81246
486.571,24.87872,-2.65023,0.25436,0.81034
489.571,24.97435,-2.65254,0.25539,0.80822
492.571,25.07006,-2.65693,0.25627,0.80609
495.571,25.16574,-2.6609,0.25745,0.80396
498.571,25.26182,-2.66901,0.26101,0.80183
501.571,25.3577,-2.67698,0.26175,0.7997
504.571,25.45361,-2.67905,0.26488,0.79757
507.571,25.54963,-2.68415,0.26673,0.79543
510.571,25.64591,-2.68834,0.26856,0.79329
513.571,25.74202,-2.69414,0.26849,0.79115
516.571,25.83846,-2.69863,0.27032,0.78901
519.571,25.9346,-2.7004,0.2715,0.78686
522.571,26.03122,-2.70397,0.27246,0.78471
525.571,26.12769,-2.70619,0.27067,0.78256
528.571,26.2244,-2.70941,0.27238,0.7804
531.571,26.32095,-2.71055,0.27006,0.77825
534.571,26.4178,-2.71386,0.26897,0.77609
537.571,26.51469,-2.71626,0.27386,0.77393
540.571,26.61151,-2.72022,0.27533,0.77177
543.571,26.70845,-2.72288,0.2799,0.7696
546.571,26.8055,-2.7257,0.28525,0.76743
549.571,26.9022,-2.72844,0.28883,0.76527
552.571,26.9994,-2.72859,0.29728,0.76309
555.571,27.0967,-2.72996,0.30444,0.76092
558.571,27.194,-2.73166,0.31029,0.75874
561.571,27.2911,-2.73845,0.32113,0.75657
564.571,27.38865,-2.74245,0.3288,0.75439
567.571,27.48606,-2.744,0.33275,0.7522
570.571,27.5838,-2.7479,0.33962,0.75002
573.571,27.68133,-2.7494,0.34164,0.74783
576.571,27.7791,-2.74618,0.34468,0.74564
579.571,27.8768,-2.74502,0.3451,0.74345
582.571,27.9745,-2.74745,0.34505,0.74126
585.571,28.0724,-2.75351,0.35023,0.73907
588.571,28.1704,-2.75552,0.34863,0.73687
591.571,28.2684,-2.75374,0.34784,0.73467
594.571,28.36676,-2.75655,0.34909,0.73247
597.571,28.4649,-2.75695,0.34154,0.73027
600.571,28.5631,-2.75948,0.3413,0.72807
603.571,28.6612,-2.76288,0.34266,0.72586
606.571,28.7598,-2.76495,0.34006,0.72365
609.571,28.8582,-2.76595,0.33794,0.72145
612.571,28.95648,-2.76604,0.33431,0.71923
615.571,29.05485,-2.76705,0.32971,0.71702
618.571,29.15336,-2.76836,0.32872,0.71481
621.571,29.25187,-2.76837,0.32695,0.71259
624.571,29.3506,-2.771,0.32739,0.71037
627.571,29.44908,-2.77232,0.32772,0.70815
630.571,29.54768,-2.7738,0.32545,0.70593
633.571,29.6462,-2.77627,0.32314,0.70371
636.571,29.74496,-2.77883,0.32328,0.70148
639.571,29.8437,-2.78155,0.32245,0.69926
642.571,29.94217,-2.78417,0.32049,0.69703
645.571,30.0414,-2.78686,0.31635,0.6948
648.571,30.14007,-2.79074,0.31561,0.69257
651.571,30.23923,-2.78489,0.31034,0.69034
654.571,30.33826,-2.78132,0.30531,0.68811
657.571,30.43729,-2.78286,0.29947,0.68587
660.571,30.5365,-2.79119,0.30075,0.68363
663.571,30.6357,-2.79334,0.29309,0.6814
666.571,30.7348,-2.78878,0.28679,0.67916
669.571,30.8338,-2.79099,0.28224,0.67692
672.571,30.9331,-2.79272,0.27297,0.67467
675.571,31.0321,-2.79007,0.26933,0.67243
678.571,31.13099,-2.79007,0.26384,0.67019
681.571,31.2305,-2.79042,0.25415,0.66794
684.571,31.33,-2.79053,0.25357,0.66569
687.571,31.42932,-2.79316,0.24274,0.66344
690.571,31.5289,-2.79712,0.23937,0.66119
693.571,31.6284,-2.8017,0.23803,0.65894
696.571,31.7279,-2.80265,0.23186,0.65669
699.571,31.82749,-2.80069,0.23265,0.65444
702.571,31.9272,-2.79919,0.22367,0.65218
705.571,32.02691,-2.79921,0.21994,0.64993
708.571,32.12652,-2.80116,0.21685,0.64767
711.571,32.22636,-2.8005,0.20877,0.64542
714.571,32.32625,-2.8005,0.20945,0.64316
717.571,32.42606,-2.80323,0.20935,0.6409
720.571,32.5259,-2.80732,0.20834,0.63864
723.571,32.62578,-2.80762,0.20174,0.63638
726.571,32.7256,-2.80601,0.20006,0.63412
729.571,32.8255,-2.80661,0.19393,0.63185
732.571,32.92545,-2.80765,0.19041,0.62959
735.571,33.0254,-2.80607,0.18816,0.62733
738.571,33.12543,-2.80478,0.18702,0.62506
741.571,33.2252,-2.80394,0.18023,0.6228
744.571,33.32806,-2.8061,0.18355,0.62053
744.771,33.33282,-2.8061,0.18285,0.62038