Folder: fsri_materials_database/01_Data/Straw/STA/N2/3K_min

Note: 01_Data/README.md
# Materials and Products Database
## 01_Data

Raw data generated from each apparatus are included here in plain-text format. The data is organized first by material, next by the short name of test apparatus used, and where applicable additional filtering by test settings.

### material.json

Each material directory contains a json file of the same name as the material. This file links the data stored in the repository as well as data and graphs produced by the accompanying scripts (__02_Scripts__) to the respective landing page for the material on the front-end website.

File: Straw_STA_N2_3KData_22052_R1.csv
##Temp./Â°C,Time/min,Mass loss(subtr.2)/mg,DSC(subtr.2)/(mW/mg),Sensit./(uV/mW)
50.265,10.01667,-0.02743,0.02319437,1.05031
53.465,12.31957,-0.03289959,0.07472119,1.04973
56.665,13.5312,-0.03423087,0.08846066,1.04915
59.865,14.67251,-0.03750725,0.09575249,1.04854
63.065,15.7816,-0.03949034,0.1001,1.04792
66.265,16.86744,-0.04344,0.10473,1.04728
69.465,17.9491,-0.04705013,0.11138,1.04663
72.665,19.02232,-0.05115334,0.111,1.04596
75.865,20.09299,-0.05323094,0.11132,1.04527
79.065,21.1669,-0.0589,0.1072,1.04457
82.265,22.2387,-0.06186661,0.10449,1.04385
85.465,23.30404,-0.06383997,0.10251,1.04312
88.665,24.36705,-0.06844984,0.09672775,1.04237
91.865,25.4317,-0.0698813,0.08994537,1.0416
95.065,26.4956,-0.07119525,0.09070011,1.04082
98.265,27.5535,-0.07297454,0.08637966,1.04002
101.465,28.61102,-0.07326689,0.08637369,1.0392
104.665,29.66935,-0.07623668,0.08921985,1.03837
107.865,30.72568,-0.07638701,0.08681993,1.03752
111.065,31.77818,-0.07822363,0.08875831,1.03666
114.265,32.83567,-0.08093329,0.09084824,1.03578
117.465,33.88955,-0.07944876,0.08914489,1.03488
120.665,34.9412,-0.08106109,0.09015582,1.03397
123.865,35.99132,-0.08335995,0.08885432,1.03304
127.065,37.0447,-0.08369468,0.08823886,1.03209
130.265,38.09798,-0.08496361,0.08708821,1.03113
133.465,39.14949,-0.08588877,0.08653421,1.03015
136.665,40.19672,-0.08584077,0.0871587,1.02916
139.865,41.24558,-0.08676108,0.08573537,1.02815
143.065,42.29265,-0.08745392,0.08694256,1.02712
146.265,43.341,-0.08742,0.09060296,1.02608
149.465,44.38714,-0.0868708,0.0916872,1.02502
152.665,45.43473,-0.09214551,0.09058469,1.02395
155.865,46.48333,-0.08951001,0.09397459,1.02286
159.065,47.5291,-0.09179698,0.09340731,1.02175
162.265,48.5728,-0.09280554,0.09564392,1.02063
165.465,49.61331,-0.0959686,0.09818341,1.01949
168.665,50.65218,-0.09477,0.09537678,1.01833
171.865,51.69493,-0.09806,0.09391451,1.01716
175.065,52.74462,-0.09974723,0.0944859,1.01598
178.265,53.7824,-0.10469,0.09714945,1.01477
181.465,54.8268,-0.10552,0.09770053,1.01356
184.665,55.87085,-0.10808,0.10034,1.01232
187.865,56.91138,-0.11194,0.10227,1.01107
191.065,57.9481,-0.11989,0.10544,1.00981
194.265,58.98435,-0.12647,0.10464,1.00852
197.465,60.02341,-0.13461,0.10808,1.00723
200.665,61.06683,-0.14227,0.10964,1.00591
203.865,62.10119,-0.15214,0.11052,1.00458
207.065,63.1402,-0.16539,0.10915,1.00324
210.265,64.18175,-0.17973,0.10671,1.00188
213.465,65.2261,-0.19655,0.10795,1.0005
216.665,66.2652,-0.21524,0.10797,0.99911
219.865,67.2992,-0.23387,0.11374,0.9977
223.065,68.33054,-0.25508,0.1144,0.99628
226.265,69.3702,-0.27694,0.11171,0.99484
229.465,70.41575,-0.30053,0.1065,0.99338
232.665,71.45614,-0.32346,0.10685,0.99191
235.865,72.4951,-0.35009,0.10282,0.99043
239.065,73.53516,-0.37687,0.1047,0.98893
242.265,74.5741,-0.40535,0.10201,0.98741
245.465,75.60287,-0.43724,0.09986036,0.98588
248.665,76.64483,-0.47099,0.0984672,0.98433
251.865,77.68387,-0.51169,0.10007,0.98277
255.065,78.71992,-0.55597,0.09214378,0.98119
258.265,79.76017,-0.60655,0.09192504,0.9796
261.465,80.79602,-0.66069,0.09251712,0.97799
264.665,81.8309,-0.72594,0.08992314,0.97637
267.865,82.8705,-0.79732,0.09190292,0.97473
271.065,83.9114,-0.87667,0.08878207,0.97308
274.265,84.95211,-0.96121,0.09100475,0.97141
277.465,85.9888,-1.05476,0.09056266,0.96973
280.665,87.0305,-1.1563,0.08421148,0.96803
283.865,88.06936,-1.26226,0.08646126,0.96632
287.065,89.108,-1.37751,0.08451649,0.96459
290.265,90.14231,-1.49369,0.07910985,0.96285
293.465,91.18435,-1.61611,0.07228668,0.96109
296.665,92.23001,-1.74012,0.06424366,0.95932
299.865,93.2677,-1.8605,0.04958591,0.95753
303.065,94.307,-1.97725,0.03785456,0.95573
306.265,95.34639,-2.08119,0.02162012,0.95392
309.465,96.38595,-2.16617,0.01096676,0.95209
312.665,97.4312,-2.23163,0.009905307,0.95024
315.865,98.47349,-2.27671,0.01332856,0.94838
319.065,99.51303,-2.31415,0.01694271,0.94651
322.265,100.555,-2.33976,0.01575191,0.94462
325.465,101.606,-2.36323,0.01137735,0.94272
328.665,102.653,-2.38415,0.01414388,0.9408
331.865,103.695,-2.40178,0.008677207,0.93887
335.065,104.74,-2.41902,0.00871183,0.93693
338.265,105.7825,-2.43358,0.01167787,0.93497
341.465,106.825,-2.44925,0.01199289,0.933
344.665,107.874,-2.4606,0.008243037,0.93102
347.865,108.919,-2.47516,0.01082648,0.92902
351.065,109.9609,-2.48368,0.008316809,0.927
354.265,111.008,-2.49548,0.007786861,0.92498
357.465,112.062,-2.50534,0.002001844,0.92293
360.665,113.109,-2.51522,0.006178719,0.92088
363.865,114.157,-2.52616,0.004464442,0.91881
367.065,115.208,-2.53538,0.006078114,0.91673
370.265,116.254,-2.54354,0.005928025,0.91464
373.465,117.301,-2.55336,0.005610638,0.91253
376.665,118.351,-2.56126,0.005615807,0.91041
379.865,119.409,-2.56975,0.006782388,0.90827
383.065,120.46,-2.57963,0.006332816,0.90613
386.265,121.509,-2.58806,0.01032487,0.90397
389.465,122.556,-2.59428,0.01238635,0.90179
392.665,123.611,-2.60275,0.01337297,0.89961
395.865,124.664,-2.60997,0.01175534,0.89741
399.065,125.719,-2.61902,0.01220946,0.8952
402.265,126.77,-2.62545,0.01470673,0.89298
405.465,127.823,-2.63523,0.0140971,0.89074
408.665,128.88,-2.64081,0.01596564,0.88849
411.865,129.929,-2.64672,0.01770484,0.88623
415.065,130.983,-2.65463,0.01621367,0.88396
418.265,132.038,-2.66188,0.01532868,0.88167
421.465,133.096,-2.66847,0.0170088,0.87937
424.665,134.149,-2.67339,0.01873094,0.87706
427.865,135.204,-2.68069,0.0168796,0.87474
431.065,136.263,-2.68595,0.01940751,0.87241
434.265,137.315,-2.69139,0.03031041,0.87006
437.465,138.372,-2.69828,0.03163953,0.8677
440.665,139.435,-2.70484,0.03301027,0.86533
443.865,140.493,-2.70958,0.02728776,0.86295
447.065,141.551,-2.71308,0.0275902,0.86056
450.265,142.606,-2.71943,0.02913925,0.85816
453.465,143.66,-2.72395,0.02481709,0.85574
456.665,144.722,-2.72822,0.01394931,0.85332
459.865,145.79,-2.73459,0.003630425,0.85088
463.065,146.852,-2.73676,0.0005467631,0.84843
466.265,147.912,-2.74237,-0.001303057,0.84597
469.465,148.979,-2.74698,-0.009614725,0.84351
472.665,150.044,-2.75324,-0.02029281,0.84103
475.865,151.1,-2.75554,-0.02544216,0.83853
479.065,152.159,-2.75913,-0.03204479,0.83603
482.265,153.227,-2.76243,-0.03722475,0.83352
485.465,154.29,-2.76574,-0.04224239,0.831
488.665,155.349,-2.76871,-0.03909234,0.82847
491.865,156.416,-2.77166,-0.04267706,0.82592
495.065,157.484,-2.77531,-0.04474195,0.82337
498.265,158.543,-2.77956,-0.0429191,0.82081
501.465,159.605,-2.78189,-0.04473907,0.81824
504.665,160.675,-2.78516,-0.04663155,0.81566
507.865,161.739,-2.78746,-0.03760094,0.81306
511.065,162.802,-2.79075,-0.03429875,0.81046
514.265,163.868,-2.7947,-0.03290514,0.80785
517.465,164.936,-2.79702,-0.03226719,0.80523
520.665,166.005,-2.79925,-0.02958995,0.8026
523.865,167.066,-2.80161,-0.02589363,0.79997
527.065,168.133,-2.80424,-0.02557807,0.79732
530.265,169.196,-2.80654,-0.03140282,0.79466
533.465,170.268,-2.80882,-0.02789114,0.792
536.665,171.338,-2.80982,-0.02809659,0.78932
539.865,172.407,-2.81256,-0.02970026,0.78664
543.065,173.475,-2.81543,-0.029853,0.78395
546.265,174.546,-2.81609,-0.02963916,0.78125
549.465,175.615,-2.81749,-0.03317768,0.77855
552.665,176.681,-2.82036,-0.02963273,0.77583
555.865,177.751,-2.82102,-0.02959434,0.77311
559.065,178.822,-2.82268,-0.03110642,0.77038
562.265,179.893,-2.82496,-0.03197937,0.76764
565.465,180.96,-2.82628,-0.03670097,0.76489
568.665,182.036,-2.82826,-0.0426971,0.76214
571.865,183.104,-2.83228,-0.04340093,0.75938
575.065,184.173,-2.83124,-0.04461542,0.75661
578.265,185.2421,-2.83297,-0.04461703,0.75383
581.465,186.314,-2.83429,-0.04998674,0.75105
584.665,187.395,-2.83592,-0.05069765,0.74826
587.865,188.466,-2.83725,-0.05572162,0.74546
591.065,189.539,-2.83857,-0.05068798,0.74266
594.265,190.609,-2.83981,-0.04916119,0.73985
597.465,191.688,-2.84252,-0.04944206,0.73703
600.665,192.761,-2.84265,-0.0554273,0.73421
603.865,193.832,-2.84351,-0.05168356,0.73138
607.065,194.9066,-2.84548,-0.05085475,0.72855
610.265,195.982,-2.84646,-0.05086749,0.7257
613.465,197.062,-2.84712,-0.05352262,0.72286
616.665,198.137,-2.84879,-0.05221924,0.72
619.865,199.2107,-2.85074,-0.05277139,0.71715
623.065,200.2856,-2.85241,-0.05179716,0.71428
626.265,201.361,-2.8536,-0.05185053,0.71141
629.465,202.4393,-2.85502,-0.05698995,0.70854
632.665,203.514,-2.85683,-0.05667725,0.70566
635.865,204.593,-2.85689,-0.05745747,0.70277
639.065,205.672,-2.85802,-0.05441374,0.69988
642.265,206.744,-2.85964,-0.05412371,0.69699
645.465,207.817,-2.86061,-0.05332628,0.69409
648.665,208.891,-2.86348,-0.05251408,0.69119
651.865,209.965,-2.86325,-0.05194322,0.68828
655.065,211.05,-2.86555,-0.05096047,0.68537
658.265,212.132,-2.86654,-0.04201442,0.68245
661.465,213.207,-2.86721,-0.04348439,0.67953
664.665,214.277,-2.86653,-0.04331626,0.6766
667.865,215.356,-2.86658,-0.04691605,0.67368
671.065,216.434,-2.86819,-0.04505818,0.67074
674.265,217.512,-2.86983,-0.04087182,0.66781
677.465,218.589,-2.87181,-0.04173342,0.66487
680.665,219.671,-2.87279,-0.03492241,0.66193
683.865,220.748,-2.87215,-0.03603705,0.65898
687.065,221.826,-2.87853,-0.02667586,0.65604
690.265,222.911,-2.88669,-0.02579441,0.65308
693.465,223.9875,-2.87603,-0.02894631,0.65013
696.665,225.066,-2.87729,-0.0256958,0.64717
699.865,226.148,-2.8763,-0.02397451,0.64422
703.065,227.225,-2.87959,-0.02080046,0.64125
706.265,228.303,-2.87959,-0.02983409,0.63829
709.465,229.383,-2.87959,-0.01908179,0.63532
712.665,230.47,-2.88269,-0.02620094,0.63236
715.865,231.553,-2.88224,-0.02611583,0.62939
719.065,232.631,-2.88291,-0.02882915,0.62642
722.265,233.716,-2.88387,-0.03483625,0.62344
725.465,234.8005,-2.88486,-0.03417249,0.62047
728.665,235.878,-2.886,-0.02371993,0.61749
731.865,236.954,-2.88749,-0.03418998,0.61452
735.065,238.042,-2.88848,-0.03792539,0.61154
738.265,239.126,-2.8898,-0.03591167,0.60856
741.465,240.207,-2.89252,-0.03564397,0.60558
744.665,241.288,-2.89276,-0.02987038,0.6026
747.865,242.3693,-2.89508,-0.02940982,0.59962
750.665,243.318,-2.89635,-0.02403568,0.59701