Folder: fsri_materials_database/01_Data/Bravo_OSB/MCC

Note: 01_Data/README.md
# Materials and Products Database
## 01_Data

Raw data generated from each apparatus are included here in plain-text format. The data is organized first by material, next by the short name of test apparatus used, and where applicable additional filtering by test settings.

### material.json

Each material directory contains a json file of the same name as the material. This file links the data stored in the repository as well as data and graphs produced by the accompanying scripts (__02_Scripts__) to the respective landing page for the material on the front-end website.

File: Bravo_OSB_MCC_30K_min_211207_R1.txt
Sample ID:	C:\MCC\MCC Cal\Test\Bravo_OSB_MCC_30K_min_211207_R1.txt
Sample Weight (mg):	4.53
Heating Rate (C/s):	0.5
Combustor Temp (C):	900
N2 Flow Rate (cc/min):	80
O2 Flow Rate (cc/min):	20
Calibration File:	C:\MCC\MCC Cal\Coeff1 JN10440_30_210304.txt.txt
T Correction Coefficients:	0	1.024463	0
Time Shift (s):	14
*
Time (s)	Temperature (C)	N2 flow rate (cc/min)	O2 flow rate (cc/min)	Flow Rate (cc/min)	Oxygen (%)	HRR (W/g)	Heating rate (C/s)
-0.001	108.517	80.015	19.997	103.072	19.951	0.122	0.049
7.999	108.519	80.009	19.995	103.086	19.951	0.089	0.018
15.999	108.561	80.016	19.993	103.140	19.944	0.620	0.024
23.999	108.934	80.005	19.994	103.240	19.924	2.014	0.066
31.999	109.709	80.006	19.994	103.227	19.931	1.568	0.153
39.999	110.809	80.007	19.995	103.286	19.917	2.568	0.162
47.999	112.380	80.009	19.996	103.301	19.911	2.951	0.222
55.999	114.303	80.007	19.994	103.335	19.905	3.377	0.244
64.000	116.708	80.007	19.995	103.331	19.903	3.556	0.357
72.000	119.379	80.008	19.996	103.335	19.901	3.699	0.337
79.999	122.395	80.010	19.994	103.336	19.902	3.612	0.403
88.000	125.536	80.008	19.994	103.342	19.907	3.218	0.413
95.999	128.863	80.008	19.995	103.334	19.906	3.344	0.430
103.999	132.327	80.009	19.994	103.336	19.904	3.482	0.410
111.999	135.892	80.009	19.994	103.332	19.904	3.452	0.443
119.999	139.561	80.008	19.996	103.339	19.903	3.555	0.479
127.999	143.337	80.006	19.996	103.328	19.905	3.353	0.519
135.999	147.159	80.001	19.997	103.339	19.904	3.482	0.448
143.999	151.107	80.006	19.995	103.333	19.909	3.115	0.515
151.999	154.951	80.007	19.996	103.330	19.912	2.888	0.496
160.000	158.887	80.004	19.996	103.333	19.905	3.357	0.501
167.999	162.840	80.007	19.994	103.327	19.907	3.233	0.492
175.999	166.866	80.007	19.995	103.329	19.908	3.177	0.500
183.999	170.903	80.007	19.995	103.322	19.911	2.995	0.496
191.999	174.916	80.008	19.995	103.315	19.915	2.669	0.497
199.999	178.938	80.008	19.994	103.326	19.914	2.723	0.485
207.999	182.932	80.005	19.995	103.317	19.912	2.890	0.456
216.000	186.961	80.009	19.993	103.351	19.909	3.112	0.540
223.999	190.869	80.006	19.995	103.318	19.908	3.153	0.445
231.999	194.840	80.010	19.994	103.303	19.918	2.436	0.493
239.999	198.798	80.015	19.994	103.294	19.911	2.969	0.466
248.000	202.798	80.008	19.994	103.294	19.908	3.176	0.462
255.999	206.685	80.005	19.995	103.301	19.906	3.327	0.437
264.000	210.858	80.010	19.995	103.291	19.900	3.711	0.566
272.000	214.601	80.008	19.994	103.302	19.901	3.692	0.496
279.999	218.578	80.009	19.989	103.296	19.894	4.147	0.489
287.999	222.532	80.006	19.995	103.299	19.888	4.622	0.498
295.999	226.524	80.006	19.995	103.305	19.883	4.970	0.478
303.999	230.600	80.007	19.992	103.303	19.879	5.265	0.536
312.000	234.556	80.005	19.996	103.307	19.875	5.504	0.483
319.999	238.527	80.006	19.995	103.305	19.859	6.638	0.510
328.000	242.524	80.006	19.995	103.308	19.857	6.783	0.514
336.000	246.510	80.009	19.995	103.312	19.840	7.987	0.501
344.000	250.514	80.007	19.994	103.306	19.831	8.686	0.537
351.999	254.477	80.008	19.996	103.324	19.809	10.208	0.489
360.000	258.501	80.006	19.997	103.329	19.790	11.559	0.464
367.999	262.546	80.007	19.995	103.333	19.769	13.083	0.530
375.999	266.483	80.008	19.993	103.332	19.743	14.904	0.481
384.000	270.580	80.009	19.993	103.344	19.715	16.919	0.512
392.000	274.565	80.005	19.995	103.358	19.687	18.908	0.494
399.999	278.590	80.006	19.993	103.364	19.660	20.838	0.471
408.000	282.574	80.008	19.995	103.371	19.635	22.642	0.510
415.999	286.574	80.005	19.994	103.370	19.606	24.663	0.539
423.999	290.581	80.007	19.995	103.377	19.584	26.262	0.520
431.999	294.622	80.008	19.995	103.373	19.565	27.628	0.492
439.999	298.637	80.006	19.995	103.371	19.542	29.214	0.504
448.000	302.614	80.007	19.993	103.377	19.526	30.404	0.478
456.000	306.658	80.008	19.994	103.374	19.504	31.982	0.560
463.999	310.594	80.007	19.994	103.399	19.480	33.649	0.513
471.999	314.606	80.007	19.994	103.411	19.465	34.721	0.515
479.999	318.629	80.005	19.995	103.414	19.434	36.944	0.488
487.999	322.679	80.008	19.992	103.421	19.402	39.217	0.516
496.000	326.663	80.007	19.993	103.436	19.368	41.666	0.519
503.999	330.665	80.010	19.994	103.443	19.325	44.693	0.516
511.999	334.677	80.009	19.995	103.456	19.282	47.787	0.504
520.000	338.706	80.008	19.994	103.485	19.218	52.360	0.525
527.999	342.664	80.006	19.995	103.517	19.158	56.698	0.486
535.999	346.722	80.004	19.995	103.540	19.085	61.897	0.547
543.999	350.727	80.007	19.996	103.560	19.012	67.086	0.492
551.999	354.756	80.008	19.994	103.577	18.945	71.902	0.474
559.999	358.706	80.005	19.995	103.604	18.895	75.433	0.475
567.999	362.860	80.007	19.994	103.581	18.874	76.941	0.547
576.000	366.977	80.009	19.995	103.537	18.894	75.418	0.528
583.999	371.187	80.007	19.994	103.502	18.970	69.991	0.541
592.000	375.392	80.010	19.993	103.416	19.107	60.165	0.516
600.000	379.578	80.009	19.993	103.341	19.291	47.030	0.534
608.000	383.703	80.008	19.995	103.281	19.489	32.974	0.547
615.999	387.803	80.006	19.995	103.198	19.664	20.535	0.495
623.999	391.905	80.010	19.993	103.201	19.785	11.877	0.504
631.999	396.075	80.008	19.995	103.183	19.852	7.184	0.542
639.999	400.180	80.006	19.996	103.211	19.880	5.161	0.549
647.999	404.207	80.028	19.995	103.218	19.897	3.950	0.516
655.999	408.226	80.009	19.994	103.205	19.912	2.863	0.506
663.999	412.331	80.010	19.994	103.174	19.917	2.548	0.498
671.999	416.330	80.005	19.994	103.171	19.924	2.017	0.475
680.000	420.397	80.005	19.994	103.210	19.925	1.938	0.492
687.999	424.506	80.007	19.994	103.171	19.933	1.407	0.535
695.999	428.600	80.009	19.989	103.185	19.937	1.086	0.514
704.000	432.692	80.007	19.994	103.147	19.940	0.863	0.514
711.999	436.801	80.007	19.995	103.182	19.937	1.126	0.529
720.000	440.840	80.011	19.993	103.203	19.941	0.794	0.493
727.999	444.893	80.006	19.995	103.181	19.947	0.395	0.519
735.999	449.002	80.011	19.995	103.177	19.953	-0.029	0.509
743.999	453.055	80.006	19.995	103.202	19.957	-0.290	0.476
751.999	457.222	80.007	19.994	103.188	19.961	-0.598	0.495
760.000	461.343	80.011	19.994	103.176	19.966	-0.985	0.531
767.999	465.393	80.007	19.993	103.177	19.970	-1.254	0.507
775.999	469.509	80.005	19.997	103.175	19.976	-1.635	0.554
783.999	473.585	80.008	19.994	103.191	19.978	-1.806	0.525
791.999	477.749	80.007	19.995	103.180	19.981	-2.044	0.534
800.000	481.785	80.003	19.996	103.178	19.982	-2.098	0.527
807.999	485.775	80.006	19.994	103.176	19.986	-2.394	0.525
815.999	489.903	80.008	19.995	103.177	19.985	-2.317	0.516
824.000	493.959	80.006	19.996	103.189	19.988	-2.508	0.532
832.000	498.064	80.007	19.994	103.175	19.989	-2.590	0.507
839.999	502.219	80.008	19.993	103.172	19.994	-2.967	0.517
847.999	506.357	80.008	19.994	103.180	19.993	-2.849	0.528
855.999	510.611	80.006	19.998	103.171	19.997	-3.155	0.558
863.999	514.712	80.007	19.994	103.176	19.991	-2.745	0.562
872.000	518.851	80.006	19.994	103.178	19.999	-3.263	0.498
880.000	522.942	80.006	19.994	103.179	20.002	-3.538	0.515
887.999	527.113	80.007	19.995	103.175	20.005	-3.706	0.545
896.000	531.229	80.009	19.994	103.172	20.005	-3.728	0.536
903.999	535.371	80.009	19.994	103.172	20.004	-3.646	0.483
911.999	539.482	80.008	19.995	103.168	20.004	-3.631	0.538
919.999	543.557	80.009	19.995	103.168	20.004	-3.650	0.523
928.000	547.670	80.007	19.995	103.169	20.009	-4.012	0.516
935.999	551.776	80.004	19.992	103.166	20.005	-3.729	0.520
943.999	555.904	80.007	19.994	103.177	20.015	-4.416	0.487
951.999	560.064	80.005	19.993	103.176	20.013	-4.316	0.531
959.999	564.182	80.008	19.995	103.169	20.014	-4.393	0.536
967.999	568.251	80.008	19.994	103.173	20.017	-4.589	0.500
975.999	572.369	80.008	19.994	103.166	20.019	-4.745	0.523
983.999	576.491	80.012	19.995	103.167	20.018	-4.676	0.497
991.999	580.610	80.007	19.994	103.166	20.017	-4.600	0.509
999.999	584.629	80.010	19.994	103.166	20.018	-4.680	0.503
1007.999	588.640	80.010	19.996	103.175	20.021	-4.877	0.492
1015.999	592.749	80.006	19.997	103.166	20.023	-5.003	0.525
1023.999	596.869	80.005	19.995	103.166	20.022	-4.939	0.494
1031.999	601.064	80.002	19.994	103.172	20.024	-5.097	0.545
1040.000	605.054	80.004	19.995	103.159	20.026	-5.221	0.520
1047.999	609.154	80.008	19.995	103.163	20.029	-5.408	0.515
1055.999	613.296	80.007	19.994	103.148	20.031	-5.588	0.517
1064.000	617.403	80.008	19.994	103.163	20.029	-5.400	0.500
1071.999	621.487	80.006	19.994	103.161	20.030	-5.490	0.516
1080.000	625.542	80.006	19.993	103.160	20.031	-5.569	0.533
1088.000	629.655	80.014	19.993	103.146	20.033	-5.731	0.537
1095.999	633.776	80.008	19.993	103.167	20.036	-5.892	0.495
1104.000	637.918	80.013	19.995	103.156	20.037	-5.967	0.512
1112.000	642.115	80.012	19.994	103.147	20.033	-5.737	0.516
1120.000	646.211	80.008	19.993	103.143	20.035	-5.835	0.509
1127.999	650.310	80.015	19.993	103.139	20.040	-6.203	0.518
1135.999	654.379	80.007	19.994	103.141	20.038	-6.040	0.502
1143.999	658.416	80.003	19.995	103.146	20.039	-6.162	0.472
1151.999	662.417	79.994	19.995	103.146	20.046	-6.603	0.518
1160.000	666.475	80.004	19.993	103.141	20.043	-6.456	0.503
1167.999	670.558	80.005	19.995	103.136	20.047	-6.706	0.505
1175.999	674.704	79.999	19.994	103.134	20.046	-6.619	0.520
1183.999	678.753	80.003	19.996	103.138	20.050	-6.917	0.501
1191.999	682.789	80.003	19.994	103.128	20.055	-7.251	0.480
1199.999	686.746	80.003	19.995	103.140	20.055	-7.273	0.473
1208.000	690.862	80.003	19.994	103.135	20.056	-7.341	0.506
1216.000	694.977	80.009	19.995	103.134	20.060	-7.621	0.532
1223.999	699.051	80.003	19.995	103.134	20.061	-7.690	0.511
1231.999	703.206	80.009	19.994	103.129	20.063	-7.859	0.538
1240.000	707.236	80.008	19.993	103.119	20.061	-7.681	0.514
1247.999	711.285	80.008	19.993	103.136	20.061	-7.689	0.494
1256.000	715.330	80.009	19.994	103.139	20.057	-7.406	0.496
1263.999	719.408	80.007	19.996	103.126	20.064	-7.923	0.515
1271.999	723.380	80.005	19.995	103.128	20.060	-7.615	0.505
1279.999	727.454	80.007	19.994	103.129	20.059	-7.592	0.489
1287.999	731.508	80.013	19.995	103.130	20.061	-7.723	0.493
1295.999	735.561	80.011	19.995	103.136	20.062	-7.760	0.476
1303.999	739.650	80.011	19.994	103.121	20.062	-7.779	0.522
1311.499	743.479	80.010	19.994	103.129	20.066	-8.041	0.525

File: Bravo_OSB_MCC_30K_min_211207_R2.txt
Sample ID:	C:\MCC\MCC Cal\Test\Bravo_OSB_MCC_30K_min_211207_R2.txt
Sample Weight (mg):	4.82
Heating Rate (C/s):	0.5
Combustor Temp (C):	900
N2 Flow Rate (cc/min):	80
O2 Flow Rate (cc/min):	20
Calibration File:	C:\MCC\MCC Cal\Coeff1 JN10440_30_210304.txt.txt
T Correction Coefficients:	0	1.024463	0
Time Shift (s):	14
*
Time (s)	Temperature (C)	N2 flow rate (cc/min)	O2 flow rate (cc/min)	Flow Rate (cc/min)	Oxygen (%)	HRR (W/g)	Heating rate (C/s)
0.000	108.129	80.005	19.997	103.114	20.045	-0.205	0.038
7.500	108.171	80.006	19.995	103.139	20.046	-0.242	0.023
15.000	108.266	80.007	19.995	103.201	20.021	1.413	0.053
22.500	108.684	80.007	19.995	103.281	20.007	2.355	0.033
30.000	109.581	80.007	19.996	103.308	20.003	2.600	0.146
37.500	110.863	80.006	19.994	103.327	19.998	2.969	0.194
45.000	112.437	80.008	19.994	103.326	19.996	3.071	0.213
52.500	114.387	80.008	19.995	103.350	19.986	3.736	0.275
60.001	116.559	80.009	19.994	103.370	19.985	3.853	0.298
67.500	119.047	80.010	19.994	103.375	19.984	3.897	0.358
75.000	121.806	80.007	19.995	103.375	19.990	3.503	0.407
82.500	124.823	80.006	19.995	103.380	19.985	3.849	0.413
90.000	128.033	80.007	19.993	103.370	19.985	3.835	0.436
97.500	131.346	80.006	19.994	103.372	19.987	3.671	0.467
105.000	134.729	80.005	19.996	103.370	19.985	3.822	0.451
112.500	138.343	80.006	19.996	103.374	19.986	3.763	0.508
120.000	141.952	80.008	19.994	103.372	19.984	3.873	0.486
127.500	145.745	80.008	19.994	103.366	19.991	3.446	0.522
135.000	149.481	80.008	19.994	103.362	19.988	3.654	0.540
142.500	153.234	80.008	19.995	103.364	19.986	3.768	0.483
150.000	156.980	80.010	19.994	103.350	19.990	3.522	0.503
157.500	160.696	80.006	19.993	103.332	19.992	3.399	0.519
165.000	164.546	80.005	19.995	103.336	19.991	3.405	0.510
172.501	168.347	80.007	19.994	103.330	19.988	3.634	0.525
180.000	172.078	80.006	19.995	103.329	19.992	3.347	0.484
187.500	175.819	80.006	19.993	103.331	19.991	3.423	0.521
195.000	179.535	80.007	19.995	103.330	20.000	2.825	0.475
202.500	183.242	80.007	19.995	103.330	19.997	3.048	0.488
210.000	187.057	80.007	19.995	103.329	19.991	3.459	0.529
217.500	190.724	80.007	19.995	103.315	19.988	3.630	0.506
225.000	194.435	80.007	19.993	103.320	19.987	3.703	0.491
232.500	198.084	80.009	19.994	103.314	19.990	3.497	0.474
240.000	201.759	80.007	19.994	103.323	19.984	3.869	0.478
247.500	205.467	80.007	19.994	103.313	19.987	3.716	0.500
255.000	209.198	80.006	19.993	103.322	19.980	4.168	0.502
262.500	212.906	80.007	19.994	103.321	19.975	4.488	0.474
270.000	216.575	80.006	19.994	103.325	19.974	4.594	0.480
277.500	220.341	80.005	19.994	103.315	19.963	5.284	0.517
285.001	223.994	80.009	19.994	103.308	19.959	5.545	0.515
292.500	227.649	80.007	19.995	103.323	19.956	5.747	0.495
300.000	231.492	80.006	19.995	103.311	19.949	6.219	0.491
307.500	235.177	80.008	19.994	103.317	19.940	6.848	0.504
315.000	238.857	80.009	19.993	103.309	19.932	7.403	0.467
322.500	242.551	80.005	19.993	103.330	19.924	7.941	0.505
330.000	246.293	80.006	19.995	103.330	19.911	8.783	0.450
337.500	250.153	80.007	19.994	103.331	19.898	9.650	0.541
345.000	253.847	80.007	19.995	103.331	19.884	10.578	0.513
352.500	257.546	80.007	19.994	103.331	19.864	11.929	0.452
360.000	261.287	80.007	19.994	103.336	19.845	13.210	0.490
367.500	265.059	80.008	19.995	103.363	19.822	14.758	0.499
375.000	268.888	80.008	19.994	103.367	19.793	16.669	0.540
382.500	272.709	80.006	19.994	103.377	19.760	18.894	0.516
390.000	276.445	80.007	19.995	103.389	19.731	20.831	0.510
397.500	280.229	80.009	19.994	103.405	19.703	22.728	0.474
405.000	284.021	80.005	19.993	103.409	19.674	24.685	0.525
412.500	287.827	80.007	19.994	103.410	19.645	26.601	0.458
420.000	291.642	80.006	19.993	103.408	19.615	28.627	0.513
427.500	295.384	80.006	19.993	103.428	19.592	30.159	0.500
435.000	299.204	80.006	19.994	103.436	19.577	31.157	0.498
442.500	302.919	80.007	19.994	103.430	19.551	32.887	0.449
450.000	306.934	80.008	19.993	103.443	19.538	33.765	0.534
457.500	310.514	80.006	19.995	103.443	19.514	35.347	0.495
465.000	314.346	80.007	19.995	103.448	19.491	36.919	0.459
472.500	318.274	80.007	19.995	103.466	19.465	38.666	0.487
480.000	322.078	80.010	19.995	103.472	19.439	40.441	0.543
487.500	325.902	80.006	19.995	103.480	19.404	42.758	0.542
495.000	329.784	80.006	19.995	103.485	19.366	45.306	0.537
502.500	333.628	80.008	19.994	103.516	19.317	48.586	0.529
510.000	337.484	80.007	19.994	103.531	19.264	52.174	0.513
517.500	341.297	80.007	19.994	103.556	19.198	56.620	0.525
525.000	345.095	80.006	19.993	103.585	19.126	61.496	0.523
532.500	348.890	80.008	19.994	103.609	19.043	67.040	0.484
540.000	352.640	80.009	19.993	103.644	18.965	72.274	0.532
547.500	356.373	80.009	19.994	103.646	18.887	77.486	0.514
555.000	360.102	80.009	19.995	103.669	18.824	81.717	0.481
562.500	363.798	80.008	19.994	103.653	18.791	83.939	0.489
570.001	367.437	80.008	19.994	103.632	18.800	83.229	0.447
577.500	371.277	80.007	19.994	103.564	18.872	78.395	0.511
585.000	375.019	80.005	19.996	103.491	19.006	69.342	0.505
592.500	378.755	80.006	19.995	103.411	19.192	56.879	0.451
600.000	382.633	80.008	19.995	103.332	19.400	42.930	0.550
607.500	386.416	80.006	19.995	103.292	19.587	30.406	0.527
615.000	390.222	80.009	19.995	103.251	19.743	20.029	0.532
622.500	394.138	80.008	19.993	103.239	19.834	13.924	0.530
630.000	397.953	80.009	19.994	103.239	19.886	10.459	0.459
637.500	401.817	80.008	19.994	103.238	19.907	9.027	0.511
645.000	405.616	80.010	19.994	103.252	19.922	8.058	0.543
652.500	409.392	80.007	19.994	103.244	19.926	7.803	0.510
660.000	413.202	80.006	19.995	103.246	19.935	7.192	0.508
667.500	416.927	80.007	19.994	103.246	19.935	7.174	0.482
675.000	420.786	80.007	19.995	103.249	19.942	6.726	0.526
682.500	424.617	80.006	19.995	103.242	19.947	6.357	0.492
690.000	428.571	80.006	19.996	103.250	19.947	6.373	0.547
697.500	432.464	80.008	19.994	103.247	19.955	5.830	0.523
705.000	436.425	80.008	19.993	103.244	19.955	5.859	0.518
712.500	440.318	80.007	19.994	103.243	19.958	5.646	0.493
720.000	444.163	80.008	19.995	103.239	19.964	5.206	0.521
727.500	447.973	80.008	19.993	103.233	19.966	5.116	0.515
735.000	451.857	80.007	19.994	103.228	19.966	5.127	0.513
742.500	455.659	80.007	19.994	103.221	19.969	4.871	0.524
750.000	459.465	80.007	19.994	103.224	19.970	4.855	0.532
757.500	463.236	80.008	19.994	103.211	19.979	4.264	0.513
765.000	466.929	80.008	19.995	103.220	19.980	4.184	0.559
772.500	470.620	80.006	19.995	103.215	19.982	4.049	0.476
780.000	474.453	80.007	19.996	103.223	19.982	4.064	0.520
787.500	478.235	80.009	19.994	103.224	19.981	4.107	0.493
795.000	482.203	80.007	19.994	103.223	19.987	3.676	0.531
802.500	486.056	80.007	19.993	103.215	19.987	3.685	0.537
810.000	489.972	80.010	19.994	103.214	19.992	3.345	0.542
817.500	493.817	80.009	19.994	103.215	19.992	3.355	0.528
825.000	497.765	80.007	19.995	103.219	19.990	3.463	0.499
832.500	501.637	80.007	19.994	103.215	19.993	3.290	0.517
840.000	505.469	80.007	19.994	103.220	19.996	3.099	0.508
847.500	509.360	80.008	19.996	103.215	19.998	2.975	0.532
855.000	513.211	80.006	19.994	103.215	20.000	2.824	0.512
862.500	517.136	80.006	19.995	103.218	20.003	2.657	0.517
870.000	521.007	80.009	19.995	103.216	19.998	2.966	0.509
877.500	524.837	80.008	19.995	103.211	20.001	2.771	0.529
885.000	528.648	80.008	19.994	103.214	19.999	2.912	0.546
892.500	532.532	80.010	19.993	103.215	20.001	2.777	0.534
900.000	536.445	80.009	19.994	103.212	20.000	2.802	0.529
907.500	540.392	80.006	19.994	103.215	19.998	2.937	0.532
915.000	544.258	80.008	19.994	103.214	19.997	3.015	0.489
922.500	548.031	80.006	19.995	103.215	20.003	2.602	0.507
930.000	551.796	80.007	19.995	103.216	20.002	2.724	0.484
937.500	555.645	80.006	19.995	103.214	20.003	2.611	0.483
945.000	559.440	80.008	19.994	103.214	20.000	2.810	0.501
952.500	563.286	80.008	19.994	103.210	20.005	2.476	0.508
960.000	567.187	80.008	19.995	103.210	20.000	2.833	0.489
967.500	571.114	80.008	19.995	103.210	20.002	2.702	0.512
975.000	575.032	80.011	19.993	103.216	20.004	2.529	0.541
982.500	578.983	80.005	19.993	103.214	20.003	2.604	0.549
990.000	582.886	80.007	19.995	103.214	20.005	2.511	0.494
997.500	586.771	80.007	19.994	103.214	20.001	2.793	0.488
1005.000	590.576	80.008	19.994	103.205	20.005	2.497	0.528
1012.500	594.433	80.007	19.994	103.212	20.009	2.236	0.521
1020.000	598.185	80.007	19.995	103.213	20.006	2.416	0.504
1027.500	601.977	80.009	19.995	103.212	20.006	2.424	0.480
1035.000	605.741	80.008	19.994	103.209	20.013	1.942	0.503
1042.500	609.510	80.008	19.995	103.214	20.014	1.918	0.505
1050.000	613.377	80.008	19.996	103.213	20.014	1.896	0.533
1057.500	617.203	80.009	19.995	103.214	20.011	2.118	0.514
1065.000	621.016	80.008	19.995	103.212	20.010	2.138	0.523
1072.500	624.776	80.007	19.993	103.209	20.011	2.061	0.514
1080.000	628.587	80.008	19.995	103.206	20.008	2.309	0.527
1087.500	632.372	80.007	19.995	103.210	20.005	2.486	0.509
1095.000	636.234	80.007	19.993	103.209	20.007	2.340	0.536
1102.500	640.129	80.008	19.993	103.212	20.011	2.078	0.515
1110.000	644.022	80.010	19.994	103.215	20.012	2.022	0.506
1117.500	647.941	80.008	19.994	103.213	20.015	1.809	0.512
1125.000	651.850	80.008	19.994	103.214	20.014	1.860	0.529
1132.500	655.757	80.011	19.994	103.210	20.014	1.882	0.529
1140.000	659.610	80.011	19.994	103.201	20.011	2.065	0.542
1147.500	663.381	80.008	19.995	103.209	20.017	1.707	0.548
1155.000	667.137	80.007	19.996	103.195	20.014	1.883	0.498
1162.500	670.969	80.007	19.995	103.201	20.015	1.830	0.519
1170.000	674.831	80.007	19.994	103.195	20.017	1.694	0.536
1177.500	678.706	80.006	19.995	103.205	20.016	1.761	0.509
1185.000	682.530	80.007	19.995	103.205	20.014	1.925	0.528
1192.500	686.353	80.010	19.993	103.204	20.012	2.016	0.508
1200.000	690.132	80.008	19.993	103.197	20.014	1.916	0.524
1207.500	693.910	80.009	19.994	103.194	20.016	1.780	0.490
1215.000	697.794	80.009	19.995	103.181	20.019	1.559	0.516
1222.500	701.594	80.010	19.994	103.182	20.018	1.606	0.513
1230.000	705.419	80.007	19.994	103.185	20.015	1.835	0.512
1237.501	709.144	80.007	19.996	103.189	20.012	1.996	0.508
1245.000	712.867	80.007	19.994	103.184	20.015	1.832	0.508
1252.501	716.644	80.007	19.995	103.186	20.012	2.014	0.499
1260.001	720.399	80.005	19.994	103.179	20.017	1.672	0.519
1267.500	724.220	80.008	19.993	103.192	20.016	1.787	0.521
1275.001	728.028	80.008	19.994	103.193	20.017	1.705	0.493
1282.500	731.891	80.008	19.995	103.186	20.017	1.697	0.521
1290.000	735.718	80.008	19.994	103.201	20.016	1.752	0.517
1297.500	739.629	80.009	19.993	103.180	20.015	1.796	0.513
1305.000	743.418	80.010	19.993	103.188	20.013	1.943	0.490