Folder: fsri_materials_database/01_Data/Bravo_OSB/MCC (part 2)

File: Bravo_OSB_MCC_30K_min_211207_R3.txt
Sample ID:	C:\MCC\MCC Cal\Test\Bravo_OSB_MCC_30K_min_211207_R3.txt
Sample Weight (mg):	4.41
Heating Rate (C/s):	0.5
Combustor Temp (C):	900
N2 Flow Rate (cc/min):	80
O2 Flow Rate (cc/min):	20
Calibration File:	C:\MCC\MCC Cal\Coeff1 JN10440_30_210304.txt.txt
T Correction Coefficients:	0	1.024463	0
Time Shift (s):	14
*
Time (s)	Temperature (C)	N2 flow rate (cc/min)	O2 flow rate (cc/min)	Flow Rate (cc/min)	Oxygen (%)	HRR (W/g)	Heating rate (C/s)
0.000	109.407	80.004	19.994	103.056	20.207	-0.506	-0.053
8.000	109.433	80.003	19.994	103.056	20.203	-0.236	0.032
16.000	109.411	80.007	19.994	103.074	20.203	-0.276	-0.009
24.000	109.580	80.004	19.994	103.152	20.188	0.831	0.030
32.000	110.007	80.003	19.995	103.147	20.190	0.670	0.059
40.001	110.589	80.004	19.993	103.111	20.190	0.694	0.102
48.000	111.371	80.003	19.995	103.212	20.181	1.362	0.122
56.000	112.434	80.002	19.996	103.213	20.177	1.681	0.151
64.000	113.841	80.003	19.995	103.254	20.170	2.140	0.177
72.000	115.456	80.005	19.994	103.282	20.169	2.236	0.228
80.000	117.462	80.005	19.994	103.308	20.164	2.598	0.281
88.001	119.910	80.006	19.994	103.325	20.158	3.076	0.334
96.000	122.631	80.008	19.994	103.324	20.157	3.140	0.345
104.001	125.681	80.005	19.994	103.325	20.154	3.303	0.401
112.000	128.924	80.004	19.995	103.330	20.153	3.375	0.451
120.000	132.341	80.003	19.995	103.329	20.151	3.542	0.430
128.000	135.943	80.002	19.994	103.331	20.153	3.435	0.463
136.000	139.648	80.003	19.994	103.329	20.156	3.158	0.455
144.000	143.531	80.003	19.996	103.327	20.159	2.964	0.471
152.000	147.522	80.005	19.995	103.317	20.158	3.020	0.489
160.000	151.492	80.004	19.994	103.317	20.158	3.044	0.502
168.000	155.476	80.005	19.995	103.317	20.161	2.801	0.498
176.000	159.494	80.006	19.994	103.299	20.162	2.733	0.489
184.000	163.542	80.005	19.993	103.291	20.163	2.667	0.519
192.000	167.567	80.002	19.993	103.294	20.163	2.643	0.503
200.000	171.641	80.004	19.994	103.289	20.166	2.426	0.480
208.000	175.707	80.003	19.994	103.280	20.165	2.546	0.512
216.000	179.657	80.004	19.995	103.279	20.163	2.647	0.469
224.000	183.668	80.004	19.995	103.277	20.168	2.340	0.499
232.000	187.682	80.004	19.994	103.263	20.168	2.314	0.477
240.000	191.619	80.005	19.995	103.260	20.167	2.356	0.471
248.000	195.517	80.005	19.993	103.254	20.164	2.636	0.477
256.000	199.468	80.007	19.994	103.259	20.163	2.654	0.519
264.000	203.368	80.004	19.993	103.260	20.159	2.975	0.507
272.000	207.363	80.003	19.994	103.258	20.156	3.158	0.518
280.000	211.268	80.003	19.993	103.253	20.152	3.488	0.499
288.000	215.195	80.004	19.993	103.263	20.154	3.321	0.511
296.000	219.151	80.003	19.994	103.254	20.150	3.611	0.475
304.000	223.182	80.002	19.994	103.256	20.145	3.956	0.480
312.000	227.133	80.004	19.994	103.256	20.139	4.441	0.483
320.000	231.178	80.003	19.994	103.260	20.131	5.028	0.469
328.000	235.237	80.004	19.995	103.257	20.127	5.340	0.490
336.000	239.223	80.007	19.994	103.260	20.118	5.937	0.485
344.000	243.213	80.006	19.994	103.256	20.107	6.750	0.481
352.000	247.250	80.003	19.994	103.276	20.098	7.434	0.514
360.000	251.337	80.004	19.994	103.272	20.090	8.012	0.517
368.000	255.331	80.005	19.993	103.267	20.069	9.582	0.524
376.000	259.354	80.003	19.993	103.287	20.050	10.923	0.521
384.000	263.298	80.003	19.993	103.295	20.028	12.550	0.498
392.000	267.301	80.005	19.995	103.297	20.003	14.343	0.530
400.000	271.364	80.005	19.995	103.301	19.978	16.171	0.514
408.000	275.370	80.005	19.994	103.317	19.947	18.494	0.513
416.000	279.399	80.005	19.995	103.323	19.915	20.785	0.468
424.000	283.398	80.003	19.995	103.325	19.889	22.723	0.486
432.000	287.450	80.002	19.994	103.331	19.861	24.728	0.502
440.000	291.503	80.003	19.993	103.336	19.838	26.466	0.501
448.000	295.525	80.003	19.994	103.335	19.811	28.428	0.493
456.000	299.583	80.003	19.994	103.346	19.792	29.792	0.508
464.000	303.596	80.004	19.994	103.342	19.767	31.601	0.504
472.000	307.609	80.004	19.994	103.358	19.749	32.970	0.503
480.000	311.660	80.005	19.994	103.364	19.723	34.856	0.512
488.000	315.697	80.005	19.995	103.368	19.702	36.366	0.495
496.000	319.727	80.006	19.994	103.369	19.678	38.164	0.484
504.000	323.763	80.005	19.994	103.379	19.649	40.262	0.496
512.000	327.835	80.004	19.995	103.394	19.621	42.356	0.534
520.000	331.839	80.005	19.996	103.403	19.586	44.890	0.507
528.000	335.907	80.003	19.994	103.424	19.542	48.146	0.505
536.000	339.945	80.003	19.994	103.446	19.484	52.399	0.477
544.000	343.984	80.004	19.995	103.470	19.425	56.716	0.494
552.000	348.042	80.004	19.993	103.485	19.350	62.220	0.496
560.000	352.103	80.004	19.994	103.528	19.270	68.142	0.519
568.000	356.171	80.004	19.994	103.561	19.188	74.124	0.488
576.000	360.224	80.005	19.994	103.566	19.117	79.306	0.508
584.000	364.253	80.003	19.994	103.560	19.068	82.868	0.486
592.001	368.349	80.002	19.994	103.552	19.055	83.761	0.512
600.000	372.419	80.003	19.994	103.503	19.108	79.831	0.515
608.000	376.553	80.003	19.995	103.426	19.219	71.700	0.553
616.000	380.652	80.002	19.994	103.334	19.390	59.120	0.507
624.000	384.762	80.002	19.993	103.266	19.602	43.631	0.502
632.000	388.871	80.004	19.996	103.214	19.798	29.345	0.527
640.000	392.986	80.004	19.994	103.205	19.946	18.532	0.501
648.000	397.079	80.003	19.995	103.186	20.034	12.082	0.506
656.000	401.163	80.007	19.992	103.177	20.077	8.969	0.510
664.000	405.155	80.004	19.994	103.178	20.094	7.704	0.501
672.000	409.226	80.003	19.995	103.172	20.101	7.169	0.517
680.000	413.288	80.003	19.996	103.180	20.111	6.506	0.517
688.000	417.310	80.003	19.995	103.177	20.112	6.362	0.495
696.000	421.397	80.001	19.995	103.183	20.121	5.752	0.520
704.000	425.464	80.002	19.995	103.177	20.122	5.636	0.520
712.000	429.552	80.003	19.993	103.173	20.123	5.589	0.502
720.000	433.626	80.002	19.995	103.174	20.130	5.072	0.538
728.000	437.701	80.004	19.993	103.172	20.131	4.988	0.502
736.000	441.775	80.005	19.994	103.171	20.134	4.811	0.511
744.000	445.763	80.005	19.995	103.171	20.140	4.330	0.484
752.000	449.822	80.002	19.994	103.176	20.143	4.165	0.496
760.000	453.909	80.003	19.994	103.174	20.140	4.334	0.506
768.000	457.938	80.002	19.995	103.177	20.146	3.948	0.491
776.000	462.042	80.004	19.995	103.171	20.143	4.111	0.527
784.000	466.067	80.003	19.994	103.171	20.151	3.551	0.502
792.000	470.209	80.005	19.996	103.169	20.153	3.427	0.523
800.000	474.398	80.004	19.993	103.168	20.153	3.400	0.559
808.000	478.471	80.004	19.994	103.169	20.159	2.978	0.489
816.000	482.573	80.005	19.995	103.167	20.161	2.853	0.519
824.000	486.689	80.005	19.994	103.168	20.161	2.829	0.523
832.000	490.770	80.003	19.994	103.172	20.166	2.479	0.529
840.000	494.911	80.004	19.994	103.163	20.164	2.622	0.520
848.000	499.026	80.005	19.994	103.160	20.164	2.630	0.492
856.000	503.098	80.003	19.996	103.161	20.163	2.697	0.495
864.000	507.203	80.003	19.994	103.156	20.167	2.369	0.513
872.000	511.319	80.005	19.994	103.166	20.169	2.258	0.524
880.000	515.420	80.002	19.996	103.157	20.169	2.260	0.505
888.000	519.552	80.004	19.994	103.156	20.168	2.314	0.527
896.000	523.690	80.005	19.993	103.156	20.165	2.528	0.493
904.000	527.780	80.004	19.994	103.154	20.167	2.403	0.512
912.000	531.882	80.002	19.995	103.159	20.169	2.260	0.513
920.000	535.966	80.003	19.994	103.151	20.169	2.218	0.502
928.000	540.090	80.003	19.994	103.157	20.168	2.341	0.485
936.000	544.118	80.003	19.994	103.157	20.167	2.353	0.459
944.000	548.206	80.002	19.995	103.158	20.168	2.288	0.480
952.000	552.353	80.004	19.992	103.160	20.169	2.260	0.500
960.000	556.460	80.003	19.994	103.157	20.171	2.053	0.518
968.000	560.495	80.004	19.995	103.138	20.169	2.204	0.502
976.000	564.559	80.005	19.995	103.138	20.170	2.158	0.527
984.000	568.607	80.004	19.994	103.144	20.167	2.369	0.496
992.000	572.726	80.002	19.994	103.144	20.171	2.089	0.512
1000.000	576.859	80.003	19.993	103.145	20.171	2.103	0.538
1008.000	580.922	80.003	19.997	103.144	20.173	1.912	0.491
1016.000	585.002	80.003	19.994	103.135	20.169	2.202	0.489
1024.000	588.885	80.002	19.994	103.145	20.168	2.288	0.524
1032.000	592.613	80.006	19.994	103.138	20.169	2.208	0.516
1040.000	597.214	80.005	19.994	103.140	20.172	2.045	0.478
1048.000	601.356	80.004	19.995	103.143	20.170	2.140	0.592
1056.000	605.472	80.006	19.994	103.131	20.170	2.178	0.493
1064.000	609.601	80.002	19.996	103.135	20.169	2.236	0.522
1072.000	613.709	80.004	19.994	103.136	20.173	1.910	0.507
1080.001	617.799	80.003	19.994	103.135	20.169	2.206	0.513
1088.001	621.947	80.003	19.994	103.139	20.172	1.982	0.505
1096.001	626.101	80.004	19.994	103.133	20.168	2.329	0.530
1104.000	630.317	80.005	19.994	103.135	20.171	2.097	0.526
1112.000	634.603	80.006	19.994	103.133	20.171	2.122	0.547
1120.001	638.706	80.004	19.994	103.133	20.169	2.214	0.469
1128.000	642.883	80.004	19.995	103.136	20.169	2.242	0.514
1136.000	646.973	80.006	19.994	103.134	20.167	2.361	0.518
1144.000	651.067	80.002	19.995	103.135	20.168	2.313	0.505
1152.000	655.116	80.003	19.995	103.135	20.162	2.729	0.505
1160.000	659.104	80.003	19.995	103.130	20.164	2.611	0.510
1168.000	662.781	80.003	19.993	103.129	20.161	2.834	0.101
1176.000	666.809	80.004	19.994	103.125	20.163	2.657	0.501
1184.001	670.822	80.004	19.994	103.132	20.162	2.735	0.518
1192.001	674.968	80.005	19.995	103.133	20.165	2.532	0.505
1200.001	679.165	80.004	19.994	103.131	20.159	2.967	0.522
1208.001	683.419	80.004	19.994	103.135	20.163	2.693	0.604
1216.000	687.719	80.005	19.995	103.132	20.163	2.673	0.572
1224.000	692.085	80.003	19.994	103.130	20.163	2.703	0.544
1232.000	696.516	80.003	19.994	103.129	20.164	2.635	0.528
1240.000	700.876	80.002	19.994	103.130	20.164	2.615	0.527
1248.000	705.224	80.002	19.994	103.129	20.162	2.770	0.537
1256.000	709.403	80.002	19.994	103.130	20.162	2.720	0.508
1264.000	713.607	80.004	19.994	103.131	20.164	2.599	0.532
1272.000	717.732	80.005	19.994	103.121	20.159	2.991	0.544
1280.000	721.795	80.004	19.994	103.125	20.165	2.559	0.517
1288.000	725.659	80.005	19.994	103.119	20.166	2.432	0.475
1296.000	729.453	80.006	19.994	103.125	20.165	2.551	0.481
1304.000	733.031	80.002	19.993	103.108	20.161	2.790	0.418
1312.001	736.704	80.003	19.995	103.109	20.161	2.828	0.418
1320.000	740.492	80.005	19.995	103.116	20.162	2.764	0.488
1325.500	743.297	80.002	19.994	103.129	20.158	3.041	0.548