Folder: fsri_materials_database/01_Data/Window_Screen/STA/N2/10K_min (part 2)

File: Window_Screen_STA_N2_10KData_220812_R3.csv
##Temp./Â°C,Time/min,Mass loss(subtr.2)/mg,DSC(subtr.2)/(mW/mg),Sensit./(uV/mW)
49.552,10.00917,0.02504,0.01338833,1.07022
51.952,11.18631,0.02778777,0.12111,1.06956
54.352,11.56438,0.02632597,0.17818,1.06889
56.752,11.87812,0.02773524,0.21579,1.06822
59.152,12.16442,0.02741378,0.23969,1.06754
61.552,12.43655,0.02921002,0.25855,1.06685
63.952,12.70101,0.0278734,0.27162,1.06616
66.352,12.9629,0.02788742,0.27955,1.06547
68.752,13.2214,0.02921043,0.28542,1.06476
71.152,13.4758,0.03181365,0.29271,1.06405
73.552,13.72894,0.03121268,0.29699,1.06334
75.952,13.9804,0.03095244,0.30188,1.06262
78.352,14.2291,0.03141,0.30807,1.06189
80.752,14.47711,0.03142078,0.3126,1.06116
83.152,14.72224,0.03272484,0.31482,1.06042
85.552,14.9657,0.03129387,0.32004,1.05967
87.952,15.20703,0.03253756,0.32447,1.05892
90.352,15.44736,0.03140999,0.32884,1.05817
92.752,15.68666,0.03139665,0.33289,1.0574
95.152,15.9241,0.0327266,0.33785,1.05663
97.552,16.16189,0.0314081,0.33869,1.05586
99.952,16.3983,0.03169488,0.34114,1.05508
102.352,16.63381,0.03139997,0.34574,1.05429
104.752,16.86944,0.03272,0.34868,1.05349
107.152,17.10475,0.03140234,0.35181,1.05269
109.552,17.33897,0.03139415,0.3568,1.05189
111.952,17.5732,0.03140964,0.36052,1.05107
114.352,17.80688,0.03140997,0.36458,1.05026
116.752,18.04117,0.03141013,0.36939,1.04943
119.152,18.27507,0.0314203,0.37127,1.0486
121.552,18.50852,0.03403896,0.37382,1.04776
123.952,18.7421,0.03188331,0.3761,1.04692
126.352,18.97523,0.03305,0.37859,1.04607
128.752,19.20813,0.03174314,0.37969,1.04521
131.152,19.4402,0.03337989,0.38275,1.04435
133.552,19.6722,0.03202504,0.38621,1.04348
135.952,19.9046,0.03206974,0.39025,1.0426
138.352,20.13656,0.03190223,0.39091,1.04172
140.752,20.36834,0.03206,0.39434,1.04084
143.152,20.59931,0.03206002,0.39527,1.03994
145.552,20.82969,0.03106961,0.39685,1.03904
147.952,21.0604,0.03075,0.40156,1.03813
150.352,21.28943,0.03173748,0.40223,1.03722
152.752,21.5209,0.03107164,0.40359,1.0363
155.152,21.7511,0.03006689,0.41073,1.03537
157.552,21.98173,0.03008,0.41055,1.03444
159.952,22.21161,0.03096556,0.41117,1.0335
162.352,22.4418,0.02844159,0.41474,1.03256
164.752,22.6715,0.02943,0.41658,1.0316
167.152,22.9007,0.02942932,0.41767,1.03064
169.552,23.13029,0.02805697,0.42156,1.02968
171.952,23.3601,0.02678331,0.42352,1.02871
174.352,23.58878,0.02766999,0.4253,1.02773
176.752,23.81812,0.02635518,0.42668,1.02674
179.152,24.0474,0.02635,0.42941,1.02575
181.552,24.27604,0.02667958,0.4294,1.02475
183.952,24.50512,0.02535996,0.43131,1.02375
186.352,24.7334,0.02635,0.4317,1.02274
188.752,24.96154,0.02503,0.4324,1.02172
191.152,25.19086,0.02333257,0.43209,1.0207
193.552,25.41933,0.02108966,0.43343,1.01967
195.952,25.64796,0.02142026,0.43404,1.01863
198.352,25.8771,0.02054098,0.43982,1.01758
200.752,26.10517,0.01844999,0.44185,1.01653
203.152,26.33367,0.01646349,0.44088,1.01548
205.552,26.56157,0.01482012,0.44401,1.01441
207.952,26.79042,0.01318506,0.44389,1.01334
210.352,27.01871,0.009230146,0.44485,1.01226
212.752,27.2471,0.009228403,0.44639,1.01118
215.152,27.4753,0.005259631,0.45037,1.01009
217.552,27.703,0.00245267,0.45158,1.00899
219.952,27.93148,-0.001049222,0.45433,1.00788
222.352,28.1596,-0.00628551,0.4584,1.00677
224.752,28.3886,-0.009869745,0.45849,1.00566
227.152,28.61719,-0.01516996,0.45938,1.00453
229.552,28.84569,-0.02147256,0.46125,1.0034
231.952,29.07432,-0.02742943,0.46492,1.00226
234.352,29.30275,-0.03592859,0.47168,1.00111
236.752,29.53105,-0.04291729,0.47803,0.99996
239.152,29.75937,-0.05247587,0.48253,0.9988
241.552,29.98762,-0.06392761,0.4841,0.99764
243.952,30.21609,-0.07648107,0.48686,0.99646
246.352,30.44425,-0.08883316,0.48975,0.99528
248.752,30.67253,-0.10438,0.49786,0.9941
251.152,30.9007,-0.12123,0.50575,0.9929
253.552,31.12878,-0.14005,0.51723,0.9917
255.952,31.3576,-0.16454,0.52384,0.9905
258.352,31.5858,-0.18838,0.52501,0.98928
260.752,31.8146,-0.21739,0.52798,0.98806
263.152,32.04357,-0.25013,0.53185,0.98683
265.552,32.27225,-0.28419,0.54662,0.9856
267.952,32.5008,-0.32313,0.58435,0.98436
270.352,32.72974,-0.36611,0.61865,0.98311
272.752,32.95968,-0.41022,0.64727,0.98185
275.152,33.18887,-0.4572,0.67367,0.98059
277.552,33.41823,-0.51101,0.69935,0.97932
279.952,33.64804,-0.5718,0.72846,0.97804
282.352,33.8769,-0.63949,0.75789,0.97676
284.752,34.10674,-0.7123,0.79455,0.97547
287.152,34.336,-0.79541,0.83008,0.97417
289.552,34.56625,-0.88939,0.89667,0.97287
291.952,34.796,-0.99034,0.94755,0.97156
294.352,35.02632,-1.10042,0.95387,0.97024
296.752,35.25678,-1.22008,0.95355,0.96891
299.152,35.48687,-1.33397,0.97265,0.96758
301.552,35.71723,-1.43237,0.95825,0.96624
303.952,35.94741,-1.51592,0.91542,0.96489
306.352,36.17763,-1.5841,0.85424,0.96354
308.752,36.40782,-1.64087,0.77632,0.96218
311.152,36.63713,-1.68735,0.69386,0.96081
313.552,36.86616,-1.72197,0.61475,0.95944
315.952,37.09555,-1.75077,0.54584,0.95805
318.352,37.32497,-1.77127,0.48553,0.95667
320.752,37.554,-1.78902,0.435,0.95527
323.152,37.78303,-1.80444,0.39625,0.95387
325.552,38.0124,-1.81802,0.36709,0.95246
327.952,38.2423,-1.82528,0.34227,0.95104
330.352,38.47226,-1.8356,0.31947,0.94962
332.752,38.70255,-1.8436,0.30225,0.94818
335.152,38.93289,-1.84885,0.285,0.94675
337.552,39.1641,-1.85417,0.27539,0.9453
339.952,39.39428,-1.85817,0.26461,0.94385
342.352,39.62573,-1.86214,0.25681,0.94239
344.752,39.8576,-1.86608,0.25063,0.94092
347.152,40.08938,-1.87004,0.24542,0.93945
349.552,40.32105,-1.87235,0.24168,0.93797
351.952,40.55299,-1.87401,0.23779,0.93648
354.352,40.78487,-1.87762,0.23444,0.93499
356.752,41.01698,-1.87893,0.22859,0.93349
359.152,41.249,-1.87926,0.22722,0.93198
361.552,41.48145,-1.88322,0.22349,0.93046
363.952,41.71441,-1.88354,0.22297,0.92894
366.352,41.9469,-1.88486,0.22171,0.92741
368.752,42.18007,-1.88618,0.21985,0.92587
371.152,42.4127,-1.88715,0.21734,0.92433
373.552,42.64541,-1.88942,0.2185,0.92278
375.952,42.87915,-1.89079,0.21775,0.92122
378.352,43.11222,-1.89236,0.21678,0.91966
380.752,43.34536,-1.89474,0.21527,0.91809
383.152,43.57819,-1.89603,0.21403,0.91651
385.552,43.8122,-1.89672,0.21203,0.91492
387.952,44.04598,-1.89869,0.21238,0.91333
390.352,44.2791,-1.89968,0.21185,0.91173
392.752,44.51276,-1.90396,0.20989,0.91013
395.152,44.74628,-1.90396,0.21108,0.90851
397.552,44.9797,-1.9066,0.21089,0.90689
399.952,45.21281,-1.91055,0.20874,0.90527
402.352,45.4467,-1.91187,0.20935,0.90363
404.752,45.68026,-1.9145,0.20536,0.90199
407.152,45.91386,-1.91848,0.20401,0.90034
409.552,46.14788,-1.92103,0.19825,0.89869
411.952,46.3818,-1.92372,0.19748,0.89703
414.352,46.6166,-1.92879,0.19279,0.89536
416.752,46.85068,-1.93291,0.18596,0.89369
419.152,47.08485,-1.93783,0.18369,0.892
421.552,47.31908,-1.94359,0.1785,0.89032
423.952,47.55385,-1.9483,0.1763,0.88862
426.352,47.78842,-1.95355,0.17479,0.88692
428.752,48.02308,-1.96194,0.17387,0.88521
431.152,48.25761,-1.96984,0.17329,0.88349
433.552,48.49211,-1.9771,0.17544,0.88177
435.952,48.72732,-1.98617,0.17631,0.88004
438.352,48.96218,-1.99622,0.17994,0.87831
440.752,49.19733,-2.00904,0.18324,0.87657
443.152,49.43164,-2.01989,0.19223,0.87482
445.552,49.66745,-2.03293,0.19267,0.87306
447.952,49.9024,-2.04856,0.20388,0.8713
450.352,50.13889,-2.06391,0.21075,0.86953
452.752,50.37487,-2.07796,0.21747,0.86776
455.152,50.61157,-2.09631,0.22835,0.86597
457.552,50.84783,-2.11128,0.23419,0.86419
459.952,51.08352,-2.12886,0.24296,0.86239
462.352,51.31982,-2.14448,0.24808,0.86059
464.752,51.55604,-2.1632,0.25338,0.85878
467.152,51.79189,-2.17724,0.25783,0.85697
469.552,52.0283,-2.19157,0.25938,0.85515
471.952,52.26388,-2.20469,0.25955,0.85332
474.352,52.49995,-2.21915,0.25662,0.85149
476.752,52.7364,-2.23032,0.25594,0.84965
479.152,52.9726,-2.2417,0.25261,0.8478
481.552,53.2086,-2.25348,0.25124,0.84595
483.952,53.4453,-2.26384,0.24955,0.84409
486.352,53.6821,-2.27297,0.24702,0.84223
488.752,53.91894,-2.28216,0.24537,0.84035
491.152,54.15574,-2.28894,0.24312,0.83848
493.552,54.3925,-2.29563,0.24262,0.83659
495.952,54.62984,-2.30116,0.2395,0.8347
498.352,54.8671,-2.30601,0.23623,0.83281
500.752,55.10406,-2.31052,0.2346,0.83091
503.152,55.3403,-2.31579,0.23517,0.829
505.552,55.57716,-2.31905,0.23533,0.82708
507.952,55.81451,-2.32102,0.23421,0.82516
510.352,56.05135,-2.32499,0.23829,0.82324
512.752,56.2889,-2.32762,0.23742,0.82131
515.152,56.52626,-2.3296,0.23758,0.81937
517.552,56.7637,-2.33173,0.23543,0.81742
519.952,57.00206,-2.33422,0.23256,0.81547
522.352,57.2399,-2.33651,0.23382,0.81352
524.752,57.4775,-2.33652,0.24327,0.81156
527.152,57.71507,-2.33924,0.25095,0.80959
529.552,57.95338,-2.34025,0.25767,0.80762
531.952,58.1914,-2.34277,0.25751,0.80564
534.352,58.4289,-2.34144,0.26232,0.80365
536.752,58.66705,-2.34277,0.26038,0.80166
539.152,58.9052,-2.34475,0.25714,0.79967
541.552,59.144,-2.34507,0.25762,0.79767
543.952,59.3828,-2.34705,0.25559,0.79566
546.352,59.6217,-2.34837,0.25025,0.79365
548.752,59.8606,-2.34969,0.24597,0.79163
551.152,60.09978,-2.34968,0.24228,0.78961
553.552,60.33856,-2.35065,0.23719,0.78758
555.952,60.57779,-2.35067,0.23264,0.78555
558.352,60.81655,-2.35199,0.22361,0.78351
560.752,61.0564,-2.35199,0.21746,0.78146
563.152,61.29534,-2.35233,0.21177,0.77941
565.552,61.53416,-2.35265,0.20593,0.77736
567.952,61.7742,-2.35364,0.19597,0.7753
570.352,62.01324,-2.35363,0.19217,0.77324
572.752,62.2528,-2.35364,0.18671,0.77117
575.152,62.4928,-2.35495,0.1839,0.76909
577.552,62.73251,-2.35458,0.17769,0.76701
579.952,62.9724,-2.35569,0.17369,0.76493
582.352,63.212,-2.35529,0.16907,0.76284
584.752,63.4523,-2.35651,0.16351,0.76074
587.152,63.69203,-2.35683,0.16078,0.75864
589.552,63.9315,-2.35693,0.15508,0.75654
591.952,64.17161,-2.35792,0.15178,0.75443
594.352,64.41026,-2.35792,0.15216,0.75231
596.752,64.65117,-2.35792,0.14756,0.7502
599.152,64.8914,-2.35857,0.14417,0.74807
600.152,64.9916,-2.35792,0.14165,0.74719