Folder: fsri_materials_database/01_Data/Window_Screen/STA/N2/10K_min

Note: 01_Data/README.md
# Materials and Products Database
## 01_Data

Raw data generated from each apparatus are included here in plain-text format. The data is organized first by material, next by the short name of test apparatus used, and where applicable additional filtering by test settings.

### material.json

Each material directory contains a json file of the same name as the material. This file links the data stored in the repository as well as data and graphs produced by the accompanying scripts (__02_Scripts__) to the respective landing page for the material on the front-end website.

File: Window_Screen_STA_N2_10KData_220811_R1.csv
##Temp./Â°C,Time/min,Mass loss(subtr.2)/mg,DSC(subtr.2)/(mW/mg),Sensit./(uV/mW)
49.807,10.00917,0.02602,-0.01506436,1.07015
52.907,11.30718,0.02695429,0.0760886,1.06929
56.007,11.7495,0.02985465,0.11551,1.06843
59.107,12.1269,0.03000205,0.13568,1.06755
62.207,12.47894,0.02921784,0.14852,1.06667
65.307,12.81953,0.02853813,0.15307,1.06577
68.407,13.15345,0.02985174,0.15737,1.06487
71.507,13.4843,0.0312274,0.15933,1.06395
74.607,13.81112,0.03107492,0.16044,1.06302
77.707,14.1347,0.03143471,0.16209,1.06209
80.807,14.45372,0.03101678,0.1644,1.06114
83.907,14.77108,0.02970845,0.16694,1.06019
87.007,15.0847,0.02974956,0.16817,1.05922
90.107,15.39575,0.03100957,0.17075,1.05824
93.207,15.7047,0.02974251,0.17219,1.05726
96.307,16.01237,0.03304315,0.17452,1.05626
99.407,16.31927,0.03173,0.17994,1.05525
102.507,16.6253,0.03183598,0.18062,1.05424
105.607,16.92974,0.03184008,0.18177,1.05321
108.707,17.23324,0.03316161,0.18287,1.05217
111.807,17.53655,0.03184406,0.18763,1.05112
114.907,17.8376,0.03176242,0.18951,1.05007
118.007,18.1406,0.03381991,0.1909,1.049
121.107,18.4432,0.0338624,0.19291,1.04792
124.207,18.74476,0.03240524,0.19259,1.04683
127.307,19.0465,0.03320426,0.19457,1.04573
130.407,19.34669,0.03414814,0.19359,1.04462
133.507,19.6466,0.03279419,0.19648,1.0435
136.607,19.94635,0.03316,0.1958,1.04236
139.707,20.24561,0.03348,0.19539,1.04122
142.807,20.54419,0.03444599,0.19723,1.04007
145.907,20.84292,0.03318606,0.19876,1.03891
149.007,21.1405,0.03415076,0.19938,1.03773
152.107,21.4387,0.03283254,0.20149,1.03655
155.207,21.73534,0.03348024,0.20019,1.03535
158.307,22.03358,0.03184,0.19985,1.03415
161.407,22.3306,0.03413303,0.20095,1.03293
164.507,22.62722,0.03158783,0.20165,1.0317
167.607,22.92375,0.03220717,0.20018,1.03046
170.707,23.22081,0.03051247,0.20142,1.02921
173.807,23.51647,0.03052,0.20248,1.02795
176.907,23.81426,0.02912013,0.20338,1.02668
180.007,24.10872,0.02920997,0.20477,1.0254
183.107,24.40546,0.02728206,0.20453,1.0241
186.207,24.70015,0.02756009,0.2038,1.0228
189.307,24.9953,0.026577,0.20453,1.02149
192.407,25.2908,0.02426047,0.20408,1.02016
195.507,25.5857,0.02326532,0.20427,1.01882
198.607,25.88278,0.02260974,0.20204,1.01747
201.707,26.1766,0.01966975,0.20306,1.01611
204.807,26.47216,0.01597977,0.20326,1.01474
207.907,26.7687,0.01470273,0.20476,1.01336
211.007,27.0631,0.01109,0.20722,1.01197
214.107,27.3581,0.008171394,0.2064,1.01056
217.207,27.653,0.003205925,0.20771,1.00915
220.307,27.9495,-0.00175071,0.20589,1.00772
223.407,28.2439,-0.007017843,0.20458,1.00628
226.507,28.53922,-0.01503956,0.20707,1.00483
229.607,28.8341,-0.01982872,0.20841,1.00337
232.707,29.12895,-0.03073879,0.2116,1.0019
235.807,29.4235,-0.04006886,0.21753,1.00042
238.907,29.71851,-0.05225941,0.22403,0.99892
242.007,30.0135,-0.06649496,0.2288,0.99742
245.107,30.30847,-0.08233875,0.23041,0.9959
248.207,30.60377,-0.10214,0.23768,0.99437
251.307,30.8996,-0.12497,0.24531,0.99283
254.407,31.1951,-0.15033,0.25511,0.99128
257.507,31.49005,-0.17947,0.26082,0.98971
260.607,31.7852,-0.21509,0.26387,0.98814
263.707,32.08085,-0.25619,0.2664,0.98655
266.807,32.37612,-0.30182,0.28789,0.98495
269.907,32.6716,-0.35405,0.34999,0.98334
273.007,32.96713,-0.41272,0.39983,0.98172
276.107,33.2635,-0.48297,0.46023,0.98009
279.207,33.55965,-0.56585,0.54832,0.97844
282.307,33.85696,-0.66368,0.61856,0.97678
285.407,34.15401,-0.77125,0.6176,0.97512
288.507,34.4507,-0.89886,0.64261,0.97344
291.607,34.74793,-1.02783,0.65279,0.97174
294.707,35.04486,-1.16997,0.70652,0.97004
297.807,35.34219,-1.32531,0.74623,0.96833
300.907,35.63942,-1.46385,0.77299,0.9666
304.007,35.93671,-1.57014,0.68728,0.96486
307.107,36.23191,-1.64704,0.55342,0.96311
310.207,36.5272,-1.70342,0.41928,0.96135
313.307,36.8236,-1.74298,0.31195,0.95958
316.407,37.11984,-1.77359,0.23494,0.95779
319.507,37.4169,-1.79341,0.17973,0.95599
322.607,37.71413,-1.80896,0.1375,0.95419
325.707,38.0117,-1.82144,0.10658,0.95236
328.807,38.30941,-1.83294,0.08440738,0.95053
331.907,38.60794,-1.84037,0.06601347,0.94869
335.007,38.90645,-1.84841,0.05270156,0.94683
338.107,39.20507,-1.85501,0.04521614,0.94497
341.207,39.50428,-1.86035,0.0361941,0.94309
344.307,39.80304,-1.86456,0.02819115,0.9412
347.407,40.10176,-1.86912,0.02449784,0.93929
350.507,40.40198,-1.87313,0.02273968,0.93738
353.607,40.70128,-1.87582,0.01794605,0.93545
356.707,41.0005,-1.87969,0.01635971,0.93351
359.807,41.30076,-1.88166,0.01404032,0.93157
362.907,41.60069,-1.88531,0.01091659,0.9296
366.007,41.90082,-1.88794,0.01066997,0.92763
369.107,42.20139,-1.8895,0.01138154,0.92565
372.207,42.50142,-1.89267,0.01013119,0.92365
375.307,42.80366,-1.89474,0.01087989,0.92164
378.407,43.10436,-1.89576,0.01186604,0.91962
381.507,43.40609,-1.89971,0.01481141,0.91759
384.607,43.70933,-1.90244,0.01639749,0.91555
387.707,44.0109,-1.90507,0.01832209,0.91349
390.807,44.31328,-1.9077,0.01924483,0.91143
393.907,44.6154,-1.91297,0.01951831,0.90935
397.007,44.9165,-1.91561,0.01941967,0.90726
400.107,45.21755,-1.91955,0.01768353,0.90516
403.207,45.5181,-1.92344,0.008154409,0.90305
406.307,45.8215,-1.927,0.00553956,0.90093
409.407,46.12343,-1.93284,0.00337629,0.89879
412.507,46.42573,-1.9364,0.0003660513,0.89664
415.607,46.72801,-1.94067,-0.003812172,0.89449
418.707,47.0306,-1.94801,-0.006223831,0.89232
421.807,47.3337,-1.95405,-0.01252171,0.89014
424.907,47.63686,-1.96161,-0.01608201,0.88794
428.007,47.94038,-1.97007,-0.01697747,0.88574
431.107,48.24405,-1.98088,-0.01835922,0.88353
434.207,48.5477,-1.99057,-0.0160302,0.8813
437.307,48.85092,-2.00223,-0.01395214,0.87907
440.407,49.15498,-2.01657,-0.008589563,0.87682
443.507,49.45909,-2.03342,-0.0004297404,0.87456
446.607,49.76287,-2.04931,0.01243154,0.87229
449.707,50.06705,-2.06738,0.02286224,0.87001
452.807,50.3708,-2.08897,0.03382825,0.86772
455.907,50.67453,-2.10829,0.04431053,0.86541
459.007,50.97899,-2.13,0.0562255,0.8631
462.107,51.28374,-2.15011,0.0696214,0.86077
465.207,51.58886,-2.17291,0.07683137,0.85844
468.307,51.8934,-2.19213,0.08244227,0.85609
471.407,52.19263,-2.20934,0.03071101,0.85374
474.507,52.49865,-2.22646,0.02312054,0.85137
477.607,52.80653,-2.24298,0.02208063,0.84899
480.707,53.1109,-2.25687,0.01919173,0.8466
483.807,53.41418,-2.27028,0.0177536,0.8442
486.907,53.7241,-2.28309,0.01812021,0.84179
490.007,54.0289,-2.29269,0.01789181,0.83937
493.107,54.32903,-2.30049,0.01187368,0.83694
496.207,54.6356,-2.30863,0.00705275,0.8345
499.307,54.94393,-2.31658,0.01164381,0.83205
502.407,55.2513,-2.32049,0.009921836,0.82959
505.507,55.55653,-2.32435,0.0046236,0.82712
508.607,55.8621,-2.32872,0.00576495,0.82464
511.707,56.16647,-2.33399,0.00612219,0.82215
514.807,56.47523,-2.3373,0.004068189,0.81965
517.907,56.78031,-2.33893,0.005596601,0.81714
521.007,57.08359,-2.34157,0.00384327,0.81462
524.107,57.39261,-2.34387,0.01524147,0.81208
527.207,57.70737,-2.34519,0.03551049,0.80955
530.307,58.0102,-2.35046,0.03996036,0.807
533.407,58.3185,-2.35048,0.04451861,0.80444
536.507,58.6278,-2.35112,0.03960496,0.80187
539.607,58.9397,-2.35309,0.03241292,0.79929
542.707,59.24638,-2.35408,0.02629817,0.7967
545.807,59.55379,-2.35473,0.02577733,0.79411
548.907,59.8636,-2.3554,0.01995544,0.7915
552.007,60.1717,-2.3554,0.01400464,0.78889
555.107,60.48115,-2.35672,0.0066922,0.78626
558.207,60.78949,-2.35738,-0.006243076,0.78363
561.307,61.0992,-2.35771,-0.01439533,0.78099
564.407,61.4084,-2.35935,-0.02190463,0.77834
567.507,61.717,-2.36001,-0.02418804,0.77568
570.607,62.02756,-2.36002,-0.03091949,0.77302
573.707,62.3363,-2.35967,-0.03985966,0.77034
576.807,62.64544,-2.36221,-0.04354402,0.76766
579.907,62.95612,-2.36231,-0.04818963,0.76496
583.007,63.26543,-2.36363,-0.05737856,0.76226
586.107,63.57566,-2.36331,-0.06309722,0.75956
589.207,63.8853,-2.36364,-0.06616979,0.75684
592.307,64.19765,-2.36361,-0.05556488,0.75412
595.407,64.508,-2.36359,-0.05647698,0.75138
598.507,64.81496,-2.36462,-0.06829565,0.74864
601.607,65.12557,-2.36495,-0.07018328,0.7459
604.707,65.43627,-2.36627,-0.07086464,0.74314
607.807,65.74705,-2.36726,-0.06898956,0.74038
610.907,66.0572,-2.36726,-0.06777479,0.73761
614.007,66.3675,-2.3666,-0.0672466,0.73483
617.107,66.67727,-2.36724,-0.06524955,0.73205
620.207,66.98736,-2.36791,-0.06833869,0.72926
623.307,67.2975,-2.36923,-0.0656947,0.72646
626.407,67.60879,-2.36858,-0.06169988,0.72365
629.507,67.92,-2.3699,-0.06073859,0.72084
632.607,68.23057,-2.37055,-0.06044847,0.71802
635.707,68.54125,-2.36957,-0.05667189,0.7152
638.807,68.85254,-2.36989,-0.05063239,0.71237
641.907,69.16455,-2.37088,-0.04739079,0.70953
645.007,69.4759,-2.37193,-0.05080225,0.70668
648.107,69.78792,-2.37253,-0.04509662,0.70383
651.207,70.10036,-2.3722,-0.04433699,0.70098
654.307,70.41213,-2.37351,-0.04270434,0.69811
657.407,70.72373,-2.37253,-0.04090324,0.69525
660.507,71.03526,-2.37351,-0.03818847,0.69237
663.607,71.3475,-2.37467,-0.03540682,0.68949
666.707,71.6585,-2.37324,-0.03548417,0.68661
669.807,71.96992,-2.37322,-0.03459254,0.68372
672.907,72.28235,-2.37351,-0.02945957,0.68083
676.007,72.59429,-2.37351,-0.0270345,0.67792
679.107,72.90677,-2.37485,-0.02752933,0.67502
682.207,73.2192,-2.3745,-0.02314806,0.67211
685.307,73.53193,-2.37409,-0.02410778,0.66919
688.407,73.8451,-2.37483,-0.02029157,0.66628
691.507,74.15755,-2.37615,-0.02050504,0.66335
694.607,74.46938,-2.37484,-0.01785786,0.66042
697.707,74.78169,-2.37681,-0.0141031,0.65749
700.807,75.09434,-2.37681,-0.009537164,0.65455
703.907,75.40674,-2.37714,-0.006424,0.65161
707.007,75.71956,-2.37714,-0.004303765,0.64867
710.107,76.03231,-2.38087,0.000165409,0.64572
713.207,76.34489,-2.38825,0.12896,0.64277
716.307,76.65725,-2.38669,0.14049,0.63981
719.407,76.96936,-2.38373,0.14125,0.63685
722.507,77.28134,-2.38179,0.14425,0.63389
725.607,77.59433,-2.38175,0.14217,0.63092
728.707,77.9075,-2.38142,0.14097,0.62796
731.807,78.22058,-2.38042,0.13885,0.62498
734.907,78.5337,-2.38087,0.13502,0.62201
738.007,78.84764,-2.3814,0.13473,0.61903
741.107,79.16149,-2.38043,0.13507,0.61605
744.207,79.47527,-2.38043,0.13506,0.61307
747.307,79.78928,-2.38043,0.1318,0.61009
749.307,79.9915,-2.38053,0.12961,0.60816

File: Window_Screen_STA_N2_10KData_220811_R2.csv
##Temp./Â°C,Time/min,Mass loss(subtr.2)/mg,DSC(subtr.2)/(mW/mg),Sensit./(uV/mW)
49.643,10.00917,-0.00395,0.008512234,1.07019
52.743,11.31105,-0.005172955,0.10878,1.06934
55.843,11.75365,-0.00545072,0.15302,1.06847
58.943,12.13123,-0.003703541,0.1793,1.0676
62.043,12.48425,-0.00426941,0.19366,1.06671
65.143,12.82671,-0.00515877,0.20201,1.06582
68.243,13.16112,-0.006579147,0.20945,1.06491
71.343,13.49204,-0.005269349,0.21177,1.064
74.443,13.81901,-0.00658917,0.21601,1.06307
77.543,14.1397,-0.00526812,0.21758,1.06214
80.643,14.45854,-0.006607723,0.22281,1.06119
83.743,14.7751,-0.005271515,0.22327,1.06024
86.843,15.08862,-0.00659071,0.22736,1.05927
89.943,15.39965,-0.006910085,0.23073,1.0583
93.043,15.70868,-0.007903275,0.23186,1.05731
96.143,16.0171,-0.006766725,0.23142,1.05631
99.243,16.32321,-0.00654619,0.23352,1.05531
102.343,16.62796,-0.00781758,0.23769,1.05429
105.443,16.93246,-0.00592126,0.23998,1.05326
108.543,17.23641,-0.007859537,0.246,1.05223
111.643,17.53939,-0.006571871,0.24915,1.05118
114.743,17.84186,-0.009220021,0.24905,1.05012
117.843,18.14347,-0.007915058,0.25764,1.04905
120.943,18.44479,-0.007906389,0.25841,1.04798
124.043,18.74625,-0.0079,0.25702,1.04689
127.143,19.04707,-0.009209717,0.26133,1.04579
130.243,19.34812,-0.00788355,0.26051,1.04468
133.343,19.64869,-0.009528493,0.25825,1.04356
136.443,19.9488,-0.009220001,0.26287,1.04243
139.543,20.24776,-0.01053952,0.26411,1.04128
142.643,20.54624,-0.01053408,0.26789,1.04013
145.743,20.84378,-0.00919807,0.26644,1.03897
148.843,21.14209,-0.01054,0.26887,1.03779
151.943,21.43981,-0.01186041,0.2691,1.03661
155.043,21.73732,-0.01151995,0.26923,1.03542
158.143,22.0353,-0.01282351,0.26832,1.03421
161.243,22.33217,-0.0118179,0.27088,1.03299
164.343,22.6292,-0.01318,0.27095,1.03177
167.443,22.92622,-0.01318009,0.27125,1.03053
170.543,23.2234,-0.0135,0.27655,1.02928
173.643,23.51993,-0.01482039,0.27414,1.02802
176.743,23.8162,-0.01581,0.27609,1.02675
179.843,24.11192,-0.01646116,0.27776,1.02547
182.943,24.4069,-0.02093305,0.27865,1.02417
186.043,24.70147,-0.01976,0.28007,1.02287
189.143,24.9964,-0.02107896,0.28131,1.02156
192.243,25.29157,-0.02075007,0.28145,1.02023
195.343,25.58646,-0.02303944,0.28085,1.01889
198.443,25.88138,-0.02503,0.28639,1.01754
201.543,26.1768,-0.02636209,0.2787,1.01619
204.643,26.47284,-0.02791904,0.2814,1.01482
207.743,26.7692,-0.03194,0.28166,1.01343
210.843,27.06461,-0.03582326,0.28292,1.01204
213.943,27.36014,-0.03853027,0.28733,1.01064
217.043,27.65503,-0.0425188,0.28683,1.00922
220.143,27.9498,-0.04775996,0.29088,1.0078
223.243,28.24454,-0.05398256,0.29186,1.00636
226.343,28.53942,-0.06038001,0.29123,1.00491
229.443,28.8341,-0.06839786,0.29281,1.00345
232.543,29.12927,-0.07706563,0.29585,1.00198
235.643,29.42407,-0.08798553,0.30949,1.0005
238.743,29.7195,-0.09904068,0.30859,0.999
241.843,30.0147,-0.11472,0.31255,0.9975
244.943,30.30955,-0.1309,0.32245,0.99598
248.043,30.6048,-0.14992,0.34238,0.99445
251.143,30.8998,-0.17232,0.35147,0.99291
254.243,31.19523,-0.19988,0.36245,0.99136
257.343,31.49065,-0.23239,0.37025,0.98979
260.443,31.78642,-0.26813,0.37158,0.98822
263.543,32.08226,-0.30866,0.38288,0.98663
266.643,32.37831,-0.35815,0.42262,0.98504
269.743,32.67311,-0.41169,0.47074,0.98343
272.843,32.96752,-0.471,0.51397,0.98181
275.943,33.26612,-0.53997,0.56384,0.98017
279.043,33.56255,-0.61788,0.62064,0.97853
282.143,33.85872,-0.71314,0.68782,0.97687
285.243,34.15538,-0.82507,0.77837,0.9752
288.343,34.45322,-0.95481,0.80637,0.97353
291.443,34.75016,-1.08768,0.7974,0.97183
294.543,35.0458,-1.22597,0.79009,0.97013
297.643,35.34499,-1.36525,0.85321,0.96842
300.743,35.6422,-1.48234,0.84012,0.96669
303.843,35.93965,-1.57961,0.75294,0.96495
306.943,36.23529,-1.64816,0.63527,0.9632
310.043,36.531,-1.7013,0.50865,0.96144
313.143,36.82689,-1.73684,0.40126,0.95967
316.243,37.12345,-1.76547,0.31634,0.95789
319.343,37.4191,-1.78573,0.25667,0.95609
322.443,37.7164,-1.80129,0.21341,0.95428
325.543,38.01345,-1.8132,0.18024,0.95246
328.643,38.31153,-1.82546,0.15368,0.95063
331.743,38.60933,-1.83371,0.13061,0.94879
334.843,38.9072,-1.84162,0.11433,0.94693
337.943,39.20321,-1.84765,0.10461,0.94506
341.043,39.50221,-1.85191,0.09120221,0.94319
344.143,39.80037,-1.85688,0.08604166,0.9413
347.243,40.09955,-1.86017,0.076547,0.93939
350.343,40.39844,-1.86413,0.06741493,0.93748
353.443,40.7001,-1.86774,0.0613883,0.93555
356.543,40.99885,-1.87038,0.06099004,0.93362
359.643,41.30022,-1.873,0.05879932,0.93167
362.743,41.60025,-1.87532,0.05689344,0.92971
365.843,41.89829,-1.87697,0.05403622,0.92774
368.943,42.20084,-1.87825,0.0536503,0.92575
372.043,42.503,-1.88092,0.05098365,0.92376
375.143,42.8024,-1.8829,0.05149626,0.92175
378.243,43.10366,-1.88461,0.05125162,0.91973
381.343,43.40578,-1.88784,0.05368256,0.9177
384.443,43.70807,-1.88874,0.04643958,0.91566
387.543,44.00887,-1.89113,0.05070788,0.9136
390.643,44.31055,-1.89376,0.04736697,0.91154
393.743,44.6111,-1.89691,0.05003094,0.90946
396.843,44.91381,-1.89917,0.04496357,0.90737
399.943,45.2155,-1.90298,0.04013256,0.90527
403.043,45.5175,-1.90694,0.03745254,0.90316
406.143,45.81969,-1.91092,0.0362106,0.90104
409.243,46.12206,-1.91546,0.03238612,0.8989
412.343,46.42402,-1.92082,0.02866668,0.89676
415.443,46.7269,-1.92537,0.02396453,0.8946
418.543,47.03,-1.9317,0.01903989,0.89243
421.643,47.3307,-1.93625,0.01394602,0.89025
424.743,47.6356,-1.94396,0.006524209,0.88806
427.843,47.9382,-1.95226,0.004334235,0.88586
430.943,48.24058,-1.96312,0.004765437,0.88364
434.043,48.54558,-1.97316,0.00511745,0.88142
437.143,48.84598,-1.98391,0.00893656,0.87918
440.243,49.1504,-1.99901,0.01380646,0.87694
443.343,49.45448,-2.01392,0.017863,0.87468
446.443,49.75786,-2.03048,0.0290352,0.87241
449.543,50.06276,-2.05066,0.039321,0.87013
452.643,50.36808,-2.07081,0.05252515,0.86784
455.743,50.6709,-2.09137,0.06447925,0.86553
458.843,50.9741,-2.11216,0.07354296,0.86322
461.943,51.27792,-2.13329,0.08096537,0.8609
465.043,51.58565,-2.15395,0.0920754,0.85856
468.143,51.89069,-2.17394,0.09569918,0.85622
471.243,52.1952,-2.19129,0.09380458,0.85386
474.343,52.49904,-2.20817,0.09561408,0.85149
477.443,52.80774,-2.22413,0.09093498,0.84912
480.543,53.11325,-2.23776,0.08994898,0.84673
483.643,53.4177,-2.25076,0.08736008,0.84433
486.743,53.7219,-2.26274,0.0897406,0.84192
489.843,54.0292,-2.27274,0.08499367,0.8395
492.943,54.331,-2.28064,0.08307793,0.83707
496.043,54.6424,-2.28866,0.07635209,0.83463
499.143,54.9476,-2.29651,0.07323803,0.83218
502.243,55.25343,-2.29992,0.07455187,0.82972
505.343,55.5591,-2.30578,0.06928912,0.82725
508.443,55.86339,-2.30841,0.07350595,0.82477
511.543,56.17085,-2.31243,0.07174337,0.82228
514.643,56.47744,-2.315,0.06924837,0.81978
517.743,56.7853,-2.31623,0.06963315,0.81727
520.843,57.0919,-2.31886,0.06931432,0.81475
523.943,57.39959,-2.32224,0.08322601,0.81222
527.043,57.70731,-2.32389,0.09570368,0.80968
530.143,58.0143,-2.32516,0.09980911,0.80713
533.243,58.32269,-2.32784,0.09805046,0.80457
536.343,58.6312,-2.3285,0.09566771,0.802
539.443,58.939,-2.32983,0.09068482,0.79943
542.543,59.24631,-2.33118,0.08546212,0.79684
545.643,59.55568,-2.33048,0.0802077,0.79424
548.743,59.86419,-2.33186,0.07153641,0.79164
551.843,60.17292,-2.33509,0.06193023,0.78903
554.943,60.4813,-2.33509,0.05477434,0.7864
558.043,60.78999,-2.33509,0.04661503,0.78377
561.143,61.0988,-2.33641,0.04015751,0.78113
564.243,61.4075,-2.33641,0.03033744,0.77848
567.343,61.7164,-2.33671,0.02178786,0.77582
570.443,62.02616,-2.33739,0.01654579,0.77316
573.543,62.3362,-2.33838,0.005625321,0.77048
576.643,62.64594,-2.33839,-0.001548463,0.7678
579.743,62.9555,-2.33772,-0.008151949,0.76511
582.843,63.2659,-2.33905,-0.01436,0.76241
585.943,63.5756,-2.34036,-0.02319934,0.7597
589.043,63.88579,-2.34003,-0.02801207,0.75698
592.143,64.1952,-2.34135,-0.02933475,0.75426
595.243,64.5048,-2.34265,-0.03323338,0.75153
598.343,64.81395,-2.34269,-0.03734778,0.74879
601.443,65.12415,-2.34234,-0.03841709,0.74604
604.543,65.43465,-2.34232,-0.04020143,0.74329
607.643,65.74445,-2.34473,-0.03761491,0.74052
610.743,66.05465,-2.34331,-0.04011197,0.73776
613.843,66.3654,-2.34464,-0.04204767,0.73498
616.943,66.67563,-2.3454,-0.03978422,0.73219
620.043,66.98688,-2.34497,-0.0414602,0.7294
623.143,67.29834,-2.34431,-0.04347757,0.72661
626.243,67.61013,-2.34392,-0.0451744,0.7238
629.343,67.922,-2.34332,-0.04801315,0.72099
632.443,68.23302,-2.34337,-0.04652311,0.71817
635.543,68.5434,-2.34498,-0.04793462,0.71535
638.643,68.85385,-2.34497,-0.04963349,0.71252
641.743,69.1643,-2.34499,-0.05007485,0.70968
644.843,69.4746,-2.34695,-0.05319379,0.70683
647.943,69.78537,-2.34659,-0.0632568,0.70398
651.043,70.0959,-2.34694,-0.06249486,0.70113
654.143,70.40666,-2.34826,0.03872506,0.69827
657.243,70.71861,-2.34826,0.04009664,0.6954
660.343,71.0304,-2.34925,0.03851944,0.69253
663.443,71.34258,-2.34793,0.03808867,0.68965
666.543,71.6547,-2.34882,0.03595905,0.68676
669.643,71.96685,-2.34893,0.03458153,0.68387
672.743,72.27794,-2.35025,0.03539798,0.68098
675.843,72.59003,-2.35059,0.03580897,0.67808
678.943,72.90186,-2.35084,0.03666818,0.67517
682.043,73.21385,-2.35157,0.03400551,0.67226
685.143,73.5266,-2.35095,0.02980157,0.66935
688.243,73.83938,-2.34959,0.02764744,0.66643
691.343,74.15176,-2.34819,0.0260959,0.66351
694.443,74.46377,-2.3509,0.02807611,0.66058
697.543,74.7753,-2.34959,0.02650854,0.65765
700.643,75.08747,-2.35036,0.02443905,0.65471
703.743,75.3994,-2.35035,0.02476543,0.65177
706.843,75.7119,-2.35199,0.02439922,0.64882
709.943,76.0243,-2.35167,0.02630065,0.64588
713.043,76.3361,-2.35167,0.02404142,0.64292
716.143,76.64823,-2.352,0.02592791,0.63997
719.243,76.96042,-2.352,0.02348607,0.63701
722.343,77.27335,-2.35237,0.02158884,0.63405
725.443,77.58635,-2.35237,0.0175133,0.63108
728.543,77.89936,-2.35232,0.0136214,0.62811
731.643,78.2136,-2.35331,0.0135947,0.62514
734.743,78.52712,-2.35331,0.01215485,0.62217
737.843,78.8412,-2.352,0.0032557,0.61919
740.943,79.15472,-2.35332,-0.00151616,0.61621
744.043,79.46823,-2.35332,-0.005332007,0.61323
747.143,79.78156,-2.35463,-0.007841893,0.61024
749.243,79.9934,-2.35463,-0.01897521,0.60822