Folder: fsri_materials_database/01_Data/Oak_HWF/Cone

Note: 01_Data/README.md
# Materials and Products Database
## 01_Data

Raw data generated from each apparatus are included here in plain-text format. The data is organized first by material, next by the short name of test apparatus used, and where applicable additional filtering by test settings.

### material.json

Each material directory contains a json file of the same name as the material. This file links the data stored in the repository as well as data and graphs produced by the accompanying scripts (__02_Scripts__) to the respective landing page for the material on the front-end website.

File: Oak_Flooring_Cone_HF25Scalar_220526_R2.csv
LABORATORY,FSRI
TEST IDENT,Oak_Flooring_25_2
OPERATOR,Dow
MATERIAL,Oak Flooring
ORIENTATION,Horizontal
HEAT FLUX,25
SURF AREA,0.01
C FACTOR,0.0411596
SPEC HOLDER DIFF,-566
SPECIMEN MASS,159.15
SCAN TIME,0.25
O2 DELAY TIME,11
CO DELAY TIME,11
CO2 DELAY TIME,8
FLOW FACTOR,1
SCAN COUNT,7754
TIME TO IGN,164.25
END OF TEST SCAN,7274
END OF TEST TIME,1818.5
TEST STATUS,1
PRE TEST CMT,Dimensions: 100.24 x 100.30 x 14.15 mm; with tie wires

File: Oak_Flooring_Cone_HF25Scalar_220913_R1.csv
LABORATORY,FSRI
TEST IDENT,Oak_Floor_HF25_1
OPERATOR,Dow
MATERIAL,Oak Flooring
ORIENTATION,Horizontal
HEAT FLUX,25
SURF AREA,0.01
C FACTOR,0.0415136
SPEC HOLDER DIFF,-566
SPECIMEN MASS,123.07
SCAN TIME,0.25
O2 DELAY TIME,11
CO DELAY TIME,11
CO2 DELAY TIME,8
FLOW FACTOR,1
SCAN COUNT,6168
TIME TO IGN,143
END OF TEST SCAN,5688
END OF TEST TIME,1422
TEST STATUS,1
PRE TEST CMT,Dimensions: 101.36 x 100.96 x 18.87 mm; joint between boards on centerline of sample
POST TEST CMT,Swelling and warping near end of test. Sample formed an arch and separated at joint between boards. See post test pictures.

File: Oak_Flooring_Cone_HF25Scan_220913_R3.csv
Names,Time,Stack TC,Smoke TC,Exh Press,Smoke Comp,Smoke Meas,CO Meter,CO2 Meter,O2 Meter,Sample Mass,Ext Coeff,Start Test,Flame Verif
Chan Gain,,500,500,1,1,1,1,1,1,1,1,1.0,1.0
Offset,,0,0,0.139139,0,0,0,0,0,0,0,0.0,0.0
Gain,,1,1,25.011,13.0826,14.7555,1,1,1,1.00088,1.03743,1.0,1.0
Units,sec,C,C,Pa,%,%,%,%,%,g,/m,,
Baseline,,38.6677,39.4173,151.651,100.371,104.419,0.000466507,0.0497186,20.988,-447.414,-0.359737,,
56,13.75,37.5776,38.3678,151.092,99.3925,103.815,0.000193518,0.0500086,20.9965,202.618,-0.396205,0.0,0.0
112,27.75,37.6989,38.682,150.417,99.7072,103.744,0.000178617,0.0495625,20.9965,202.558,-0.361167,0.0,0.0
168,41.75,37.9383,38.3729,149.928,99.8078,104.81,0.000269753,0.0501715,20.9967,202.458,-0.445048,0.0,0.0
224,55.75,37.8195,38.8769,151.179,99.8792,104.124,0.000418432,0.0499413,20.9946,202.288,-0.378752,0.0,0.0
280,69.75,37.8688,38.721,150.586,99.8293,103.743,0.000100703,0.0497443,20.996,202.098,-0.349984,0.0,0.0
336,83.75,37.9882,38.5382,152.622,99.7694,103.708,0.000108156,0.0498878,20.9983,201.868,-0.352363,0.0,0.0
392,97.75,37.6338,38.3251,149.477,99.7782,103.909,0.000326989,0.0501608,20.9966,201.688,-0.369128,0.0,0.0
448,111.75,38.1324,39.1577,151.778,99.7227,103.527,0.000448776,0.0508634,20.9958,201.477,-0.340726,0.0,0.0
504,125.75,38.2697,39.1156,151.559,99.5067,102.958,0.000832752,0.0519021,20.9948,201.197,-0.310248,0.0,0.0
560,139.75,38.2382,39.1844,147.436,99.1762,102.453,0.00129917,0.0530343,20.9967,200.827,-0.295844,0.0,0.0
616,153.75,38.4888,38.7789,150.473,99.1554,101.623,0.00151,0.0538144,20.9974,200.376,-0.223693,0.0,0.0
672,167.75,38.2248,39.1421,149.481,99.3414,101.533,0.00222194,0.0547822,20.9952,200.076,-0.198565,0.0,0.0
728,181.75,40.4953,40.2375,137.179,99.5666,100.337,0.00281709,0.130249,20.7744,199.275,-0.0701693,0.0,1.0
784,195.75,53.4311,49.1114,135.18,99.7115,100.231,0.00436066,0.422723,20.4568,196.923,-0.0473302,0.0,0.0
840,209.75,61.0016,58.0202,130.327,99.7315,101.273,0.00449954,0.473841,20.4876,194.671,-0.139545,0.0,0.0
896,223.75,63.8346,62.3446,138.294,99.4752,103.226,0.00335353,0.448024,20.5588,192.5,-0.336824,0.0,0.0
952,237.75,64.3441,64.9919,142.364,98.9322,102.881,0.00288853,0.401826,20.6213,190.658,-0.356174,0.0,0.0
1008,251.75,64.0336,65.6299,134.777,98.5222,102.629,0.00218819,0.367638,20.6579,188.966,-0.371676,0.0,0.0
1064,265.75,62.8862,65.976,139.035,98.7286,103.355,0.00242177,0.343272,20.6855,187.345,-0.416769,0.0,0.0
1120,279.75,62.4531,65.7959,142.885,99.3167,103.616,0.00228128,0.324479,20.7068,185.784,-0.38561,0.0,0.0
1176,293.75,60.9138,65.1923,141.115,99.88,105.106,0.00233578,0.304997,20.7285,184.322,-0.464151,0.0,0.0
1232,307.75,60.0164,64.0451,137.229,100.264,104.388,0.00249845,0.29054,20.7442,182.761,-0.366785,0.0,0.0
1288,321.75,59.5947,63.0886,138.575,100.345,105.172,0.00252224,0.281321,20.7505,181.49,-0.427523,0.0,0.0
1344,335.75,58.6418,62.5975,141.741,100.146,104.752,0.0022826,0.273695,20.7548,180.129,-0.409257,0.0,0.0
1400,349.75,58.7014,61.7479,138.788,99.803,104.699,0.00216196,0.265129,20.7676,178.787,-0.435861,0.0,0.0
1456,363.75,57.678,61.6267,139.434,99.4912,104.217,0.00246495,0.255131,20.7803,177.546,-0.422322,0.0,0.0
1512,377.75,56.9775,60.5732,138.53,99.9311,104.599,0.00278841,0.244599,20.7911,176.185,-0.41549,0.0,0.0
1568,391.75,56.4963,60.0471,138.021,99.807,104.29,0.0023852,0.239504,20.7956,175.124,-0.39981,0.0,0.0
1624,405.75,56.1919,59.2811,143.941,99.2009,103.696,0.00246171,0.232996,20.8014,173.893,-0.403302,0.0,0.0
1680,419.75,55.2279,58.5713,141.773,99.264,103.603,0.00236253,0.22543,20.8097,172.872,-0.389373,0.0,0.0
1736,433.75,54.7852,57.8037,141.202,99.4987,104.473,0.00293908,0.219398,20.8163,171.721,-0.443974,0.0,0.0
1792,447.75,54.1115,56.8015,143.01,99.6688,104.332,0.00280636,0.214363,20.8231,170.5,-0.416107,0.0,0.0
1848,461.75,53.6159,56.3658,144.806,99.698,104.396,0.00286502,0.212073,20.8235,169.449,-0.419023,0.0,0.0
1904,475.75,53.493,56.1416,145.34,99.6541,104.011,0.00282208,0.211617,20.8251,168.418,-0.389408,0.0,0.0
1960,489.75,53.1254,55.8034,146.624,99.496,104.363,0.00302685,0.211133,20.8241,167.347,-0.434655,0.0,0.0
2016,503.75,53.0835,55.2476,144.904,99.3235,104.25,0.002901,0.2123,20.8218,166.246,-0.440582,0.0,0.0
2072,517.75,52.9524,55.1451,146.754,99.2009,102.882,0.00270557,0.209885,20.8245,165.085,-0.331571,0.0,0.0
2128,531.75,52.9077,54.9376,142.353,99.1698,103.278,0.00285863,0.208914,20.8259,164.034,-0.369373,0.0,0.0
2184,545.75,52.8898,54.6536,147.174,99.4464,103.953,0.00275593,0.209025,20.8242,163.044,-0.403303,0.0,0.0
2240,559.75,53.3144,55.1345,144.087,99.6612,104.662,0.00271895,0.208557,20.8246,161.993,-0.445506,0.0,0.0
2296,573.75,52.7654,55.0478,140.227,99.7654,104.359,0.00239907,0.210088,20.8222,160.932,-0.409646,0.0,0.0
2352,587.75,53.2364,54.7531,141.238,99.8385,104.746,0.00311916,0.210662,20.8213,159.871,-0.436652,0.0,0.0
2408,601.75,53.1886,55.0177,142.377,99.9595,104.416,0.00269084,0.210866,20.822,158.79,-0.39691,0.0,0.0
2464,615.75,53.7125,55.0149,144.66,99.9503,104.515,0.00267233,0.212802,20.8195,157.829,-0.406415,0.0,0.0
2520,629.75,53.5529,55.2873,140.961,99.591,103.94,0.00211734,0.213169,20.8187,156.788,-0.388983,0.0,0.0
2576,643.75,52.9654,54.8424,141.831,99.8034,104.775,0.00227389,0.216095,20.8133,155.767,-0.442359,0.0,0.0
2632,657.75,53.8249,55.5974,146.396,100.195,104.746,0.00221416,0.218184,20.8134,154.706,-0.404215,0.0,0.0
2688,671.75,54.0416,55.8004,146.114,100.371,105.628,0.00222364,0.219958,20.8123,153.595,-0.464593,0.0,0.0
2744,685.75,54.3029,55.9151,138.262,100.143,105.092,0.00237088,0.222862,20.807,152.654,-0.439,0.0,0.0
2800,699.75,54.5262,56.0947,141.361,99.478,103.621,0.00237456,0.225636,20.804,151.594,-0.371357,0.0,0.0
2856,713.75,54.8306,56.4347,137.071,98.7721,103.851,0.00199715,0.229823,20.798,150.553,-0.456347,0.0,0.0
2912,727.75,55.1769,56.4984,138.764,98.5705,103.815,0.00187111,0.23546,20.7943,149.482,-0.471706,0.0,0.0
2968,741.75,55.9723,57.3569,144.73,99.0181,103.857,0.0020162,0.240858,20.7879,148.311,-0.434229,0.0,0.0
3024,755.75,56.33,57.899,142.032,99.5966,104.665,0.00203295,0.24826,20.7794,147.24,-0.451727,0.0,0.0
3080,769.75,56.3812,58.2199,139.717,99.7842,105.333,0.00217719,0.257975,20.7684,146.089,-0.492436,0.0,0.0
3136,783.75,57.6434,59.0529,136.956,99.4704,104.493,0.00217599,0.268312,20.7551,144.878,-0.448254,0.0,0.0
3192,797.75,58.2245,59.639,141.325,99.1231,104.162,0.00205233,0.281265,20.7403,143.576,-0.451257,0.0,0.0
3248,811.75,59.3096,61.047,139.958,99.8617,104.375,0.00197919,0.29955,20.7182,142.165,-0.402248,0.0,0.0
3304,825.75,60.8801,62.097,135.37,99.8134,104.327,0.00189863,0.32083,20.6913,140.704,-0.402449,0.0,0.0
3360,839.75,62.3812,64.0905,137.018,99.6381,103.449,0.00233971,0.345632,20.6615,139.113,-0.341563,0.0,0.0
3416,853.75,64.6871,66.0175,132.453,99.9567,104.492,0.00243365,0.376235,20.6229,137.421,-0.403795,0.0,0.0
3472,867.75,67.0124,68.2904,137.603,100.233,102.961,0.00280114,0.406612,20.5879,135.599,-0.244391,0.0,0.0
3528,881.75,69.1636,70.6952,133.731,100.327,103.079,0.0031743,0.439616,20.5501,133.568,-0.246262,0.0,0.0
3584,895.75,71.8615,73.2388,131.914,100.271,101.958,0.00334577,0.481014,20.4963,131.316,-0.151837,0.0,0.0
3640,909.75,74.4873,75.9187,130.622,100.15,101.636,0.00347085,0.523234,20.4451,128.974,-0.134041,0.0,0.0
3696,923.75,77.9045,79.5175,126.652,99.9739,101.468,0.00423198,0.55194,20.4188,126.541,-0.135042,0.0,0.0
3752,937.75,78.6848,81.4082,130.49,99.8401,99.9676,0.00406547,0.532643,20.4597,124.209,-0.0116141,0.0,0.0
3808,951.75,78.8751,82.4632,131.083,99.773,101.763,0.00355781,0.516199,20.4713,121.917,-0.179716,0.0,0.0
3864,965.75,78.6024,83.081,135.27,99.777,101.904,0.00343216,0.504211,20.481,119.715,-0.191987,0.0,0.0
3920,979.75,78.9768,83.1801,130.487,99.7591,101.758,0.00321193,0.500136,20.4875,117.584,-0.180587,0.0,0.0
3976,993.75,79.143,83.6017,131.143,99.7479,101.984,0.00358033,0.496623,20.4894,115.552,-0.20176,0.0,0.0
4032,1007.75,78.7683,83.2362,129.396,99.69,101.503,0.00418093,0.489557,20.4934,113.49,-0.163988,0.0,0.0
4088,1021.75,78.4305,83.0076,132.788,99.7479,101.965,0.00360129,0.472391,20.5206,111.498,-0.200032,0.0,0.0
4144,1035.75,76.7016,81.838,134.78,99.8221,102.524,0.00368314,0.434351,20.5702,109.737,-0.242999,0.0,0.0
4200,1049.75,74.5881,79.7394,136.017,99.9359,103.414,0.00381942,0.40474,20.596,108.175,-0.311312,0.0,0.0
4256,1063.75,72.6086,77.9267,135.235,100.116,103.408,0.00406114,0.378034,20.6279,106.744,-0.294417,0.0,0.0
4312,1077.75,70.3616,75.6121,136.498,100.257,103.462,0.00380273,0.347848,20.663,105.423,-0.286291,0.0,0.0
4368,1091.75,68.1418,72.8874,144.105,100.295,104.508,0.00321149,0.316443,20.7011,104.242,-0.374435,0.0,0.0
4424,1105.75,65.8727,71.0698,139.975,100.166,104.968,0.00363568,0.283755,20.7403,103.201,-0.426091,0.0,0.0
4480,1119.75,62.883,67.9174,142.593,99.9599,104.105,0.00382926,0.24551,20.7829,102.35,-0.369754,0.0,0.0
4536,1133.75,60.5398,65.0026,139.846,99.7267,104.816,0.0042441,0.209773,20.8234,101.85,-0.452988,0.0,0.0
4592,1147.75,57.4285,61.9916,141.131,99.5187,104.451,0.00399444,0.176068,20.8615,101.329,-0.440226,0.0,0.0
4648,1161.75,54.9679,58.7991,143.947,99.5271,105.081,0.00445209,0.149643,20.8899,100.989,-0.494142,0.0,0.0
4704,1175.75,52.1845,55.9763,150.199,99.8357,104.915,0.00566442,0.131918,20.9071,100.669,-0.451605,0.0,0.0
4760,1189.75,50.4342,53.7564,147.342,99.8677,104.916,0.00706552,0.11863,20.9219,100.348,-0.448772,0.0,0.0
4816,1203.75,48.9914,51.3139,147.158,99.4413,103.819,0.00785907,0.110396,20.9258,100.248,-0.392062,0.0,0.0
4872,1217.75,47.2973,49.7075,151.726,99.1386,103.496,0.00754624,0.106168,20.9308,100.068,-0.391415,0.0,0.0
4928,1231.75,44.8345,46.468,147.871,99.5063,104.001,0.00755003,0.103819,20.9314,99.8479,-0.402002,0.0,0.0
4984,1245.75,43.6023,45.7362,149.57,99.71,104.367,0.00706921,0.103259,20.9299,99.6778,-0.415377,0.0,0.0
5040,1259.75,43.4557,44.2383,148.696,99.6002,104.043,0.0065126,0.102907,20.9328,99.4676,-0.397168,0.0,0.0
5096,1273.75,42.2178,43.9653,149.884,99.373,104.461,0.00638081,0.101793,20.933,99.2574,-0.454426,0.0,0.0
5152,1287.75,42.3906,43.2087,146.875,99.2049,103.94,0.00658751,0.101873,20.9319,99.1573,-0.42429,0.0,0.0
5208,1301.75,41.8982,42.6788,149.432,99.2073,103.844,0.00615207,0.101324,20.9357,99.0072,-0.415709,0.0,0.0
5264,1315.75,41.6235,42.1568,150.569,99.3235,103.555,0.00630335,0.101441,20.9344,98.8571,-0.379648,0.0,0.0
5320,1329.75,41.3483,41.7925,150.533,99.4429,103.879,,0.101632,,98.6969,-0.397164,0.0,0.0
5354,1338.25,41.1793,42.1342,149.59,99.4808,104.059,,,,98.6269,-0.40942,0.0,0.0

File: Oak_Flooring_Cone_HF25Scan_220914_R4.csv
Names,Time,Stack TC,Smoke TC,Exh Press,Smoke Comp,Smoke Meas,CO Meter,CO2 Meter,O2 Meter,Sample Mass,Ext Coeff,Start Test,Flame Verif
Chan Gain,,500,500,1,1,1,1,1,1,1,1,1.0,1.0
Offset,,0,0,0.139139,0,0,0,0,0,0,0,0.0,0.0
Gain,,1,1,25.011,13.0826,14.7555,1,1,1,1.00088,1.03743,1.0,1.0
Units,sec,C,C,Pa,%,%,%,%,%,g,/m,,
Baseline,,39.9733,40.5004,151.103,99.3924,103.804,0.000426454,0.0505686,20.9957,-447.348,-0.395154,,
74,18.25,37.0121,37.7282,149.97,99.9583,103.409,0.000412702,0.0508342,20.9971,235.157,-0.308879,0.0,0.0
148,36.75,36.7697,37.945,156.96,100.318,103.802,0.000301074,0.0504278,20.9963,235.057,-0.310715,0.0,0.0
222,55.25,37.2714,37.9388,149.966,100.061,103.724,0.000405129,0.0505219,20.9953,234.967,-0.327201,0.0,0.0
296,73.75,37.5505,37.9457,153.833,99.5139,102.649,0.000194141,0.0504041,20.997,234.717,-0.282246,0.0,0.0
370,92.25,37.3094,38.0041,151.437,99.8988,102.958,3.6664e-05,0.0508079,20.9958,234.547,-0.274503,0.0,0.0
444,110.75,37.7561,38.3138,150.789,99.6537,102.899,0.000245648,0.05104,20.9971,234.346,-0.291645,0.0,0.0
518,129.25,37.2446,38.4285,151.369,99.1119,102.103,0.000556629,0.0519767,20.9969,234.066,-0.270572,0.0,0.0
592,147.75,37.6619,38.5082,150.714,99.4193,102,0.000801127,0.0533446,20.9975,233.726,-0.233194,0.0,0.0
666,166.25,37.8278,38.7348,152.789,99.6908,101.645,0.00112091,0.0541882,20.9963,233.396,-0.176664,0.0,0.0
740,184.75,38.1401,38.6779,154.361,99.2863,101.514,0.00162532,0.0555539,20.9975,232.975,-0.201919,0.0,0.0
814,203.25,38.5891,38.7729,149.657,98.6931,100.026,0.00239818,0.0569886,20.9958,232.425,-0.122058,0.0,0.0
888,221.75,38.2628,39.0434,148.527,98.5078,100.082,0.00257857,0.0594592,20.9914,231.794,-0.144275,0.0,0.0
962,240.25,39.7673,39.4217,136.486,98.9206,98.3141,0.00350331,0.194541,20.7115,230.773,0.0559702,0.0,1.0
1036,258.75,56.7479,52.47,128.599,99.1398,99.887,0.00414599,0.470333,20.4894,227.741,-0.0683291,0.0,0.0
1110,277.25,61.2338,59.6263,138.475,99.1318,100.85,0.00376045,0.408557,20.5989,225.238,-0.156353,0.0,0.0
1184,295.75,61.4261,62.3322,135.832,99.0344,102.097,0.00299366,0.356935,20.664,222.916,-0.277165,0.0,0.0
1258,314.25,60.5772,63.0729,140.774,98.9502,102.524,0.00288125,0.315449,20.7154,220.925,-0.322841,0.0,0.0
1332,332.75,58.7344,62.4072,140.268,98.7282,102.339,0.00286673,0.284063,20.7483,219.023,-0.326877,0.0,0.0
1406,351.25,57.6921,61.2759,135.542,98.513,102.229,0.00277239,0.265678,20.7648,217.271,-0.336998,0.0,0.0
1480,369.75,56.7671,60.7075,139.615,98.6943,102.639,0.00266615,0.249844,20.7831,215.57,-0.356634,0.0,0.0
1554,388.25,55.6107,58.6809,147.61,99.3287,103.138,0.00292711,0.235759,20.8008,213.958,-0.342494,0.0,0.0
1628,406.75,54.8888,58.1502,144.712,99.7419,104.506,0.00267084,0.22785,20.8052,212.477,-0.424626,0.0,0.0
1702,425.25,55.1621,58.034,138.524,99.3203,104.201,0.00236961,0.23331,20.8006,210.876,-0.436589,0.0,0.0
1776,443.75,54.0687,57.6129,142.404,99.8177,104.164,0.00233817,0.228486,20.8059,209.274,-0.387897,0.0,0.0
1850,462.25,54.3418,56.8398,141.329,99.5351,103.728,0.0031097,0.219756,20.8159,207.793,-0.375504,0.0,0.0
1924,480.75,53.304,55.9268,144.503,100.32,104.867,0.00281923,0.21351,20.8216,206.352,-0.403352,0.0,0.0
1998,499.25,53.2934,55.776,142.161,99.7064,103.857,0.00303744,0.208647,20.8269,204.92,-0.371149,0.0,0.0
2072,517.75,52.9139,55.4779,145.241,98.5409,102.413,0.00300451,0.203755,20.8316,203.479,-0.350717,0.0,0.0
2146,536.25,52.1739,54.4154,140.438,98.9518,103.36,0.00321139,0.198931,20.8379,202.118,-0.396618,0.0,0.0
2220,554.75,51.7973,54.385,143.789,99.6393,103.406,0.00342223,0.197017,20.8388,200.727,-0.33765,0.0,0.0
2294,573.25,51.9123,54.1395,148.586,99.6473,104.24,0.0032976,0.19526,20.8395,199.386,-0.410021,0.0,0.0
2368,591.75,51.4101,53.1788,143.875,99.3426,104.055,0.00317916,0.19421,20.8411,197.994,-0.421751,0.0,0.0
2442,610.25,52.0231,53.4574,143.763,99.1526,104.221,0.00345747,0.194398,20.8419,196.693,-0.453658,0.0,0.0
2516,628.75,51.7235,53.1372,143.408,99.0847,103.805,0.00336518,0.196054,20.8377,195.352,-0.423485,0.0,0.0
2590,647.25,51.5448,53.2612,147.141,99.0528,103.366,0.00311283,0.196508,20.8397,194.001,-0.387887,0.0,0.0
2664,665.75,51.5277,53.3323,146.307,99.0704,102.868,0.00294109,0.197115,20.838,192.57,-0.34236,0.0,0.0
2738,684.25,51.5288,53.2153,145.897,99.2576,103.769,0.00298984,0.19713,20.8411,191.258,-0.404503,0.0,0.0
2812,702.75,51.3908,53.3333,142.569,99.6289,103.742,0.00302887,0.1988,20.8374,189.957,-0.368154,0.0,0.0
2886,721.25,51.4294,53.2567,144.39,99.6708,103.768,0.00333456,0.199339,20.8338,188.616,-0.366616,0.0,0.0
2960,739.75,51.1374,53.1253,145.649,99.45,103.908,0.00292294,0.199537,20.836,187.235,-0.399031,0.0,0.0
3034,758.25,51.3161,53.5581,145.33,99.1913,103.167,0.00301572,0.200663,20.8354,185.984,-0.357588,0.0,0.0
3108,776.75,51.3163,53.2889,144.948,98.8528,102.977,0.00282872,0.201339,20.8344,184.613,-0.371965,0.0,0.0
3182,795.25,51.7909,53.028,145.35,98.598,102.712,0.00304501,0.201473,20.8326,183.301,-0.371976,0.0,0.0
3256,813.75,51.4192,53.7164,146.419,98.4695,102.45,0.0032734,0.20358,20.8327,181.91,-0.36064,0.0,0.0
3330,832.25,51.7005,53.7922,144.266,98.5809,103.076,0.00303447,0.205907,20.83,180.609,-0.405781,0.0,0.0
3404,850.75,52.2439,53.4612,143.28,98.9594,102.988,0.00282733,0.209725,20.8275,179.298,-0.363113,0.0,0.0
3478,869.25,51.8988,53.444,143.139,99.5838,104.485,0.00281337,0.214012,20.8207,177.947,-0.43722,0.0,0.0
3552,887.75,52.4343,53.8772,147.936,100.096,104.863,0.00289949,0.220252,20.8134,176.485,-0.423379,0.0,0.0
3626,906.25,53.4556,54.6027,140.628,100.28,104.901,0.00302309,0.226697,20.8054,175.054,-0.409943,0.0,0.0
3700,924.75,53.6068,55.3498,145.637,100.072,104.822,0.00260249,0.234971,20.7947,173.583,-0.422036,0.0,0.0
3774,943.25,53.9291,55.9702,140.725,99.5854,104.169,0.00268211,0.244564,20.7869,172.092,-0.40954,0.0,0.0
3848,961.75,55.3209,56.9524,142.335,99.7583,104.804,0.00281336,0.256997,20.7718,170.41,-0.449015,0.0,0.0
3922,980.25,55.993,57.713,137.45,99.8752,104.586,0.00263998,0.269274,20.7569,168.789,-0.419406,0.0,0.0
3996,998.75,57.173,58.8466,142.278,99.468,103.335,0.00300097,0.284553,20.7414,166.997,-0.347084,0.0,0.0
4070,1017.25,58.427,59.8667,142.179,99.0783,103.221,0.00246767,0.301847,20.7192,165.105,-0.372766,0.0,0.0
4144,1035.75,60.1016,61.7829,136.329,99.24,103.165,0.00278221,0.319853,20.6996,163.014,-0.353002,0.0,0.0
4218,1054.25,61.4772,63.1878,135.573,99.4644,103.287,0.00251807,0.340614,20.6771,160.962,-0.343168,0.0,0.0
4292,1072.75,63.057,65.0707,134.235,99.6744,103.474,0.00269266,0.359777,20.6549,158.67,-0.340464,0.0,0.0
4366,1091.25,64.5905,66.3074,136.731,99.601,103.478,0.00285486,0.381643,20.6264,156.238,-0.34753,0.0,0.0
4440,1109.75,66.3177,68.2853,136.569,99.3594,102.845,0.00325972,0.411264,20.5924,153.665,-0.313736,0.0,0.0
4514,1128.25,68.0116,69.5502,136.876,99.2708,102.245,0.00364096,0.433401,20.5674,151.023,-0.268668,0.0,0.0
4588,1146.75,69.2049,71.5111,131.877,99.3466,101.876,0.00313139,0.456141,20.5381,148.281,-0.228833,0.0,0.0
4662,1165.25,70.5036,73.1751,133.988,99.5518,100.568,0.00393225,0.460941,20.5315,145.478,-0.0924056,0.0,0.0
4736,1183.75,71.3631,74.1865,133.161,99.6828,101.577,0.00379761,0.448865,20.5484,142.776,-0.171303,0.0,0.0
4810,1202.25,70.7881,74.1901,135.367,99.7104,102.152,0.00276278,0.411676,20.5936,140.384,-0.220121,0.0,0.0
4884,1220.75,68.9663,72.991,139.997,99.7028,104.339,0.00265796,0.354132,20.6619,138.432,-0.413638,0.0,0.0
4958,1239.25,66.7984,70.9733,133.753,99.6201,104.052,0.00242996,0.315414,20.7041,136.64,-0.396092,0.0,0.0
5032,1257.75,64.7768,68.2138,142.541,99.3486,104.133,0.00231545,0.285364,20.7368,135.009,-0.428013,0.0,0.0
5106,1276.25,62.6759,66.6197,137.744,99.1071,103.382,0.00212815,0.272438,20.7492,133.598,-0.384328,0.0,0.0
5180,1294.75,61.6027,65.0236,137.931,99.908,105.127,0.002692,0.268169,20.7541,132.206,-0.463359,0.0,0.0
5254,1313.25,60.63,63.6917,138.757,99.6069,104.285,0.00359191,0.267879,20.7537,130.775,-0.417673,0.0,0.0
5328,1331.75,60.5981,63.4225,139.58,99.9898,104.517,0.00364754,0.273407,20.7426,129.284,-0.402935,0.0,0.0
5402,1350.25,60.7959,63.2682,143.184,100.329,105.314,0.00323174,0.279692,20.7344,127.833,-0.441312,0.0,0.0
5476,1368.75,60.807,63.0762,135.979,99.5934,103.988,0.00324,0.281433,20.7338,126.421,-0.392942,0.0,0.0
5550,1387.25,60.493,62.7655,142.984,98.5629,103.28,0.00313818,0.278584,20.7364,125.02,-0.42543,0.0,0.0
5624,1405.75,60.663,62.8746,139.318,98.9673,104.263,0.00309873,0.274603,20.741,123.559,-0.474411,0.0,0.0
5698,1424.25,59.8,62.5667,142.734,99.7115,103.978,0.00324725,0.266225,20.7529,122.378,-0.381322,0.0,0.0
5772,1442.75,59.4209,62.0653,142.915,99.3654,104.436,0.00317471,0.257978,20.76,121.137,-0.452923,0.0,0.0
5846,1461.25,58.8317,60.6155,137.839,99.3303,104.328,0.00304367,0.243578,20.7793,120.016,-0.446719,0.0,0.0
5920,1479.75,57.2322,59.6031,141.656,99.8701,104.625,0.00343473,0.227159,20.7948,118.915,-0.423286,0.0,0.0
5994,1498.25,56.3208,58.4645,144.966,99.45,104.422,0.00348184,0.207366,20.8194,118.044,-0.443919,0.0,0.0
6068,1516.75,54.6146,57.3222,146.412,99.8329,105.151,0.00345439,0.184278,20.8464,117.313,-0.472343,0.0,0.0
6142,1535.25,52.5853,54.7241,147.314,100.103,104.989,0.00431038,0.16189,20.8733,116.673,-0.433658,0.0,0.0
6216,1553.75,50.7456,53.4028,144.806,100.243,105.083,0.0054836,0.146073,20.8898,116.062,-0.429115,0.0,0.0
6290,1572.25,48.7095,51.0361,149.19,100.267,104.824,0.0068081,0.132047,20.9033,115.722,-0.404453,0.0,0.0
6364,1590.75,47.315,49.8641,146.4,100.258,104.991,0.0072079,0.120617,20.9157,115.342,-0.419817,0.0,0.0
6438,1609.25,45.8443,48.1893,142.676,100.223,104.703,0.00775996,0.112742,20.9224,115.021,-0.397921,0.0,0.0
6512,1627.75,45.01,46.2956,150.414,100.121,104.272,0.00774244,0.106594,20.9308,114.631,-0.369671,0.0,0.0
6586,1646.25,43.5028,45.5425,150.138,99.9747,104.773,0.00788628,0.104268,20.9325,114.461,-0.426637,0.0,0.0
6660,1664.75,41.5959,42.422,149.599,99.6537,104.002,0.00758188,0.100534,20.9345,114.271,-0.388696,0.0,0.0
6734,1683.25,41.2808,41.6903,148.14,99.4652,103.91,0.00748637,0.10098,20.9326,114,-0.397879,0.0,0.0
6808,1701.75,40.6403,41.4868,150.503,99.8014,103.679,0.00702384,0.0999788,20.9367,113.73,-0.346881,0.0,0.0
6882,1720.25,40.2735,41.1717,148.142,99.8237,104.277,0.00690355,0.100213,20.9362,113.54,-0.397181,0.0,0.0
6956,1738.75,40.0779,41.0337,149.744,99.1522,103.323,0.00669565,0.0997275,20.9357,113.39,-0.374992,0.0,0.0
7030,1757.25,40.0648,40.3477,151.959,99.1973,103.753,0.00640469,0.0992124,20.9366,113.18,-0.40861,0.0,0.0
7086,1771.25,39.7166,40.5336,146.441,99.4468,103.891,,,,113.02,-0.397825,0.0,0.0

File: Oak_Flooring_Cone_HF50Scalar_220526_R2.csv
LABORATORY,FSRI
TEST IDENT,Oak_Flooring_50_2
OPERATOR,Dow
MATERIAL,Oak Flooring
ORIENTATION,Horizontal
HEAT FLUX,50
SURF AREA,0.01
C FACTOR,0.0411596
SPEC HOLDER DIFF,-566
SPECIMEN MASS,138.21
SCAN TIME,0.25
O2 DELAY TIME,11
CO DELAY TIME,11
CO2 DELAY TIME,8
FLOW FACTOR,1
SCAN COUNT,6486
TIME TO IGN,25
END OF TEST SCAN,6006
END OF TEST TIME,1501.5
TEST STATUS,1
PRE TEST CMT,Dimensions: 99.90 x 99.96 x 14.19 mm; with tie wires
POST TEST CMT,Test ended according to average mass loss rate less than 150 g/m^2 over one minute. Very small flames remained at end of test.

File: Oak_Flooring_Cone_HF50Scalar_220526_R3.csv
LABORATORY,FSRI
TEST IDENT,Oak_Flooring_50_3
OPERATOR,Dow
MATERIAL,Oak Flooring
ORIENTATION,Horizontal
HEAT FLUX,50
SURF AREA,0.01
C FACTOR,0.0411596
SPEC HOLDER DIFF,-566
SPECIMEN MASS,160.57
SCAN TIME,0.25
O2 DELAY TIME,11
CO DELAY TIME,11
CO2 DELAY TIME,8
FLOW FACTOR,1
SCAN COUNT,7467
TIME TO IGN,32
END OF TEST SCAN,6987
END OF TEST TIME,1746.75
TEST STATUS,1
PRE TEST CMT,Dimensions: 100.21 x 100.46 x 14.17 mm; with tie wires
POST TEST CMT,Test ended according to average mass loss rate less than 150 g/m^2 over one minute. Very small flames remained at end of test.

File: Oak_Flooring_Cone_HF50Scalar_220914_R2.csv
LABORATORY,FSRI
TEST IDENT,Oak_Floor_HF50_2
OPERATOR,Dow
MATERIAL,Oak Flooring
ORIENTATION,Horizontal
HEAT FLUX,50
SURF AREA,0.01
C FACTOR,0.0421844
SPEC HOLDER DIFF,-566
SPECIMEN MASS,141.79
SCAN TIME,0.25
O2 DELAY TIME,11
CO DELAY TIME,11
CO2 DELAY TIME,8
FLOW FACTOR,1
SCAN COUNT,4977
TIME TO IGN,33.5
END OF TEST SCAN,4497
END OF TEST TIME,1124.25
TEST STATUS,1
PRE TEST CMT,Dimensions: 101.28 x 101.90 x 18.73 mm; with tie wires; joint between boards centered on sample