Folder: fsri_materials_database/01_Data/Oak_HWF/Cone (part 4)

File: Oak_Flooring_Cone_HF75Scan_220526_R2.csv
Names,Time,Stack TC,Smoke TC,Exh Press,Smoke Comp,Smoke Meas,CO Meter,CO2 Meter,O2 Meter,Sample Mass,Ext Coeff,Start Test,Flame Verif
Chan Gain,,500,500,1,1,1,1,1,1,1,1,1.0,1.0
Offset,,0,0,0.137018,0,0,0,0,0,0,0,0.0,0.0
Gain,,1,1,25.011,13.1636,15.082,1,1,1,1.00086,1.04368,1.0,1.0
Units,sec,C,C,Pa,%,%,%,%,%,g,/m,,
Baseline,,47.6432,49.8646,136.37,99.3352,106.276,0.000679744,0.0434222,21.002,-449.786,-0.618292,,
55,13.5,44.8811,46.7796,127.244,98.6104,97.579,0.00389952,0.0572522,20.923,206.278,0.096258,0.0,1.0
110,27.25,69.0484,66.1222,105.827,98.6723,75.2189,0.0340188,0.578559,19.5925,201.964,2.48472,0.0,0.0
165,41,79.1876,79.5219,122.384,98.6988,98.3389,0.0115597,0.652953,20.2672,198.591,0.0334387,0.0,0.0
220,54.75,80.8764,83.3255,115.531,98.6534,100.568,0.00925483,0.573475,20.4477,196.029,-0.175934,0.0,0.0
275,68.5,80.6315,84.3565,124.808,98.5807,101.023,0.00826297,0.512195,20.5175,193.787,-0.224072,0.0,0.0
330,82.25,79.829,85.4461,120.324,98.4983,101.161,0.00747222,0.472066,20.5555,191.746,-0.244186,0.0,0.0
385,96,78.4759,84.7878,122.623,98.4573,102.456,0.00603138,0.43729,20.591,189.744,-0.364426,0.0,0.0
440,109.75,77.8298,83.9655,124.39,98.4589,101.987,0.00614324,0.410037,20.6176,187.922,-0.322312,0.0,0.0
495,123.5,76.7782,83.4035,124.058,98.481,102.96,0.00583475,0.387412,20.6391,186.131,-0.407228,0.0,0.0
550,137.25,75.6167,82.1012,120.788,98.5216,102.811,0.00541011,0.37054,20.654,184.409,-0.390187,0.0,0.0
605,151,74.3208,81.1077,120.643,98.5734,103.008,0.00461898,0.360532,20.6564,182.708,-0.402858,0.0,0.0
660,164.75,74.4373,80.9075,120.736,98.6574,102.607,0.00411578,0.352337,20.6621,181.086,-0.359404,0.0,0.0
715,178.5,74.6948,80.728,129.821,98.6895,103.482,0.00370359,0.345424,20.6729,179.435,-0.43416,0.0,0.0
770,192.25,73.7852,79.6178,124.836,98.6586,103.222,0.00369747,0.337919,20.6796,177.964,-0.413994,0.0,0.0
825,206,73.6101,79.6803,127.353,98.6421,104.077,0.00386798,0.331769,20.6873,176.322,-0.491018,0.0,0.0
880,219.75,73.2806,78.8685,129.081,98.6907,103.517,0.00369981,0.328772,20.6853,174.781,-0.437142,0.0,0.0
935,233.5,73.179,78.8271,123.947,98.7518,103.853,0.00369341,0.327885,20.6822,173.23,-0.461147,0.0,0.0
990,247.25,73.0814,78.4832,118.86,98.751,103.823,0.00392098,0.326465,20.6875,171.638,-0.458544,0.0,0.0
1045,261,73.4254,78.371,125.777,98.753,104.277,0.00386024,0.327653,20.6835,169.997,-0.498287,0.0,0.0
1100,274.75,73.5105,78.1789,121.753,98.794,103.648,0.00382287,0.330282,20.6821,168.475,-0.439123,0.0,0.0
1155,288.5,73.7255,78.4158,124.33,98.8317,104.202,0.00388031,0.33369,20.6732,166.724,-0.484402,0.0,0.0
1210,302.25,74.0674,78.3924,125.467,98.8972,104.211,0.00366444,0.335665,20.6733,165.283,-0.479188,0.0,0.0
1265,316,74.2956,79.2467,124.125,98.9004,103.532,0.00369012,0.334037,20.6789,163.671,-0.419013,0.0,0.0
1320,329.75,74.272,78.9269,123.294,98.8679,103.932,0.00379321,0.332982,20.6764,162.12,-0.457325,0.0,0.0
1375,343.5,74.0766,78.8064,122.572,98.9414,103.673,0.00410702,0.332055,20.6795,160.529,-0.427706,0.0,0.0
1430,357.25,74.4923,79.2248,119.676,99.0896,104.047,0.00330223,0.329854,20.681,158.987,-0.446904,0.0,0.0
1485,371,74.348,78.9985,119.694,99.2624,104.833,0.00321177,0.325412,20.6913,157.416,-0.49987,0.0,0.0
1540,384.75,74.3135,79.0212,127.072,99.5094,105.044,0.00313158,0.317882,20.7023,155.985,-0.495544,0.0,0.0
1595,398.5,74.0897,78.5717,121.657,99.6834,104.681,0.00355615,0.31418,20.7015,154.473,-0.447849,0.0,0.0
1650,412.25,73.476,78.2251,121.834,99.7645,105.571,0.0029748,0.31418,20.6948,153.032,-0.51792,0.0,0.0
1705,426,73.4578,78.6703,124.88,99.734,105.076,0.00301772,0.315037,20.6974,151.511,-0.477714,0.0,0.0
1760,439.75,73.4024,78.1178,123.929,99.5673,105.374,0.00312814,0.315428,20.6941,150.05,-0.5189,0.0,0.0
1815,453.5,74.4862,78.2524,122.126,99.399,105.043,0.00345318,0.316441,20.6961,148.458,-0.505593,0.0,0.0
1870,467.25,73.9169,78.0191,125.393,99.2371,104.753,0.00397932,0.316214,20.6934,147.007,-0.495249,0.0,0.0
1925,481,74.249,78.8057,121.941,99.9586,105.493,0.00332111,0.316707,20.6943,145.365,-0.493384,0.0,0.0
1980,494.75,74.2499,78.421,124.687,100.118,106.497,0.00315781,0.315766,20.6972,143.834,-0.565492,0.0,0.0
2035,508.5,74.7936,79.0158,125.478,100.011,105.957,0.00277594,0.3196,20.6883,142.353,-0.5287,0.0,0.0
2090,522.25,74.7451,79.111,123.317,99.7641,105.303,0.00259404,0.32741,20.6777,140.882,-0.494698,0.0,0.0
2145,536,75.6873,80.0075,120.68,99.644,104.893,0.00409585,0.335941,20.6662,139.08,-0.469964,0.0,0.0
2200,549.75,76.097,80.8511,122.333,99.7541,105.221,0.00317166,0.34317,20.6591,137.449,-0.488494,0.0,0.0
2255,563.5,76.8856,81.2246,120.829,99.912,105.866,0.00257497,0.350399,20.6518,135.887,-0.52991,0.0,0.0
2310,577.25,77.7839,81.6596,122.994,100.079,105.311,0.00251714,0.358475,20.6372,134.226,-0.466518,0.0,0.0
2365,591,77.9308,82.1026,120.352,100.265,105.745,0.00267042,0.364693,20.637,132.494,-0.487177,0.0,0.0
2420,604.75,79.0586,83.3523,117.492,100.384,105.876,0.00274872,0.372767,20.6242,130.883,-0.487635,0.0,0.0
2475,618.5,78.9566,83.3529,120.401,100.442,105.676,0.00301251,0.378109,20.617,129.182,-0.465035,0.0,0.0
2530,632.25,79.6706,84.2108,116.064,100.343,105.294,0.00249333,0.387702,20.6009,127.36,-0.440851,0.0,0.0
2585,646,80.2171,84.8117,117.884,100.234,104.846,0.00264998,0.395331,20.5949,125.618,-0.411882,0.0,0.0
2640,659.75,80.9935,85.8143,120.525,100.143,104.316,0.00282414,0.401875,20.5923,123.667,-0.373801,0.0,0.0
2695,673.5,81.5149,86.5237,117.032,99.9614,104.757,0.00264115,0.409836,20.5739,121.935,-0.428992,0.0,0.0
2750,687.25,81.5185,86.3748,120.054,99.6348,104.594,0.00281931,0.409756,20.5842,120.194,-0.444744,0.0,0.0
2805,701,81.5315,86.5741,121.804,99.2266,103.897,0.00264517,0.408022,20.5888,118.422,-0.421045,0.0,0.0
2860,714.75,82.0821,86.8375,117.815,98.8337,103.639,0.00265649,0.407523,20.5882,116.521,-0.434626,0.0,0.0
2915,728.5,82.3583,87.105,120.546,98.5859,103.572,0.00245326,0.411554,20.5798,114.839,-0.451717,0.0,0.0
2970,742.25,82.5334,87.041,119.615,98.4863,103.331,0.00273014,0.413019,20.5783,113.068,-0.439671,0.0,0.0
3025,756,82.6074,87.4877,126.06,98.6473,103.782,0.00293909,0.413281,20.58,111.326,-0.464545,0.0,0.0
3080,769.75,82.8364,87.6905,121.821,99.035,103.574,0.00273077,0.416872,20.5704,109.515,-0.410266,0.0,0.0
3135,783.5,83.0324,88.409,116.648,99.2981,103.764,0.0027612,0.419682,20.5658,107.813,-0.402761,0.0,0.0
3190,797.25,83.3806,88.1353,120.863,99.4472,103.688,0.00290991,0.421483,20.5625,106.092,-0.382327,0.0,0.0
3245,811,83.2128,88.7129,122.129,99.6155,104.133,0.00293733,0.419812,20.5685,104.38,-0.406018,0.0,0.0
3300,824.75,83.3378,88.8806,118.173,99.7035,103.884,0.00275211,0.420752,20.5634,102.639,-0.376059,0.0,0.0
3355,838.5,83.7385,88.4376,120.929,99.7698,103.207,0.00299349,0.416062,20.5701,100.997,-0.310071,0.0,0.0
3410,852.25,83.5736,88.6556,119.915,99.7549,102.751,0.00310331,0.413851,20.5698,99.3958,-0.270925,0.0,0.0
3465,866,83.7532,88.2791,120.391,99.685,102.869,0.00316516,0.408321,20.578,97.8244,-0.287835,0.0,0.0
3520,879.75,83.3459,88.2179,120.372,99.5765,102.373,0.00316832,0.402599,20.5824,96.3232,-0.253538,0.0,0.0
3575,893.5,82.5743,87.8626,124.411,99.499,102.115,0.00327436,0.394411,20.5912,94.7618,-0.237589,0.0,0.0
3630,907.25,81.3807,86.8575,124.34,99.4604,101.507,0.00351754,0.380154,20.6085,93.4407,-0.186465,0.0,0.0
3685,921,80.7744,86.0293,124.34,99.4215,102.166,0.00349149,0.356413,20.6445,92.1295,-0.249263,0.0,0.0
3740,934.75,77.957,83.9181,130.568,99.4315,104.316,0.0032224,0.298305,20.7426,91.3088,-0.439035,0.0,0.0
3795,948.5,73.8476,80.1847,127.434,99.4263,105.491,0.00309851,0.238493,20.805,90.8284,-0.542105,0.0,0.0
3850,962.25,71.2166,76.8559,126.157,99.3708,106.05,0.00385907,0.203811,20.8271,90.4081,-0.595577,0.0,0.0
3905,976,68.8901,74.0243,127.887,99.3198,106.531,0.00321946,0.182255,20.8412,90.0277,-0.641706,0.0,0.0
3960,989.75,67.2193,71.8215,130.979,99.2608,106.61,0.00329263,0.169393,20.8509,89.7675,-0.653912,0.0,0.0
4015,1003.5,65.6997,70.3774,130.966,99.2367,106.5,0.00339631,0.160278,20.8565,89.4172,-0.646724,0.0,0.0
4070,1017.25,64.4868,68.2453,127.666,99.2351,106.83,0.00368982,0.153367,20.8619,89.177,-0.675158,0.0,0.0
4125,1031,63.3453,67.3083,127.45,99.2817,106.753,0.00374524,0.148423,20.8653,88.9368,-0.664231,0.0,0.0
4180,1044.75,62.6726,65.7973,130.318,99.2873,106.468,0.00387044,0.145092,20.8683,88.6766,-0.639286,0.0,0.0
4235,1058.5,61.8581,64.4956,131.848,99.2254,106.984,0.00382814,0.141465,20.873,88.4864,-0.689212,0.0,0.0
4290,1072.25,61.4292,63.992,130.199,99.3118,106.754,0.0041513,0.139132,20.8729,88.1961,-0.661611,0.0,0.0
4345,1086,60.6632,63.3169,131.934,99.7408,107.293,0.00419323,0.13721,20.8758,87.996,-0.66825,0.0,0.0
4400,1099.75,60.1302,62.1456,130.498,100.059,108.098,0.00428331,0.135224,20.878,87.7458,-0.707523,0.0,0.0
4455,1113.5,59.9899,62.1542,127.241,100.048,107.741,0.00471332,0.134198,20.8808,87.4955,-0.678255,0.0,0.0
4510,1127.25,58.7064,61.9652,131.146,99.8569,107.611,0.00502376,0.133231,20.8834,87.3654,-0.684619,0.0,0.0
4565,1141,59.1327,61.5293,129.433,99.5693,106.977,0.0050273,0.13197,20.884,87.1853,-0.656987,0.0,0.0
4620,1154.75,58.7311,61.3388,133.598,99.6179,107.464,0.00520285,0.130431,20.8875,86.9751,-0.69406,0.0,0.0
4675,1168.5,58.3324,60.2142,134.023,99.6597,107.419,0.00537532,0.129947,20.8893,86.7649,-0.686417,0.0,0.0
4730,1182.25,58.1272,60.8123,132.163,99.738,107.711,0.00576047,0.128635,20.8913,86.6448,-0.70406,0.0,0.0
4785,1196,58.0575,60.1961,130.935,99.7477,107.226,0.00559979,0.12837,20.8924,86.4446,-0.661848,0.0,0.0
4840,1209.75,55.5035,58.1592,130.197,99.7589,107.414,0.00543013,0.127529,20.892,86.2545,-0.676913,0.0,0.0
4895,1223.5,55.9541,58.0667,133.622,99.7541,107.458,0.00584397,0.126836,20.8937,86.0343,-0.681082,0.0,0.0
4950,1237.25,55.6012,57.9973,133.411,99.7011,107.272,0.00631785,0.127333,20.8954,85.9442,-0.670094,0.0,0.0
5005,1251,55.7022,57.9198,132.15,99.593,107.078,0.00585603,0.126865,20.8977,85.8741,-0.663431,0.0,0.0
5060,1264.75,55.1501,58.0087,127.946,99.6954,107.65,0.00614626,0.126183,20.8986,85.754,-0.702765,0.0,0.0
5115,1278.5,55.205,57.3215,127.273,99.9485,107.698,0.00673683,0.126265,20.8971,85.5238,-0.683701,0.0,0.0
5170,1292.25,54.6013,57.0785,132.254,100.059,107.883,0.00643276,0.125681,20.8986,85.3637,-0.689266,0.0,0.0
5225,1306,55.0305,56.7178,131.089,99.9955,107.937,0.0067361,0.126153,20.898,85.1835,-0.699642,0.0,0.0
5280,1319.75,54.6735,56.7095,133.335,99.7424,106.984,,,,84.9834,-0.641633,0.0,0.0
5301,1325,54.4268,57.1551,136.417,99.5898,107.439,,,,84.9533,-0.694527,0.0,0.0

File: Oak_Flooring_Cone_HF75Scan_220526_R3.csv
Names,Time,Stack TC,Smoke TC,Exh Press,Smoke Comp,Smoke Meas,CO Meter,CO2 Meter,O2 Meter,Sample Mass,Ext Coeff,Start Test,Flame Verif
Chan Gain,,500,500,1,1,1,1,1,1,1,1,1.0,1.0
Offset,,0,0,0.137018,0,0,0,0,0,0,0,0.0,0.0
Gain,,1,1,25.011,13.1636,15.082,1,1,1,1.00086,1.04368,1.0,1.0
Units,sec,C,C,Pa,%,%,%,%,%,g,/m,,
Baseline,,49.0144,50.9425,135.873,99.732,107.296,0.000526804,0.0493176,21.0038,-450.181,-0.669249,,
56,13.75,46.4367,48.227,135.997,99.3576,102.822,0.00226633,0.0541871,20.9876,209.251,-0.313774,0.0,0.0
112,27.75,71.0974,67.9408,102.584,99.3821,77.6136,0.0347945,0.809543,19.5438,204.747,2.26341,0.0,0.0
168,41.75,80.9771,81.2645,114.536,99.3275,100.177,0.0121367,0.714938,20.2446,201.414,-0.0779898,0.0,0.0
224,55.75,82.4085,84.2096,118.673,99.2716,100.983,0.00952779,0.571178,20.4534,198.842,-0.156455,0.0,0.0
280,69.75,81.5555,85.4555,121.143,99.2584,101.237,0.00795682,0.484325,20.5464,196.71,-0.180682,0.0,0.0
336,83.75,79.8315,85.3709,126.041,99.2363,102.164,0.00770118,0.429332,20.5947,194.658,-0.266168,0.0,0.0
392,97.75,79.3058,85.3203,123.27,99.1957,103.033,0.00743064,0.407063,20.6032,192.696,-0.347495,0.0,0.0
448,111.75,78.2681,84.7163,119.216,99.1724,103.269,0.00624326,0.3885,20.626,190.795,-0.370561,0.0,0.0
504,125.75,77.2048,83.7173,120.47,99.5034,102.963,0.0055471,0.371873,20.6432,189.033,-0.312879,0.0,0.0
560,139.75,76.1261,83.146,125.79,99.8525,104.647,0.00445894,0.36068,20.6537,187.312,-0.42935,0.0,0.0
616,153.75,76.033,81.9163,121.389,100.077,104.354,0.00460121,0.34758,20.6687,185.7,-0.383135,0.0,0.0
672,167.75,75.4659,81.1572,119.862,99.967,104.688,0.00450704,0.341181,20.6697,184.009,-0.422442,0.0,0.0
728,181.75,74.8334,80.9926,125.575,99.5645,105.003,0.00414692,0.334454,20.6785,182.387,-0.486911,0.0,0.0
784,195.75,74.6248,80.1975,123.512,99.8136,105.11,0.00435542,0.333187,20.6765,180.776,-0.473343,0.0,0.0
840,209.75,73.7514,79.4475,124.954,100.055,105.316,0.00400667,0.33132,20.6792,179.015,-0.469126,0.0,0.0
896,223.75,74.3241,79.7942,130.55,100.15,105.457,0.00381243,0.331865,20.679,177.543,-0.472734,0.0,0.0
952,237.75,74.1799,79.6134,124.477,100.16,105.088,0.00432737,0.329111,20.6816,175.912,-0.439711,0.0,0.0
1008,251.75,74.2001,79.685,126.633,100.186,105.081,0.00368285,0.326904,20.6846,174.28,-0.436723,0.0,0.0
1064,265.75,74.0555,79.1739,122.517,100.161,104.699,0.00402483,0.328143,20.6828,172.679,-0.405655,0.0,0.0
1120,279.75,74.2449,79.5582,122.591,100.079,104.458,0.00372186,0.328893,20.6818,171.088,-0.392112,0.0,0.0
1176,293.75,74.3186,78.6333,122.687,100.084,105.106,0.00363864,0.327753,20.6828,169.516,-0.448254,0.0,0.0
1232,307.75,74.3371,78.4347,120.539,100.147,104.785,0.00372769,0.324733,20.6899,168.045,-0.414504,0.0,0.0
1288,321.75,74.0769,78.8169,123.308,100.248,105.557,0.00347431,0.323274,20.6884,166.384,-0.472442,0.0,0.0
1344,335.75,74.2508,78.9454,122.703,100.321,105.161,0.00312699,0.323448,20.686,164.912,-0.431372,0.0,0.0
1400,349.75,74.8349,79.1538,120.275,100.374,105.249,0.00302065,0.32527,20.6861,163.291,-0.434148,0.0,0.0
1456,363.75,74.3816,78.8179,121.545,100.399,105.584,0.00319399,0.323879,20.685,161.75,-0.461053,0.0,0.0
1512,377.75,74.4236,78.4889,122.902,100.414,105.035,0.00328286,0.318261,20.6945,160.268,-0.41192,0.0,0.0
1568,391.75,73.3418,78.6526,122.703,100.393,105.966,0.0030616,0.314209,20.6998,158.757,-0.494667,0.0,0.0
1624,405.75,74.3975,78.2517,123.039,100.398,105.912,0.00305943,0.313745,20.6997,157.186,-0.489534,0.0,0.0
1680,419.75,73.8175,78.4579,126.134,100.371,105.874,0.0030552,0.313122,20.6996,155.724,-0.488685,0.0,0.0
1736,433.75,73.6197,78.2074,125.547,100.328,105.924,0.00322252,0.310905,20.7026,154.183,-0.496904,0.0,0.0
1792,447.75,74.0167,78.0353,124.635,100.187,105.88,0.00326735,0.310634,20.7038,152.752,-0.506,0.0,0.0
1848,461.75,73.9705,78.0463,124.767,99.928,105.425,0.00330673,0.310578,20.7045,151.16,-0.490227,0.0,0.0
1904,475.75,74.4257,78.7419,124,99.8706,105.459,0.00285344,0.314012,20.6987,149.669,-0.498449,0.0,0.0
1960,489.75,74.3756,78.5744,126.486,99.9313,105.816,0.002759,0.313349,20.7018,148.158,-0.523845,0.0,0.0
2016,503.75,74.0165,78.4061,122.087,100.007,105.902,0.00275078,0.31562,20.6979,146.627,-0.524371,0.0,0.0
2072,517.75,74.199,78.5445,121.135,100.092,105.902,0.00305141,0.319595,20.6906,145.125,-0.516575,0.0,0.0
2128,531.75,74.7323,78.9545,122.752,100.097,105.298,0.0029698,0.322231,20.6895,143.504,-0.463784,0.0,0.0
2184,545.75,75.2649,79.2757,124.794,100.145,105.755,0.0032006,0.322447,20.693,141.933,-0.498988,0.0,0.0
2240,559.75,74.9063,79.0977,121.951,100.167,106.179,0.00282875,0.327241,20.6834,140.311,-0.533668,0.0,0.0
2296,573.75,75.4785,79.8384,121.448,100.09,105.77,0.00274393,0.335178,20.6683,138.74,-0.505412,0.0,0.0
2352,587.75,76.5353,80.6735,121.402,99.9799,105.532,0.00272586,0.343797,20.6569,137.078,-0.494788,0.0,0.0
2408,601.75,76.8093,81.4886,119.94,99.9939,105.694,0.00266299,0.351122,20.6506,135.397,-0.507545,0.0,0.0
2464,615.75,77.2456,81.8984,123.003,100.057,105.475,0.00265455,0.361753,20.6386,133.675,-0.482817,0.0,0.0
2520,629.75,78.0624,82.7403,123.832,100.153,105.451,0.00289267,0.375205,20.6227,131.994,-0.471882,0.0,0.0
2576,643.75,79.2835,83.1798,121.867,100.282,105.34,0.00251441,0.391161,20.6027,130.142,-0.450539,0.0,0.0
2632,657.75,79.7787,84.6535,124.399,100.304,105.166,0.0027895,0.407222,20.5831,128.251,-0.433275,0.0,0.0
2688,671.75,81.1739,85.4903,120.558,100.217,104.831,0.00315618,0.421483,20.5676,126.379,-0.412096,0.0,0.0
2744,685.75,81.7108,86.626,116.098,100.11,104.156,0.00309571,0.435664,20.553,124.387,-0.362709,0.0,0.0
2800,699.75,82.6125,87.659,121.683,99.9473,103.826,0.00334098,0.444823,20.5395,122.306,-0.348582,0.0,0.0
2856,713.75,84.2296,88.8912,124.838,99.7324,103.968,0.00358993,0.45652,20.527,120.274,-0.380823,0.0,0.0
2912,727.75,84.7652,89.787,119.826,99.3865,103.116,0.00370597,0.459039,20.5245,118.282,-0.3373,0.0,0.0
2968,741.75,85.5986,90.0691,117.879,99.0816,102.354,0.00328011,0.462343,20.5196,116.33,-0.297467,0.0,0.0
3024,755.75,85.8962,91.0498,115.966,98.7791,102.304,0.00359886,0.462163,20.5204,114.349,-0.321013,0.0,0.0
3080,769.75,86.0852,91.427,123.657,98.5698,101.837,0.00378322,0.45788,20.526,112.317,-0.29857,0.0,0.0
3136,783.75,85.7161,91.5422,117.084,98.4855,102.428,0.00369628,0.451617,20.5337,110.415,-0.359384,0.0,0.0
3192,797.75,85.8551,91.4771,118.002,98.4967,102.135,0.0029744,0.444941,20.5386,108.624,-0.332096,0.0,0.0
3248,811.75,85.3521,90.8342,117.412,98.573,101.919,0.00318706,0.432325,20.5555,106.812,-0.305634,0.0,0.0
3304,825.75,84.8081,90.6992,116.83,98.6915,102.56,0.00275392,0.412413,20.5798,105.131,-0.352047,0.0,0.0
3360,839.75,84.1078,89.5694,115.814,98.8679,102.738,0.00321016,0.398986,20.593,103.619,-0.351506,0.0,0.0
3416,853.75,83.3748,88.799,119.208,99.0688,103.216,0.00298411,0.384371,20.6082,102.068,-0.375482,0.0,0.0
3472,867.75,82.0847,88.0172,119.351,99.2411,103.733,0.00304391,0.369698,20.6255,100.657,-0.405301,0.0,0.0
3528,881.75,81.321,86.5574,119.716,99.4604,103.15,0.00270651,0.359118,20.6362,99.3358,-0.333436,0.0,0.0
3584,895.75,80.3257,85.9474,124.577,99.6171,103.372,0.00285889,0.350446,20.6421,98.0146,-0.338735,0.0,0.0
3640,909.75,79.7361,84.9043,120.359,99.7143,103.672,0.00291966,0.340034,20.6546,96.7635,-0.356344,0.0,0.0
3696,923.75,78.7261,84.1462,124.746,99.724,104.129,0.00300219,0.32612,20.6674,95.6226,-0.395731,0.0,0.0
3752,937.75,77.5455,82.9155,124.299,99.7308,103.503,0.00318357,0.297101,20.7088,94.6717,-0.339903,0.0,0.0
3808,951.75,74.3388,80.1242,128.218,99.7308,105.478,0.00330087,0.236114,20.7893,94.0312,-0.512912,0.0,0.0
3864,965.75,71.8058,76.9312,128.257,99.7312,106.227,0.00358624,0.1984,20.8224,93.6008,-0.577723,0.0,0.0
3920,979.75,69.2086,74.332,130.289,99.7115,107.025,0.00369982,0.177884,20.8399,93.2305,-0.647978,0.0,0.0
3976,993.75,67.0895,71.4538,130.842,99.6557,106.942,0.00351794,0.166308,20.8482,92.8401,-0.646055,0.0,0.0
4032,1007.75,65.5381,69.9353,132.957,99.5998,106.911,0.00394006,0.158278,20.8545,92.5799,-0.648508,0.0,0.0
4088,1021.75,64.5345,68.5469,126.93,99.5456,106.91,0.00441343,0.153013,20.8592,92.2396,-0.653375,0.0,0.0
4144,1035.75,63.9828,67.016,128.588,99.4504,107.002,0.00407781,0.148983,20.8612,92.0695,-0.670015,0.0,0.0
4200,1049.75,62.6685,66.0723,129.459,99.3548,106.608,0.00388243,0.145323,20.8666,91.8293,-0.645088,0.0,0.0
4256,1063.75,61.6192,64.7524,132.044,99.1941,106.616,0.00418383,0.142781,20.8692,91.539,-0.66058,0.0,0.0
4312,1077.75,61.2664,64.0589,128.855,98.9888,106.46,0.00446522,0.140559,20.8717,91.2688,-0.666136,0.0,0.0
4368,1091.75,60.5402,63.4866,130.104,98.7719,106.264,0.00470011,0.138809,20.8778,91.0686,-0.669345,0.0,0.0
4424,1105.75,59.9743,62.3739,134.266,98.7414,106.179,0.00491818,0.137476,20.8763,90.8084,-0.664836,0.0,0.0
4480,1119.75,59.7882,61.9775,131.743,98.7847,106.389,0.00515432,0.136187,20.8787,90.6583,-0.678894,0.0,0.0
4536,1133.75,59.5027,61.6365,130.161,98.7896,106.436,0.00515169,0.135097,20.8834,90.4581,-0.682525,0.0,0.0
4592,1147.75,58.8795,61.422,133.898,98.8072,106.3,0.00545734,0.134198,20.8839,90.2279,-0.669201,0.0,0.0
4648,1161.75,58.2674,61.0935,128.322,98.8502,106.505,0.00537085,0.132888,20.8854,90.0377,-0.682841,0.0,0.0
4704,1175.75,57.5745,60.4356,134.305,99.0081,106.926,0.00535378,0.131097,20.889,89.8376,-0.704362,0.0,0.0
4760,1189.75,57.7287,60.1711,130.73,99.1636,106.714,0.00569582,0.131317,20.8899,89.6474,-0.671811,0.0,0.0
4816,1203.75,57.322,59.3491,127.682,99.2134,107.158,0.00611172,0.129759,20.8912,89.5673,-0.70524,0.0,0.0
4872,1217.75,56.7594,59.2411,128.99,99.2174,106.67,0.00622772,0.129558,20.8906,89.2971,-0.663091,0.0,0.0
4928,1231.75,55.1056,57.3989,128.475,99.3078,107.239,0.00662789,0.128642,20.8964,89.157,-0.703411,0.0,0.0
4984,1245.75,55.4306,57.2634,132.5,99.3608,106.725,0.00648401,0.1282,20.8942,88.9968,-0.654567,0.0,0.0
5040,1259.75,54.6177,57.1639,137.621,99.4773,107.286,0.00659765,0.127741,20.8962,88.8267,-0.691803,0.0,0.0
5096,1273.75,54.8518,56.9981,130.893,99.5195,107.431,0.00679985,0.128018,20.8945,88.6866,-0.700285,0.0,0.0
5152,1287.75,54.65625,57.167,129.167,99.5115,107.341,0.00734951,0.126834,20.8976,88.4564,-0.693374,0.0,0.0
5208,1301.75,54.4492,56.6933,131.299,99.4279,107.132,0.00706958,0.126639,20.8981,88.2662,-0.683263,0.0,0.0
5264,1315.75,54.3394,56.9273,133.871,99.319,107.252,0.00762702,0.127168,20.8985,88.1461,-0.703553,0.0,0.0
5320,1329.75,54.0804,56.1287,135.533,99.2439,106.906,0.00748117,0.12656,20.9002,88.036,-0.680848,0.0,0.0
5364,1340.75,53.7241,56.1904,129.085,99.2503,106.897,,,,87.8959,-0.679467,0.0,0.0