Folder: fsri_materials_database/01_Data/Oak_HWF/Cone (part 3)

File: Oak_Flooring_Cone_HF50Scan_220914_R1.csv
Names,Time,Stack TC,Smoke TC,Exh Press,Smoke Comp,Smoke Meas,CO Meter,CO2 Meter,O2 Meter,Sample Mass,Ext Coeff,Start Test,Flame Verif
Chan Gain,,500,500,1,1,1,1,1,1,1,1,1.0,1.0
Offset,,0,0,0.139139,0,0,0,0,0,0,0,0.0,0.0
Gain,,1,1,25.011,13.0826,14.7555,1,1,1,1.00088,1.03743,1.0,1.0
Units,sec,C,C,Pa,%,%,%,%,%,g,/m,,
Baseline,,45.0001,46.0844,142.25,99.2069,101.929,-0.00059237,0.0482917,20.9963,-445.825,-0.246303,,
57,14,44.2402,45.2341,144.252,99.7886,102.983,-0.000665314,0.049128,20.9943,217.632,-0.286735,0.0,0.0
114,28.25,44.9937,45.577,137.528,99.7251,102.71,0.000245496,0.0716685,20.958,217.311,-0.26842,0.0,1.0
171,42.5,57.552,54.0605,127.82,99.71,98.8058,0.00323568,0.489817,20.4243,215.159,0.0828936,0.0,0.0
228,56.75,69.676,66.2773,124.971,99.7032,97.0942,0.00458131,0.578438,20.3807,212.767,0.241299,0.0,0.0
285,71,74.85,73.3808,122.105,99.7235,99.0819,0.00386244,0.516976,20.4705,210.335,0.0587439,0.0,0.0
342,85.25,76.3103,77.0941,124.397,99.8082,99.9559,0.00311176,0.465388,20.5366,208.303,-0.0134603,0.0,0.0
399,99.5,76.9288,78.6119,130.163,99.8844,100.996,0.00292281,0.431894,20.5771,206.402,-0.100682,0.0,0.0
456,113.75,75.9462,79.0878,126.622,99.8229,100.93,0.00274827,0.399445,20.6117,204.39,-0.10036,0.0,0.0
513,128,74.9864,79.826,134.193,99.6237,101.013,0.00241122,0.375229,20.6383,202.699,-0.126008,0.0,0.0
570,142.25,74.0328,78.7809,127.28,99.274,101.389,0.00269925,0.360194,20.6561,200.897,-0.191864,0.0,0.0
627,156.5,72.9173,77.6558,128.604,99.0428,101.355,0.00255337,0.343252,20.6758,199.366,-0.209967,0.0,0.0
684,170.75,72.2315,77.7652,128.9,98.8488,100.419,0.00228672,0.331433,20.6855,197.714,-0.143407,0.0,0.0
741,185,71.1525,76.8727,131.808,98.8244,101.104,0.00212232,0.321991,20.6974,196.253,-0.207507,0.0,0.0
798,199.25,70.8588,76.1568,133.145,98.8599,101.051,0.00164274,0.314204,20.709,194.762,-0.199493,0.0,0.0
855,213.5,70.1181,74.8647,129.822,98.9111,101.355,0.00187566,0.305138,20.719,193.25,-0.222121,0.0,0.0
912,227.75,70.1794,74.0192,131.053,99.0308,101.733,0.00206863,0.297742,20.7252,191.889,-0.245007,0.0,0.0
969,242,69.58,73.8187,130.157,99.1462,101.814,0.00173406,0.290675,20.7315,190.358,-0.241658,0.0,0.0
1026,256.25,69.0938,73.0921,131.464,99.3494,103.058,0.00174363,0.285247,20.7366,189.036,-0.333557,0.0,0.0
1083,270.5,69.2527,72.5924,131.152,99.555,102.906,0.00196635,0.281072,20.7436,187.545,-0.301253,0.0,0.0
1140,284.75,68.2816,72.8609,126.387,99.7527,102.699,0.00173544,0.278686,20.7472,186.204,-0.26491,0.0,0.0
1197,299,68.5463,72.1158,131.326,99.8673,104.025,0.00174054,0.274463,20.7512,184.753,-0.371181,0.0,0.0
1254,313.25,68.1676,72.4319,133.247,99.8609,103.201,0.00184239,0.269894,20.7572,183.452,-0.299386,0.0,0.0
1311,327.5,68.6794,71.8818,128.383,99.6848,103.087,0.00190513,0.266286,20.7608,182.02,-0.305394,0.0,0.0
1368,341.75,68.4742,71.8198,129.526,99.4536,101.836,0.0018707,0.263255,20.7638,180.629,-0.215416,0.0,0.0
1425,356,68.066,71.5808,131.021,99.5319,102.651,0.0019894,0.262955,20.7642,179.318,-0.280802,0.0,0.0
1482,370.25,68.2821,71.5781,132.048,100.137,103.077,0.00158207,0.263992,20.7629,177.817,-0.263354,0.0,0.0
1539,384.5,68.0516,71.3172,129.479,99.8201,103.425,0.0019646,0.261783,20.7653,176.565,-0.322812,0.0,0.0
1596,398.75,68.1876,71.4987,128.883,100.013,103.401,0.00146838,0.259682,20.7699,175.074,-0.303148,0.0,0.0
1653,413,68.0939,70.9775,127.613,100.485,105.02,0.00169253,0.258431,20.7683,173.883,-0.401679,0.0,0.0
1710,427.25,68.6041,71.8747,130.208,100.393,104.64,0.00153089,0.256558,20.7706,172.462,-0.377046,0.0,0.0
1767,441.5,68.3305,71.3612,131.456,99.6988,103.674,0.00151458,0.25754,20.771,171.171,-0.355808,0.0,0.0
1824,455.75,68.2452,70.8382,129.653,98.917,102.856,0.00169283,0.258767,20.769,169.9,-0.355378,0.0,0.0
1881,470,68.1988,71.3404,129.709,98.6252,102.101,0.00138407,0.258908,20.7702,168.528,-0.315169,0.0,0.0
1938,484.25,69.0146,71.4562,131.246,98.8619,102.747,0.00156489,0.259939,20.7681,167.297,-0.350763,0.0,0.0
1995,498.5,68.6074,71.5478,126.948,99.2213,102.406,0.00175167,0.263007,20.7641,165.876,-0.287504,0.0,0.0
2052,512.75,69.043,71.657,133.041,99.4524,103.631,0.00152299,0.262786,20.7658,164.665,-0.374564,0.0,0.0
2109,527,69.1509,72.1083,129.269,99.5475,102.76,0.00134333,0.262447,20.7667,163.274,-0.289075,0.0,0.0
2166,541.25,69.1664,71.8422,129.317,99.5758,103.765,0.00119029,0.26378,20.7673,162.053,-0.37502,0.0,0.0
2223,555.5,68.9178,71.8299,128.775,99.5111,103.991,0.00126987,0.266502,20.765,160.712,-0.400736,0.0,0.0
2280,569.75,69.4711,72.4074,132.113,99.3135,103.044,0.0010742,0.268388,20.7621,159.3,-0.335576,0.0,0.0
2337,584,69.6614,72.5782,131.658,99.1139,102.851,0.00110176,0.270837,20.76,158.059,-0.33685,0.0,0.0
2394,598.25,69.6028,72.729,130.385,98.9242,102.63,0.00120829,0.27126,20.7588,156.668,-0.334695,0.0,0.0
2451,612.5,69.7848,72.551,132.362,98.8368,102.417,0.000903362,0.274453,20.7533,155.397,-0.323837,0.0,0.0
2508,626.75,70.4303,72.7992,128.996,98.8647,102.941,0.000941754,0.278687,20.7506,153.986,-0.367718,0.0,0.0
2565,641,70.0845,73.7193,127.903,99.0204,102.535,0.0011255,0.28005,20.7477,152.644,-0.31738,0.0,0.0
2622,655.25,69.9935,73.3206,131.801,99.2943,103.049,0.000975661,0.285243,20.7414,151.263,-0.33777,0.0,0.0
2679,669.5,70.9849,73.5242,127.021,99.6313,102.927,0.000980725,0.29046,20.7358,149.872,-0.296197,0.0,0.0
2736,683.75,71.4155,74.0543,129.161,99.8114,103.063,0.00102312,0.300013,20.7243,148.481,-0.29174,0.0,0.0
2793,698,71.9019,74.5445,130.166,99.8489,102.836,0.00108329,0.310848,20.712,146.989,-0.268297,0.0,0.0
2850,712.25,73.113,75.5803,129.457,99.7834,104.041,0.00114452,0.319878,20.7019,145.508,-0.380242,0.0,0.0
2907,726.5,73.688,76.4694,126.129,99.6313,103.226,0.00104557,0.335722,20.6835,143.877,-0.322594,0.0,0.0
2964,740.75,75.1285,77.8377,127.724,99.4832,103.451,0.00136137,0.351494,20.6676,142.315,-0.355882,0.0,0.0
3021,755,75.8636,78.3236,123.989,99.3375,102.142,0.00139963,0.36868,20.6481,140.564,-0.253334,0.0,0.0
3078,769.25,77.205,79.8004,127.117,99.3179,103.008,0.00156267,0.386962,20.6256,138.902,-0.331952,0.0,0.0
3135,783.5,78.1484,81.1085,127.37,99.9216,101.577,0.00177912,0.40397,20.6057,136.971,-0.149493,0.0,0.0
3192,797.75,78.6988,82.3941,125.688,100.071,102.102,0.00227565,0.41975,20.5867,135.149,-0.182902,0.0,0.0
3249,812,81.0016,84.0739,126.699,99.7028,100.771,0.00205229,0.435955,20.5666,133.227,-0.0969383,0.0,0.0
3306,826.25,82.2014,84.8827,125.942,100.295,101.579,0.00236311,0.451865,20.5473,131.156,-0.115723,0.0,0.0
3363,840.5,82.685,86.1024,122.039,100.421,101.758,0.0022592,0.466131,20.5286,129.194,-0.120357,0.0,0.0
3420,854.75,84.4099,87.4421,122.158,99.7303,99.7321,0.00231057,0.47934,20.5145,127.072,-0.000162727,0.0,0.0
3477,869,85.0044,88.5247,120.095,98.9059,99.4448,0.00239453,0.490113,20.4999,125,-0.0494537,0.0,0.0
3534,883.25,85.4819,89.3877,125.127,98.6491,99.1355,0.00312443,0.494056,20.4947,122.838,-0.044751,0.0,0.0
3591,897.5,85.8271,89.8662,117.504,99.1067,99.2755,0.00275027,0.494008,20.4911,120.796,-0.0154873,0.0,0.0
3648,911.75,86.6381,90.7884,124.713,99.6908,100.589,0.00264436,0.484718,20.4994,118.725,-0.0815883,0.0,0.0
3705,926,86.9161,90.6924,118.991,99.8409,99.4403,0.00278013,0.47592,20.511,116.853,0.0365874,0.0,0.0
3762,940.25,86.6843,91.3287,125.01,99.6916,99.3764,0.00246762,0.448347,20.5408,115.021,0.0288208,0.0,0.0
3819,954.5,85.3444,90.2167,121.814,99.4884,100.422,0.002407,0.418118,20.5752,113.23,-0.0849986,0.0,0.0
3876,968.75,84.5396,89.2408,126.49,99.3858,100.806,0.00181806,0.384207,20.611,111.718,-0.129131,0.0,0.0
3933,983,82.8664,88.1847,124.998,99.369,101.733,0.00154059,0.346207,20.653,110.397,-0.213944,0.0,0.0
3990,997.25,80.5443,85.7974,127.49,99.4233,102.337,0.00127903,0.318654,20.686,109.146,-0.26283,0.0,0.0
4047,1011.5,78.4951,84.0269,128.563,99.6077,103.205,0.00122038,0.283129,20.7289,108.075,-0.322879,0.0,0.0
4104,1025.75,75.8625,81.3798,130.685,99.7666,103.361,0.00103971,0.241697,20.7759,107.284,-0.322102,0.0,0.0
4161,1040,73.5138,78.5939,137.661,99.777,103.491,0.00116965,0.204817,20.8121,106.574,-0.332566,0.0,0.0
4218,1054.25,70.1392,75.5336,130.222,99.686,103.621,0.00122563,0.178279,20.8398,106.023,-0.352348,0.0,0.0
4275,1068.5,67.6948,72.7618,133.251,99.557,103.364,0.00172627,0.151713,20.8727,105.603,-0.341518,0.0,0.0
4332,1082.75,64.975,69.4306,136.164,99.5443,103.508,0.00237997,0.136279,20.8886,105.203,-0.355325,0.0,0.0
4389,1097,62.5628,66.7419,132.408,99.6497,102.736,0.00207643,0.129526,20.8961,104.952,-0.277543,0.0,0.0
4446,1111.25,61.3756,65.0285,132.462,99.7722,104.092,0.00201365,0.128591,20.8964,104.642,-0.385751,0.0,0.0
4503,1125.5,59.7858,63.3393,135.964,99.8026,103.439,0.00245262,0.128732,20.895,104.542,-0.325681,0.0,0.0
4560,1139.75,59.672,61.8568,138.008,99.6089,103.515,0.00268297,0.134765,20.8903,104.232,-0.350008,0.0,0.0
4617,1154,58.4893,61.1783,138.514,99.343,103.061,0.00248316,0.124424,20.9016,104.092,-0.334341,0.0,0.0
4674,1168.25,58.0448,60.0617,136.689,99.1897,103.184,0.00284911,0.118743,20.9099,103.922,-0.359245,0.0,0.0
4731,1182.5,57.8818,59.4128,136.486,99.6589,102.518,0.00277138,0.116841,20.9101,103.661,-0.257418,0.0,0.0
4788,1196.75,57.1803,58.5679,135.265,100.005,103.436,0.00295553,0.115941,20.9137,103.551,-0.307005,0.0,0.0
4845,1211,57.0509,58.6783,134.048,99.9279,104.036,0.00319659,0.113841,20.9157,103.281,-0.366637,0.0,0.0
4902,1225.25,56.5767,57.8593,138.395,99.5503,102.104,0.00345394,0.11348,20.9175,103.221,-0.230491,0.0,0.0
4959,1239.5,55.1927,55.9392,135.812,99.7443,103.737,0.00370416,0.113123,20.9171,102.961,-0.357186,0.0,0.0
5016,1253.75,54.8603,56.1389,137.737,100.051,103.791,0.00352984,0.113001,20.917,102.881,-0.333917,0.0,0.0
5073,1268,54.9079,56.2371,135.122,100.351,104.089,0.0036366,0.112201,20.9172,102.62,-0.332786,0.0,0.0
5130,1282.25,54.3528,55.4844,134.808,100.404,104.64,0.00343766,0.111581,20.9197,102.52,-0.376071,0.0,0.0
5187,1296.5,54.4891,55.7846,135.739,100.019,104.046,0.00413428,0.111465,20.9176,102.39,-0.359293,0.0,0.0
5244,1310.75,54.4242,55.9387,134.543,99.3055,103.628,0.00374851,0.110736,20.9194,102.14,-0.387703,0.0,0.0
5301,1325,54.4812,55.3579,138.497,98.6995,101.657,0.00407144,0.11165,20.9186,102.1,-0.268658,0.0,0.0
5358,1339.25,54.2318,55.1117,135.639,98.7637,102.575,0.0040217,0.110364,20.9206,101.83,-0.344599,0.0,0.0
5415,1353.5,53.909,55.1993,136.976,99.363,103.135,,,,101.82,-0.339071,0.0,0.0
5433,1358,53.6511,55.0549,138.337,99.5339,103.432,,,,101.64,-0.34962,0.0,0.0

File: Oak_Flooring_Cone_HF50Scan_220914_R3.csv
Names,Time,Stack TC,Smoke TC,Exh Press,Smoke Comp,Smoke Meas,CO Meter,CO2 Meter,O2 Meter,Sample Mass,Ext Coeff,Start Test,Flame Verif
Chan Gain,,500,500,1,1,1,1,1,1,1,1,1.0,1.0
Offset,,0,0,0.139139,0,0,0,0,0,0,0,0.0,0.0
Gain,,1,1,25.011,13.0826,14.7555,1,1,1,1.00088,1.03743,1.0,1.0
Units,sec,C,C,Pa,%,%,%,%,%,g,/m,,
Baseline,,55.0473,56.5298,140.706,98.7674,104.964,-0.00102005,0.0477314,20.9914,-451.313,-0.553732,,
52,12.75,53.2655,54.0523,141.76,99.6692,105.881,-0.000866983,0.051197,20.9926,206.942,-0.550192,0.0,0.0
104,25.75,53.3622,54.9606,139.064,99.8345,104.641,-0.000511561,0.0501668,20.9927,206.632,-0.427935,0.0,0.0
156,38.75,61.5674,59.6347,115.971,99.904,98.3303,0.00272746,0.418007,20.4449,205.041,0.144488,0.0,0.0
208,51.75,76.0717,73.0773,116.845,99.8553,95.474,0.00512804,0.624745,20.2899,202.749,0.408308,0.0,0.0
260,64.75,82.718,81.4848,122.992,99.4508,98.1772,0.0046285,0.583424,20.3818,200.467,0.117297,0.0,0.0
312,77.75,85.4692,85.5911,121.601,99.3123,99.4615,0.00356777,0.51994,20.4645,198.415,-0.0136586,0.0,0.0
364,90.75,86.2091,88.0907,126.54,99.7112,101.561,0.00293518,0.467075,20.5324,196.453,-0.167263,0.0,0.0
416,103.75,84.4663,88.8495,125.167,99.8589,101.909,0.00256009,0.421505,20.5797,194.681,-0.184928,0.0,0.0
468,116.75,84.3304,88.9133,126.543,99.795,102.486,0.00215383,0.393063,20.6109,193.04,-0.242156,0.0,0.0
520,129.75,83.0054,87.942,130.857,99.6604,102.715,0.00244954,0.373535,20.6344,191.549,-0.274723,0.0,0.0
572,142.75,82.4479,87.7434,131.931,99.6281,102.95,0.00184809,0.36634,20.6401,190.027,-0.298479,0.0,0.0
624,155.75,82.1953,87.434,132.883,99.664,102.903,0.00176737,0.356309,20.6522,188.426,-0.291056,0.0,0.0
676,168.75,81.1346,86.9167,128.737,99.7531,103.078,0.0021712,0.347043,20.6628,186.905,-0.298368,0.0,0.0
728,181.75,80.3621,86.2263,127.334,99.8126,103.717,0.00168175,0.33897,20.6707,185.413,-0.349221,0.0,0.0
780,194.75,80.157,85.3199,127.993,99.7894,103.774,0.00163477,0.334515,20.6764,184.112,-0.356349,0.0,0.0
832,207.75,79.537,85.0446,126.21,99.5738,103.203,0.00139723,0.328731,20.6847,182.731,-0.325822,0.0,0.0
884,220.75,79.5602,83.956,130.871,99.1726,103.171,0.00143654,0.325007,20.6885,181.32,-0.359708,0.0,0.0
936,233.75,79.1964,83.9306,128.428,99.3394,103.312,0.00131244,0.319689,20.6936,179.878,-0.356871,0.0,0.0
988,246.75,78.4805,83.5567,132.31,99.6956,104.184,0.00138328,0.317885,20.6965,178.477,-0.400773,0.0,0.0
1040,259.75,78.7853,83.2644,127.438,99.8329,104.304,0.000985723,0.314444,20.6991,177.186,-0.398662,0.0,0.0
1092,272.75,78.2586,82.4463,128.622,99.5838,103.913,0.00129346,0.307677,20.7067,175.945,-0.387234,0.0,0.0
1144,285.75,77.5253,81.9422,129.247,99.0751,104.037,0.00116662,0.300919,20.715,174.544,-0.444673,0.0,0.0
1196,298.75,77.4604,81.748,127.983,98.7729,103.171,0.00136145,0.294088,20.723,173.273,-0.396455,0.0,0.0
1248,311.75,76.76,81.4946,133.035,98.7019,103.273,0.00127045,0.290271,20.7265,171.901,-0.411976,0.0,0.0
1300,324.75,76.8261,80.6195,130.887,98.6695,103.24,0.00146225,0.286806,20.7326,170.62,-0.412061,0.0,0.0
1352,337.75,76.6343,80.459,132.559,98.6859,103.501,0.00116665,0.282559,20.7362,169.399,-0.433545,0.0,0.0
1404,350.75,76.2453,80.7443,127.883,98.7022,103.934,0.00102833,0.276487,20.7453,168.158,-0.470005,0.0,0.0
1456,363.75,75.2797,79.9249,128.628,98.7362,103.869,0.00117163,0.27379,20.7467,166.927,-0.461197,0.0,0.0
1508,376.75,76.1031,79.9552,126.453,98.7601,104.005,0.00110628,0.271813,20.7483,165.646,-0.470896,0.0,0.0
1560,389.75,75.9133,79.5508,127.687,98.8224,103.868,0.000996368,0.269415,20.7542,164.385,-0.453134,0.0,0.0
1612,402.75,75.2857,79.0715,132.239,98.9394,103.999,0.00110818,0.265318,20.7531,163.144,-0.453841,0.0,0.0
1664,415.75,75.3179,79.1036,129.834,99.1606,104.325,0.000856503,0.264546,20.7542,162.033,-0.462043,0.0,0.0
1716,428.75,75.187,78.9097,126.049,99.4512,104.725,0.000702647,0.261646,20.7594,160.822,-0.470182,0.0,0.0
1768,441.75,75.1899,79.1142,131.22,99.7096,105.346,0.000955484,0.258781,20.7631,159.721,-0.500415,0.0,0.0
1820,454.75,74.7866,78.3892,132.061,99.8804,105.165,0.000872374,0.256708,20.7653,158.51,-0.469221,0.0,0.0
1872,467.75,74.6853,78.4632,133.674,99.8501,105.24,0.000426877,0.258086,20.7636,157.269,-0.478413,0.0,0.0
1924,480.75,74.9323,78.3094,129.677,99.5946,105.275,0.000711161,0.258716,20.7614,156.148,-0.504806,0.0,0.0
1976,493.75,74.9538,78.481,131.113,99.2109,104.686,0.000842538,0.260579,20.7615,155.017,-0.488836,0.0,0.0
2028,506.75,74.8863,78.181,132.57,99.5075,105.04,0.00079704,0.26314,20.7597,153.886,-0.492381,0.0,0.0
2080,519.75,75.4239,77.8844,131.193,99.8744,105.333,0.000687255,0.265093,20.7564,152.664,-0.484251,0.0,0.0
2132,532.75,74.8999,78.6745,132.09,99.6784,105.446,0.000612434,0.269063,20.7518,151.423,-0.511889,0.0,0.0
2184,545.75,75.7188,78.7973,128.203,99.6604,105.298,0.0003304,0.275635,20.7433,150.232,-0.500736,0.0,0.0
2236,558.75,76.2087,79.388,126.026,100.024,105.963,0.000837175,0.280476,20.7402,149.181,-0.524958,0.0,0.0
2288,571.75,76.7313,79.5626,130.924,100.26,105.665,0.000838972,0.283065,20.7359,147.9,-0.477879,0.0,0.0
2340,584.75,76.8865,79.4086,131.559,100.333,105.746,0.000357414,0.287819,20.7292,146.699,-0.478191,0.0,0.0
2392,597.75,77.546,80.0983,131.424,100.316,105.722,0.000508287,0.293584,20.7254,145.418,-0.477695,0.0,0.0
2444,610.75,77.5512,80.3623,127.284,100.316,105.421,0.000436771,0.299771,20.7176,144.067,-0.451687,0.0,0.0
2496,623.75,78.0459,80.7903,130.389,100.319,105.501,0.000663141,0.303634,20.7127,142.686,-0.458351,0.0,0.0
2548,636.75,77.8987,80.9124,131.514,100.294,105.555,0.0009324,0.310563,20.7067,141.535,-0.465258,0.0,0.0
2600,649.75,78.3956,81.7674,126.301,100.248,104.749,0.0010062,0.316513,20.7002,140.234,-0.399704,0.0,0.0
2652,662.75,79.3487,82.4223,128.832,100.143,104.335,0.000821015,0.324472,20.6908,138.832,-0.373175,0.0,0.0
2704,675.75,79.6426,82.776,126.077,99.916,104.543,0.000640097,0.33565,20.6738,137.371,-0.411934,0.0,0.0
2756,688.75,80.6832,83.4966,125.055,99.5914,104.204,0.00070054,0.343071,20.6649,135.89,-0.41202,0.0,0.0
2808,701.75,80.9213,84.4895,125.991,99.5143,103.788,0.00103155,0.359281,20.6486,134.398,-0.382616,0.0,0.0
2860,714.75,81.628,84.8503,124.981,99.8205,103.656,0.00112317,0.371524,20.6342,132.917,-0.343157,0.0,0.0
2912,727.75,82.5084,85.7679,129.574,99.6485,103.283,0.00112325,0.383442,20.6212,131.386,-0.325987,0.0,0.0
2964,740.75,83.3578,86.6341,123.637,99.3023,102.288,0.00118683,0.398068,20.6,129.804,-0.269543,0.0,0.0
3016,753.75,84.2568,87.4502,125.074,99.145,101.875,0.00173776,0.408013,20.5919,128.013,-0.2472,0.0,0.0
3068,766.75,85.4772,89.054,124.532,99.2496,101.709,0.0021279,0.428238,20.5672,126.331,-0.222789,0.0,0.0
3120,779.75,86.7236,90.0824,127.444,99.2772,101.766,0.00170936,0.439309,20.5555,124.63,-0.225338,0.0,0.0
3172,792.75,87.8131,91.5071,127.974,99.2085,100.947,0.00241021,0.448969,20.5431,122.948,-0.158051,0.0,0.0
3224,805.75,87.5161,91.7691,125.647,99.1454,100.411,0.0022793,0.44848,20.543,121.137,-0.115403,0.0,0.0
3276,818.75,88.3445,92.6263,127.894,99.1662,100.879,0.00253234,0.445715,20.5457,119.305,-0.155843,0.0,0.0
3328,831.75,88.6859,93.1054,124.366,99.3259,101.273,0.00229695,0.44709,20.541,117.564,-0.176634,0.0,0.0
3380,844.75,88.8517,93.7213,121.5,99.4608,101.106,0.00222896,0.447931,20.5431,115.922,-0.149335,0.0,0.0
3432,857.75,89.5354,93.9119,122.935,99.5343,100.885,0.0026672,0.449003,20.5376,114.261,-0.122693,0.0,0.0
3484,870.75,90.2022,93.8907,125.282,99.6656,100.674,0.00257883,0.446765,20.5403,112.599,-0.091581,0.0,0.0
3536,883.75,89.7871,94.4406,119.322,99.8062,100.212,0.00254747,0.441199,20.5456,110.958,-0.0369394,0.0,0.0
3588,896.75,89.7115,94.5294,127.032,99.8824,101.541,0.00259797,0.431034,20.5575,109.286,-0.149829,0.0,0.0
3640,909.75,89.11,94.2082,124.831,99.6916,101.108,0.00218224,0.415575,20.5704,107.735,-0.128367,0.0,0.0
3692,922.75,88.5671,93.5555,124.627,99.6724,100.814,0.00208271,0.393336,20.5969,106.354,-0.103652,0.0,0.0
3744,935.75,87.8994,92.4718,123.619,100.153,101.468,0.00211336,0.367517,20.6279,105.163,-0.118659,0.0,0.0
3796,948.75,86.3257,91.3451,125.214,100.375,103.805,0.00154439,0.342632,20.6538,103.952,-0.305738,0.0,0.0
3848,961.75,84.4565,89.9355,125.075,100.013,103.654,0.000952622,0.311483,20.6907,102.931,-0.325397,0.0,0.0
3900,974.75,83.2738,88.075,132.432,99.1845,103.882,0.000881311,0.285811,20.7151,101.91,-0.421071,0.0,0.0
3952,987.75,81.374,86.2645,132.346,98.7897,103.65,0.000818597,0.254981,20.7519,101.119,-0.437034,0.0,0.0
4004,1000.75,78.6357,83.7703,129.308,98.8464,104.035,0.000665501,0.221869,20.7885,100.468,-0.465593,0.0,0.0
4056,1013.75,76.7142,81.5323,130.13,99.3474,104.939,0.0008285,0.191278,20.8251,100.008,-0.498292,0.0,0.0
4108,1026.75,73.909,78.797,131.346,99.8205,105.584,0.000726004,0.163694,20.8523,99.5877,-0.510807,0.0,0.0
4160,1039.75,71.5276,76.0345,135.699,99.9303,105.946,0.000962469,0.142569,20.8769,99.2674,-0.531993,0.0,0.0
4212,1052.75,69.6366,73.5008,135.485,99.5926,105.875,0.0019237,0.132749,20.8887,98.9572,-0.55669,0.0,0.0
4264,1065.75,68.3506,70.6458,135.509,99.1953,105.309,0.00173027,0.128376,20.8938,98.6969,-0.544279,0.0,0.0
4316,1078.75,66.8945,70.0767,132.97,99.769,106.377,0.00147598,0.125761,20.8975,98.5168,-0.583596,0.0,0.0
4368,1091.75,66.1881,68.9338,138.488,99.8413,106.031,0.00200244,0.124861,20.8992,98.4367,-0.547412,0.0,0.0
4420,1104.75,65.2545,67.7651,139.018,99.5415,105.836,0.00203893,0.123275,20.9001,98.2565,-0.558032,0.0,0.0
4472,1117.75,64.3913,66.7287,136.743,99.7543,106.005,0.00213378,0.122382,20.9013,98.0463,-0.553067,0.0,0.0
4524,1130.75,62.653,64.5103,136.57,99.9651,105.993,0.00237477,0.120482,20.9058,97.8061,-0.532852,0.0,0.0
4576,1143.75,61.756,63.613,135.474,100.041,105.846,0.00218112,0.12027,20.9039,97.606,-0.513298,0.0,0.0
4628,1156.75,60.9557,62.9537,137.878,100.027,105.835,0.00245271,0.11903,20.9045,97.4458,-0.513639,0.0,0.0
4680,1169.75,61.0746,62.4456,139.959,99.9136,106.159,0.00237236,0.118163,20.9071,97.3858,-0.551796,0.0,0.0
4732,1182.75,60.6019,62.4609,139.66,99.7199,106.388,0.00261012,0.117091,20.9078,97.1556,-0.589077,0.0,0.0
4784,1195.75,60.5736,61.6343,137.776,99.4999,105.493,0.0021385,0.116497,20.9098,97.0455,-0.532238,0.0,0.0
4836,1208.75,60.035,61.3834,136.883,99.7471,106.017,0.00263859,0.11575,20.9091,96.8153,-0.554806,0.0,0.0
4888,1221.75,59.2092,61.5672,138.564,99.8509,106.081,0.00295747,0.115782,20.9072,96.6751,-0.550827,0.0,0.0
4940,1234.75,59.1108,60.6672,132.773,99.4261,105.8,,0.115497,,96.6251,-0.56545,0.0,0.0
4975,1243.5,58.8481,60.3378,142.145,99.2197,105.36,,,,96.4349,-0.546403,0.0,0.0

File: Oak_Flooring_Cone_HF75Scalar_220526_R1.csv
LABORATORY,FSRI
TEST IDENT,Oak_Flooring_75_1
OPERATOR,Dow
MATERIAL,Oak Flooring
ORIENTATION,Horizontal
HEAT FLUX,75
SURF AREA,0.01
C FACTOR,0.0414514
SPEC HOLDER DIFF,-566
SPECIMEN MASS,157.28
SCAN TIME,0.25
O2 DELAY TIME,11
CO DELAY TIME,11
CO2 DELAY TIME,8
FLOW FACTOR,1
SCAN COUNT,26693
TIME TO IGN,14.25
END OF TEST SCAN,26213
END OF TEST TIME,6553.25
TEST STATUS,1
PRE TEST CMT,Dimensions: 100.08 x 100.07 x 14.15 mm; with tie wires

File: Oak_Flooring_Cone_HF75Scalar_220526_R3.csv
LABORATORY,FSRI
TEST IDENT,Oak_Flooring_75_3
OPERATOR,Dow
MATERIAL,Oak Flooring
ORIENTATION,Horizontal
HEAT FLUX,75
SURF AREA,0.01
C FACTOR,0.0414514
SPEC HOLDER DIFF,-566
SPECIMEN MASS,159.63
SCAN TIME,0.25
O2 DELAY TIME,11
CO DELAY TIME,11
CO2 DELAY TIME,8
FLOW FACTOR,1
SCAN COUNT,5364
TIME TO IGN,15.5
END OF TEST SCAN,4884
END OF TEST TIME,1221
TEST STATUS,1
PRE TEST CMT,Dimensions: 100.27 x 100.11 x 14.15 mm; with tie wires
POST TEST CMT,"Test ended at 20 minutes according to average mass loss rate less than 150 g/m^2 over one minute. Small flames remained at end of test, see test pictures."

File: Oak_Flooring_Cone_HF75Scalar_220914_R2.csv
LABORATORY,FSRI
TEST IDENT,Oak_Flooring_HF75_2
OPERATOR,Dow
MATERIAL,Oak flooring
ORIENTATION,Horizontal
HEAT FLUX,75
SURF AREA,0.01
C FACTOR,0.0421844
SPEC HOLDER DIFF,-566
SPECIMEN MASS,132.15
SCAN TIME,0.25
O2 DELAY TIME,11
CO DELAY TIME,11
CO2 DELAY TIME,8
FLOW FACTOR,1
SCAN COUNT,3829
TIME TO IGN,13
END OF TEST SCAN,3349
END OF TEST TIME,837.25
TEST STATUS,1
PRE TEST CMT,Dimensions: 101.36 x 101.43 x 18.47 mm; with tie wires; joint between boards centered on sample