Folder: fsri_materials_database/01_Data/Oak_HWF/Cone (part 2)

File: Oak_Flooring_Cone_HF50Scan_220526_R1.csv
Names,Time,Stack TC,Smoke TC,Exh Press,Smoke Comp,Smoke Meas,CO Meter,CO2 Meter,O2 Meter,Sample Mass,Ext Coeff,Start Test,Flame Verif
Chan Gain,,500,500,1,1,1,1,1,1,1,1,1.0,1.0
Offset,,0,0,0.138731,0,0,0,0,0,0,0,0.0,0.0
Gain,,1,1,25.011,13.8491,15.2622,1,1,1,1.00087,1.03118,1.0,1.0
Units,sec,C,C,Pa,%,%,%,%,%,g,/m,,
Baseline,,39.1827,40.6469,140.009,105.606,106.058,0.00120305,0.0489773,20.9854,-451.935,-0.0385633,,
110,27.25,37.0649,38.5277,135.632,104.701,103.793,0.00219672,0.0554231,20.9824,208.191,0.0787638,0.0,0.0
220,54.75,57.6508,54.3737,116.664,104.797,87.5065,0.0230822,0.795122,20.0478,203.307,1.63104,0.0,0.0
330,82.25,66.8101,68.3084,124.918,104.8,104.56,0.00799085,0.438065,20.539,198.313,0.0207282,0.0,0.0
440,109.75,65.6917,69.461,126.196,104.686,105.551,0.006766,0.374257,20.6122,194.449,-0.0743857,0.0,0.0
550,137.25,64.2945,70.0919,126.89,105.314,106.385,0.00593002,0.351542,20.6384,190.936,-0.0915646,0.0,0.0
660,164.75,63.1667,68.7298,126.759,105.422,107.468,0.00462969,0.32395,20.6724,187.683,-0.17381,0.0,0.0
770,192.25,61.8267,66.9122,128.378,105.811,108.182,0.00442142,0.287371,20.7133,184.871,-0.200408,0.0,0.0
880,219.75,59.7903,64.9066,128.492,105.261,107.216,0.00414156,0.262128,20.7438,182.189,-0.166402,0.0,0.0
990,247.25,58.0712,62.9828,131.021,103.971,106.488,0.00457958,0.245213,20.7634,179.726,-0.216342,0.0,0.0
1100,274.75,57.2986,60.8973,131.259,105.189,107.96,0.00419707,0.241731,20.7677,177.284,-0.235153,0.0,0.0
1210,302.25,57.0247,60.2954,132.295,104.783,106.878,0.00450208,0.239835,20.7721,174.782,-0.179073,0.0,0.0
1320,329.75,56.7424,59.7381,127.592,105.544,108.218,0.00529133,0.243669,20.7646,172.33,-0.226344,0.0,0.0
1430,357.25,56.7518,60.3707,130.693,105.686,108.195,0.00480699,0.238664,20.7717,169.838,-0.212275,0.0,0.0
1540,384.75,57.0898,59.6414,132.213,105.541,108.002,0.0048766,0.24065,20.7667,167.546,-0.20848,0.0,0.0
1650,412.25,57.0475,59.9353,132.96,104.488,106.835,0.00460066,0.242677,20.7652,165.044,-0.200912,0.0,0.0
1760,439.75,57.0711,59.8851,129.939,104.174,106.875,0.00450225,0.243324,20.7655,162.531,-0.231565,0.0,0.0
1870,467.25,56.4954,59.4283,130.66,104.338,107.122,0.0049195,0.232564,20.7769,160.119,-0.238206,0.0,0.0
1980,494.75,56.2023,59.0149,135.3,104.948,107.107,0.00475564,0.225153,20.7856,157.747,-0.184192,0.0,0.0
2090,522.25,55.7738,58.5178,130.516,105.669,108.313,0.00428386,0.223043,20.7869,155.485,-0.223493,0.0,0.0
2200,549.75,55.2553,58.1391,131.318,105.721,108.722,0.0043828,0.224156,20.7877,153.203,-0.25317,0.0,0.0
2310,577.25,55.3665,57.7927,129.557,105.166,107.648,0.00404476,0.22485,20.7871,150.971,-0.210969,0.0,0.0
2420,604.75,55.4126,57.9494,131.695,104.6875,108.102,0.00375949,0.227466,20.7838,148.82,-0.290331,0.0,0.0
2530,632.25,55.6134,58.4967,133.664,105.141,108.219,0.00376295,0.230693,20.7783,146.628,-0.261044,0.0,0.0
2640,659.75,55.7905,58.5512,128.693,104.814,107.898,0.003429,0.239648,20.7721,144.416,-0.262332,0.0,0.0
2750,687.25,56.5432,59.4694,131.694,104.396,107.53,0.00314095,0.251273,20.7598,142.044,-0.267501,0.0,0.0
2860,714.75,57.4181,59.9287,124.083,104.549,107.263,0.00264869,0.26309,20.7446,139.612,-0.231813,0.0,0.0
2970,742.25,58.524,61.1612,130.276,104.702,107.272,0.00284479,0.289158,20.7137,136.949,-0.219295,0.0,0.0
3080,769.75,60.0702,62.9378,125.653,104.9,107.538,0.00271409,0.30887,20.6938,134.177,-0.224658,0.0,0.0
3190,797.25,62.6161,65.7406,124.789,105.175,107.363,0.00311648,0.340919,20.6568,131.174,-0.1863,0.0,0.0
3300,824.75,65.8651,68.0457,125.946,105.001,107.132,0.00309416,0.384242,20.608,127.881,-0.181764,0.0,0.0
3410,852.25,68.8644,72.0205,120.462,105.323,106.852,0.00320254,0.430692,20.552,124.168,-0.130357,0.0,0.0
3520,879.75,73.2334,76.3195,119.866,105.348,105.603,0.00388939,0.491125,20.4789,119.994,-0.0218875,0.0,0.0
3630,907.25,77.1121,81.1564,117.335,105.608,104.846,0.00478434,0.551206,20.4023,115.37,0.0655065,0.0,0.0
3740,934.75,82.0288,86.0405,120.988,103.923,102.845,0.00523677,0.59097,20.3531,110.516,0.0943464,0.0,0.0
3850,962.25,83.9829,89.4021,119.838,104.68,102.955,0.00543069,0.572695,20.3664,105.632,0.150331,0.0,0.0
3960,989.75,84.5163,90.2972,121.279,105.163,102.606,0.00569733,0.531264,20.4062,101.158,0.222684,0.0,0.0
4070,1017.25,81.7068,87.8652,119.611,105.17,102.866,0.00468827,0.466039,20.4823,97.2747,0.200379,0.0,0.0
4180,1044.75,76.4429,83.5655,129.964,105.135,105.59,0.0033155,0.323896,20.6488,94.3521,-0.039078,0.0,0.0
4290,1072.25,66.7424,73.5234,131.007,104.928,107.969,0.00278149,0.1806,20.8152,93.041,-0.258422,0.0,0.0
4400,1099.75,59.2104,64.9024,131.736,104.634,107.638,0.00391882,0.143811,20.8582,92.2503,-0.255993,0.0,0.0
4510,1127.25,54.4219,58.7471,133.552,104.073,107.346,0.00382905,0.130809,20.8726,91.6298,-0.280109,0.0,0.0
4620,1154.75,51.6128,54.8848,132.619,103.895,106.407,0.00409981,0.123853,20.8818,91.0493,-0.216153,0.0,0.0
4730,1182.25,49.5622,52.0173,138.401,104.972,107.317,0.00451612,0.118261,20.8891,90.5288,-0.199875,0.0,0.0
4840,1209.75,48.3314,50.2802,135.777,105.813,108.766,0.00462636,0.115906,20.8916,90.0784,-0.248969,0.0,0.0
4950,1237.25,47.1899,48.9876,136.539,105.351,107.485,0.00469058,0.11387,20.8968,89.7581,-0.181427,0.0,0.0
5060,1264.75,46.8276,48.1163,137.251,105.311,107.941,0.00487643,0.112828,20.8983,89.3778,-0.223134,0.0,0.0
5170,1292.25,46.5486,47.3189,137.808,105.565,107.849,0.00492398,0.11098,20.9001,89.0475,-0.193611,0.0,0.0
5280,1319.75,45.9012,46.7448,140.294,105.775,107.942,0.00498993,0.109494,20.9024,88.6972,-0.1834,0.0,0.0
5390,1347.25,45.4902,46.465,139.45,105.855,108.361,0.00534984,0.108572,20.9066,88.3669,-0.211669,0.0,0.0
5500,1374.75,45.2377,46.1829,134.841,105.859,108.553,0.00537396,0.107168,20.907,87.9766,-0.227309,0.0,0.0
5610,1402.25,44.3586,46.019,135.51,105.821,107.312,0.00578377,0.106686,20.9096,87.6563,-0.126539,0.0,0.0
5720,1429.75,44.1932,45.437,133.031,105.001,107.924,0.00577385,0.105285,20.911,87.4161,-0.248375,0.0,0.0
5830,1457.25,43.9,45.6905,135.416,103.898,106.152,0.00580577,0.105053,20.9146,87.2059,-0.194132,0.0,0.0
5940,1484.75,44.447,45.1963,136.192,104.662,107.256,0.00575157,0.105434,20.9147,86.9957,-0.221469,0.0,0.0
6050,1512.25,43.7901,45.0522,137.518,105.11,107.29,0.00578291,0.105139,20.9147,86.7956,-0.185699,0.0,0.0
6160,1539.75,43.3967,44.6876,134.194,105.182,106.61,0.00616492,0.104139,20.9182,86.5353,-0.122005,0.0,0.0
6270,1567.25,42.812,44.202,138.136,105.149,107.357,0.00615675,0.103393,20.9213,86.215,-0.188007,0.0,0.0
6380,1594.75,42.9591,44.1075,139.906,105.139,106.998,0.00660557,0.10314,20.918,85.9148,-0.158497,0.0,0.0
6490,1622.25,42.8387,44.0021,141.23,105.027,106.599,0.00699459,0.102014,20.9222,85.6646,-0.134369,0.0,0.0
6600,1649.75,41.7621,44.117,136.608,104.437,106.514,0.00700526,0.103076,20.9212,85.3943,-0.178167,0.0,0.0
6710,1677.25,42.4218,43.4365,141.749,103.853,106.379,0.00721818,0.102155,20.9246,85.2242,-0.217381,0.0,0.0
6820,1704.75,42.2213,43.1467,130.886,104.369,105.724,0.00709398,0.101894,20.925,85.054,-0.116652,0.0,0.0
6930,1732.25,41.8542,43.2232,136.11,105.76,107.787,0.00746193,0.101384,20.9247,84.8138,-0.171734,0.0,0.0
7040,1759.75,41.7719,43.52,139.094,105.138,106.647,0.00746331,0.100783,20.9254,84.5436,-0.128907,0.0,0.0
7150,1787.25,41.4692,43.1074,137.696,105.006,106.401,0.00777008,0.0999349,20.9278,84.3034,-0.119376,0.0,0.0
7260,1814.75,41.587,42.5907,139.5,105.113,107.347,0.00798937,0.100352,20.9288,84.0031,-0.190234,0.0,0.0
7370,1842.25,41.7019,42.8563,139.237,104.468,106.691,0.00816226,0.0993593,20.9277,83.7129,-0.190478,0.0,0.0
7480,1869.75,41.2579,42.7817,134.63,104.173,105.952,0.0082961,0.0990479,20.9308,83.5227,-0.153167,0.0,0.0
7590,1897.25,41.2469,43.0065,140.338,104.177,105.549,0.00865444,0.0983231,20.93,83.3426,-0.118375,0.0,0.0
7700,1924.75,41.1226,42.7076,139.434,104.266,105.112,0.00847108,0.0968802,20.9331,83.1424,-0.0731164,0.0,0.0
7810,1952.25,41.4284,43.1413,136.533,104.308,106.47,0.00899369,0.0979037,20.9291,82.9222,-0.185581,0.0,0.0
7920,1979.75,41.3342,42.9652,137.173,104.338,105.045,0.00880726,0.0962823,20.934,82.722,-0.0611119,0.0,0.0
8030,2007.25,41.2657,42.7281,138.596,104.651,106.368,0.00933318,0.0965628,20.9329,82.4718,-0.147235,0.0,0.0
8140,2034.75,41.2302,42.9731,137.378,105.162,107.301,0.00926019,0.0964965,20.9355,82.1615,-0.18209,0.0,0.0
8250,2062.25,41.1761,42.8698,135.326,104.854,106.529,0.00956737,0.0963623,20.9314,81.9413,-0.143375,0.0,0.0
8360,2089.75,41.1446,42.9247,135.897,105.258,106.827,0.00925465,0.0962016,20.9336,81.7211,-0.133859,0.0,0.0
8470,2117.25,41.3058,43.0619,140.706,105.02,107.024,0.00959259,0.0966216,20.9339,81.591,-0.171036,0.0,0.0
8580,2144.75,41.0803,43.4515,137.812,105.74,107.58,0.00931558,0.0964136,20.9338,81.4609,-0.156023,0.0,0.0
8690,2172.25,40.6524,42.9258,138.288,105.78,107.24,0.00910829,0.097126,20.9347,81.2707,-0.124067,0.0,0.0
8800,2199.75,41.025,42.686,137.488,105.737,106.415,0.00916404,0.0963356,20.9367,81.0105,-0.0578339,0.0,0.0
8910,2227.25,40.9827,42.4692,137.626,105.788,107.607,0.00932501,0.095668,20.9372,80.8304,-0.154207,0.0,0.0
9020,2254.75,40.9156,42.7366,133.334,105.709,107.087,0.00936583,0.0960616,20.9366,80.4801,-0.117131,0.0,0.0
9130,2282.25,40.8898,42.7214,138.077,105.242,106.655,0.00916205,0.0954017,20.9399,80.2699,-0.120602,0.0,0.0
9240,2309.75,40.6144,42.3807,134.996,105.165,106.598,0.00919266,0.0953279,20.9381,80.0997,-0.122428,0.0,0.0
9350,2337.25,40.7815,42.3879,144.27,105.082,106.816,0.00948684,0.0949838,20.937,79.9896,-0.148074,0.0,0.0
9460,2364.75,40.7304,41.9591,134.762,104.756,105.524,0.009253,0.0948236,20.9374,79.7694,-0.0660501,0.0,0.0
9570,2392.25,40.7523,42.8098,138.979,105.108,106.47,0.00957478,0.0951903,20.939,79.5493,-0.116501,0.0,0.0
9680,2419.75,40.6492,42.3799,140.362,104.456,105.906,0.00876222,0.0943899,20.9398,79.3591,-0.124714,0.0,0.0
9790,2447.25,40.7681,42.312,135.939,103.805,105.552,0.00903461,0.0946712,20.9403,79.0989,-0.151006,0.0,0.0
9900,2474.75,40.577,42.3377,138.066,104.813,105.963,0.00927015,0.0944172,20.9402,78.8386,-0.0986564,0.0,0.0
10010,2502.25,38.6166,40.6303,139.199,105.748,106.668,0.00942031,0.0948506,20.9419,78.6585,-0.0782907,0.0,0.0
10120,2529.75,39.1093,40.9911,137.685,105.174,106.335,0.00954254,0.0948004,20.9413,78.4383,-0.0993492,0.0,0.0
10230,2557.25,38.9068,40.6512,135.113,105.416,106.759,0.00923944,0.0942281,20.942,78.3382,-0.114489,0.0,0.0
10340,2584.75,39.316,41.1236,137.801,104.477,105.648,0.00920641,0.094124,20.942,78.118,-0.100782,0.0,0.0
10441,2610,39.4356,41.5447,137.732,104.974,106.004,,,,77.8278,-0.0883056,0.0,0.0

File: Oak_Flooring_Cone_HF50Scan_220526_R2.csv
Names,Time,Stack TC,Smoke TC,Exh Press,Smoke Comp,Smoke Meas,CO Meter,CO2 Meter,O2 Meter,Sample Mass,Ext Coeff,Start Test,Flame Verif
Chan Gain,,500,500,1,1,1,1,1,1,1,1,1.0,1.0
Offset,,0,0,0.138731,0,0,0,0,0,0,0,0.0,0.0
Gain,,1,1,25.011,13.8491,15.2622,1,1,1,1.00087,1.03118,1.0,1.0
Units,sec,C,C,Pa,%,%,%,%,%,g,/m,,
Baseline,,39.4162,40.94,140.268,104.56,105.039,0.00110028,0.0456002,21.0019,-451.917,-0.0412755,,
68,16.75,35.4905,37.0051,141.872,105.773,105.58,0.000924563,0.0467747,21.0041,186.833,0.0165013,0.0,0.0
136,33.75,40.3955,38.9613,112.583,105.445,82.9522,0.0172293,0.48551,20.478,185.001,2.17026,0.0,1.0
204,50.75,62.3106,60.6677,124.349,104.904,92.5796,0.0152487,0.690973,20.2111,180.887,1.13047,0.0,0.0
272,67.75,65.242,66.5411,123.777,105.432,105.419,0.00601038,0.425364,20.5606,178.075,0.00110735,0.0,0.0
340,84.75,64.1287,67.3721,124.933,105.246,105.853,0.00488617,0.358377,20.6466,175.903,-0.0520358,0.0,0.0
408,101.75,62.8344,66.9461,131.593,104.601,106.446,0.00462207,0.329502,20.6813,173.931,-0.158123,0.0,0.0
476,118.75,61.2785,65.9808,127.792,104.707,106.233,0.00471685,0.296365,20.7167,172.05,-0.130887,0.0,0.0
544,135.75,59.6521,64.5355,132.376,104.952,106.777,0.00443317,0.270963,20.7474,170.288,-0.1559,0.0,0.0
612,152.75,57.9657,63.6874,130.931,105.056,107.343,0.0045061,0.262277,20.7574,168.707,-0.194868,0.0,0.0
680,169.75,57.489,61.9125,130.249,104.797,106.602,0.00410449,0.259327,20.7604,167.166,-0.154469,0.0,0.0
748,186.75,56.6844,61.8563,126.807,104.353,106.036,0.00431728,0.258458,20.7644,165.644,-0.144742,0.0,0.0
816,203.75,56.1767,60.5918,129.479,103.948,106.093,0.00401255,0.250878,20.7684,163.973,-0.184755,0.0,0.0
884,220.75,56.3317,60.4565,133.627,103.688,106.377,0.00431735,0.247041,20.7742,162.401,-0.23163,0.0,0.0
952,237.75,55.7614,59.3037,132.469,103.77,105.845,0.00425462,0.242379,20.7785,160.97,-0.179059,0.0,0.0
1020,254.75,55.2523,59.3826,135.21,104.055,106.05,0.00442794,0.242476,20.7787,159.539,-0.171798,0.0,0.0
1088,271.75,55.3704,58.7723,132.389,104.731,106.176,0.00452484,0.239392,20.7827,158.128,-0.124,0.0,0.0
1156,288.75,55.0673,58.1821,128.93,105.358,107.647,0.00434392,0.238347,20.7833,156.596,-0.194441,0.0,0.0
1224,305.75,54.7042,57.7237,127.551,105.734,107.518,0.00426774,0.232228,20.7903,155.135,-0.151392,0.0,0.0
1292,322.75,55.0031,58.1915,130.324,105.643,108.105,0.00427965,0.23129,20.7901,153.854,-0.208407,0.0,0.0
1360,339.75,54.1391,57.1904,134.994,105.275,107.764,0.00423532,0.228467,20.7954,152.413,-0.211413,0.0,0.0
1428,356.75,54.0487,57.5223,126.126,104.9,106.573,0.00460301,0.225426,20.7967,150.971,-0.143195,0.0,0.0
1496,373.75,54.0283,57.9724,131.295,105.333,107.499,0.00415674,0.223818,20.7994,149.56,-0.184088,0.0,0.0
1564,390.75,54.01,56.9258,131.167,105.445,107.848,0.00417631,0.220148,20.8071,148.209,-0.203785,0.0,0.0
1632,407.75,53.4239,56.7053,132.9,105.179,107.873,0.00409369,0.219551,20.8066,146.888,-0.228727,0.0,0.0
1700,424.75,53.4822,56.5053,130.608,104.543,107.372,0.00393879,0.219184,20.8079,145.537,-0.241587,0.0,0.0
1768,441.75,53.5779,56.6496,132.995,104.674,106.675,0.00384765,0.220614,20.8043,144.095,-0.171294,0.0,0.0
1836,458.75,53.6104,56.6642,134.077,104.879,107.305,0.00377726,0.223916,20.8033,142.794,-0.206834,0.0,0.0
1904,475.75,53.8279,56.4959,130.593,105.006,107.407,0.00315333,0.228935,20.7948,141.483,-0.204538,0.0,0.0
1972,492.75,54.1178,56.9287,132.176,105.024,107.222,0.0030865,0.233493,20.7888,140.052,-0.187387,0.0,0.0
2040,509.75,54.332,57.2209,134.246,104.849,106.388,0.00352454,0.233039,20.79,138.591,-0.131746,0.0,0.0
2108,526.75,54.7729,57.4115,128.05,104.554,107.088,0.00355904,0.23607,20.7891,137.149,-0.216594,0.0,0.0
2176,543.75,54.8013,57.5595,129.938,104.381,106.198,0.00325008,0.239505,20.7838,135.708,-0.156064,0.0,0.0
2244,560.75,55.1324,57.4223,130.64,104.77,107.321,0.00363922,0.239683,20.7836,134.377,-0.21758,0.0,0.0
2312,577.75,54.9286,57.9092,129.149,105.056,107.674,0.00318089,0.241759,20.7832,132.926,-0.222616,0.0,0.0
2380,594.75,55.5667,58.2797,128.883,104.924,107.595,0.00306311,0.245137,20.7767,131.414,-0.227362,0.0,0.0
2448,611.75,55.5101,58.2095,131.427,104.674,106.866,0.00295927,0.253435,20.7675,129.963,-0.187432,0.0,0.0
2516,628.75,56.7581,58.7894,129.09,105.101,107.588,0.00274666,0.259042,20.7617,128.562,-0.211557,0.0,0.0
2584,645.75,57.5782,60.6618,132.548,105.458,107.588,0.00278364,0.269671,20.7489,127.021,-0.180873,0.0,0.0
2652,662.75,58.0629,61.4857,130.207,105.182,107.453,0.00280772,0.279638,20.7406,125.379,-0.193176,0.0,0.0
2720,679.75,59.1013,61.7756,126.521,105.788,108.245,0.00298075,0.293597,20.7251,123.698,-0.207688,0.0,0.0
2788,696.75,59.7256,62.6945,125.103,105.357,107.465,0.00269469,0.308257,20.7068,122.056,-0.179194,0.0,0.0
2856,713.75,60.7919,63.7265,128.02,104.013,106.423,0.00285664,0.321961,20.6907,120.245,-0.207162,0.0,0.0
2924,730.75,61.9476,64.8983,124.517,104.016,106.22,0.00278756,0.337159,20.6724,118.333,-0.189628,0.0,0.0
2992,747.75,63.7654,66.7096,124.216,104.981,106.516,0.00270762,0.353354,20.6533,116.461,-0.131336,0.0,0.0
3060,764.75,64.5302,67.2635,125.699,104.86,107.036,0.00298796,0.359801,20.6439,114.5,-0.185755,0.0,0.0
3128,781.75,65.7055,68.9003,128.794,105.012,106.944,0.00303779,0.370006,20.6315,112.458,-0.164955,0.0,0.0
3196,798.75,66.745,69.9521,126.454,105.264,106.932,0.00272393,0.385998,20.6137,110.426,-0.142147,0.0,0.0
3264,815.75,67.7604,71.2645,123.954,105.423,106.619,0.00312226,0.397396,20.5956,108.214,-0.102025,0.0,0.0
3332,832.75,68.438,72.5561,120.673,105.768,106.432,0.0032438,0.407392,20.5844,106.082,-0.0566234,0.0,0.0
3400,849.75,69.4745,73.6887,122.386,105.426,105.731,0.00352973,0.409065,20.5819,103.961,-0.026137,0.0,0.0
3468,866.75,69.9486,73.6417,122.094,104.821,105.779,0.00318286,0.402898,20.5859,101.869,-0.0822447,0.0,0.0
3536,883.75,70.102,74.7586,124.245,104.399,105.131,0.00354215,0.397466,20.5884,99.6968,-0.0631775,0.0,0.0
3604,900.75,69.9669,74.4769,129.629,104.147,104.668,0.00321164,0.390863,20.5911,97.7151,-0.0451067,0.0,0.0
3672,917.75,70.0138,74.2246,124.192,104.167,104.9,0.00311018,0.393216,20.5865,95.8034,-0.0633681,0.0,0.0
3740,934.75,69.824,73.834,124.99,104.196,104.67,0.00336798,0.378744,20.5978,93.8917,-0.0410914,0.0,0.0
3808,951.75,68.3996,72.9916,128.578,104.312,104.684,0.00315547,0.31346,20.6715,92.2603,-0.0322107,0.0,0.0
3876,968.75,63.9527,69.12,128.983,104.459,106.34,0.00265269,0.204825,20.7951,91.3495,-0.161383,0.0,0.0
3944,985.75,59.8131,64.9739,129.842,104.65,106.861,0.0027471,0.167411,20.8404,90.719,-0.189081,0.0,0.0
4012,1002.75,56.3027,60.8304,131.154,105.013,107.36,0.00325396,0.150454,20.8598,90.3286,-0.199921,0.0,0.0
4080,1019.75,53.9549,57.8754,136.65,105.44,107.324,0.0030638,0.138008,20.8729,89.9083,-0.160165,0.0,0.0
4148,1036.75,51.934,55.2482,133.604,105.736,108.644,0.00380211,0.131137,20.8821,89.4679,-0.245392,0.0,0.0
4216,1053.75,50.3975,53.6647,137.529,105.735,108.253,0.00402533,0.126566,20.8887,89.1376,-0.212831,0.0,0.0
4284,1070.75,48.89,51.5982,138.841,105.633,108.09,0.00386753,0.123409,20.8947,88.9675,-0.207995,0.0,0.0
4352,1087.75,48.3366,51.2446,141.09,105.485,108.226,0.00408962,0.120229,20.899,88.6472,-0.23204,0.0,0.0
4420,1104.75,47.248,49.2611,134.987,105.304,107.973,0.00393318,0.118252,20.9013,88.2969,-0.226405,0.0,0.0
4488,1121.75,47.1924,49.0603,135.682,105.132,106.927,0.00431335,0.116021,20.9009,88.0266,-0.153167,0.0,0.0
4556,1138.75,45.8577,48.2977,135.958,104.963,106.675,0.00421808,0.114678,20.9046,87.8765,-0.14634,0.0,0.0
4624,1155.75,45.6344,47.2179,131.957,105.145,107.619,0.00457411,0.112669,20.9089,87.6863,-0.210399,0.0,0.0
4692,1172.75,44.9331,46.8504,136.316,105.392,107.043,0.00440818,0.112149,20.9114,87.4261,-0.140636,0.0,0.0
4760,1189.75,44.4863,45.9106,140.627,105.33,107.946,0.00460221,0.110833,20.9129,87.0858,-0.221852,0.0,0.0
4828,1206.75,44.2709,45.9526,136.325,104.998,106.688,0.00495033,0.109447,20.9132,86.9157,-0.144426,0.0,0.0
4896,1223.75,44.2894,45.3703,138.164,104.502,106.123,0.00495961,0.109143,20.9165,86.8156,-0.139245,0.0,0.0
4964,1240.75,43.8855,45.2614,137.532,104.724,106.782,0.00487616,0.107834,20.9153,86.6354,-0.176061,0.0,0.0
5032,1257.75,43.0318,45.2276,131.299,104.942,106.843,0.00543288,0.106812,20.9163,86.2951,-0.162411,0.0,0.0
5100,1274.75,43.1415,44.4796,137.125,105.023,106.096,0.00540781,0.106069,20.9187,86.145,-0.0919835,0.0,0.0
5168,1291.75,43.2067,44.1575,135.788,104.958,105.963,0.00515826,0.106131,20.9177,86.0649,-0.0862271,0.0,0.0
5236,1308.75,42.9155,44.2478,134.761,104.791,106.335,0.00569732,0.104803,20.9242,85.9048,-0.132226,0.0,0.0
5304,1325.75,42.2041,43.9188,137.415,104.493,106.625,0.00568781,0.104477,20.9243,85.6546,-0.182707,0.0,0.0
5372,1342.75,42.4353,44.1185,136.574,104.099,105.658,0.00592539,0.104318,20.9238,85.4344,-0.134469,0.0,0.0
5440,1359.75,41.9996,43.9888,135.084,103.852,104.902,0.0060416,0.1037,20.9262,85.3343,-0.0910658,0.0,0.0
5508,1376.75,42.3784,43.5548,135.318,103.704,105.198,0.0056649,0.103365,20.9245,85.2342,-0.129426,0.0,0.0
5576,1393.75,41.5825,44.0435,137.374,103.663,105.485,0.00612868,0.103363,20.925,85.064,-0.157602,0.0,0.0
5644,1410.75,41.8101,43.5688,134.236,103.724,104.247,0.00633062,0.102573,20.9284,84.7538,-0.0455055,0.0,0.0
5712,1427.75,41.9254,43.9554,135.53,103.9,105.887,0.00645018,0.101614,20.9286,84.7538,-0.171379,0.0,0.0
5780,1444.75,42.1874,42.835,136.577,104.043,105.824,0.00679855,0.102044,20.9278,84.5836,-0.153536,0.0,0.0
5848,1461.75,41.8196,43.2624,138.951,104.358,106.043,0.00676174,0.101733,20.9273,84.4635,-0.144901,0.0,0.0
5916,1478.75,42.008,43.0227,139.535,104.68,105.746,0.00709949,0.101787,20.9314,84.1933,-0.0916458,0.0,0.0
5984,1495.75,41.4353,43.344,134.74,105.009,106.033,0.00713129,0.10051,20.9331,84.0331,-0.087747,0.0,0.0
6052,1512.75,39.5733,40.7722,133.557,105.424,106.286,0.00734461,0.100956,20.9313,83.9931,-0.073616,0.0,0.0
6120,1529.75,39.8978,41.3038,138.388,105.699,106.753,0.00739917,0.10024,20.9331,83.853,-0.089786,0.0,0.0
6188,1546.75,39.5487,41.3521,135.17,105.67,107.667,0.00763175,0.101255,20.9331,83.5627,-0.169309,0.0,0.0
6256,1563.75,39.4742,41.6442,140.556,105.373,106.787,0.00788494,0.100258,20.9321,83.4326,-0.12056,0.0,0.0
6324,1580.75,39.2144,41.0939,137.647,105.084,106.479,0.00769977,0.100229,20.9319,83.4126,-0.119293,0.0,0.0
6392,1597.75,39.1911,41.192,140.212,104.878,105.413,0.00783532,0.0995295,20.9334,83.2725,-0.0460756,0.0,0.0
6460,1614.75,39.8118,40.8734,139.85,105.211,106.538,,,,82.9822,-0.11337,0.0,0.0
6486,1621.25,39.366,40.9875,136.026,105.324,106.959,,,,82.9422,-0.139388,0.0,0.0