Folder: fsri_materials_database/01_Data/Oak_HWF/MCC

Note: 01_Data/README.md
# Materials and Products Database
## 01_Data

Raw data generated from each apparatus are included here in plain-text format. The data is organized first by material, next by the short name of test apparatus used, and where applicable additional filtering by test settings.

### material.json

Each material directory contains a json file of the same name as the material. This file links the data stored in the repository as well as data and graphs produced by the accompanying scripts (__02_Scripts__) to the respective landing page for the material on the front-end website.

File: Oak_HWF_MCC_30K_min_211104_R1.txt
Sample ID:	C:\MCC\MCC Cal\Test\Oak_HWF_MCC_30K_min_211104_R3.txt
Sample Weight (mg):	4.33
Heating Rate (C/s):	0.5
Combustor Temp (C):	900
N2 Flow Rate (cc/min):	80
O2 Flow Rate (cc/min):	20
Calibration File:	C:\MCC\MCC Cal\Coeff1 JN10440_30_210304.txt.txt
T Correction Coefficients:	0	1.024463	0
Time Shift (s):	14
*
Time (s)	Temperature (C)	N2 flow rate (cc/min)	O2 flow rate (cc/min)	Flow Rate (cc/min)	Oxygen (%)	HRR (W/g)	Heating rate (C/s)
0.000	107.548	80.006	19.994	103.082	19.936	0.109	-0.010
8.001	107.524	80.006	19.995	103.062	19.934	0.247	0.001
16.000	107.499	80.004	19.995	103.084	19.935	0.141	-0.036
24.000	107.528	80.005	19.995	103.098	19.935	0.181	-0.014
32.000	107.628	80.005	19.994	103.180	19.917	1.507	0.041
40.000	108.187	80.006	19.994	103.256	19.903	2.554	0.083
48.000	109.205	80.004	19.995	103.260	19.896	3.072	0.150
56.000	110.717	80.006	19.995	103.287	19.889	3.589	0.232
64.000	112.546	80.007	19.995	103.316	19.886	3.779	0.269
72.000	114.739	80.006	19.994	103.330	19.882	4.098	0.300
80.000	117.322	80.005	19.995	103.334	19.884	3.951	0.341
88.000	120.149	80.007	19.994	103.335	19.880	4.240	0.356
96.001	123.327	80.005	19.995	103.328	19.882	4.126	0.426
104.000	126.617	80.004	19.995	103.327	19.880	4.220	0.453
112.000	130.033	80.005	19.996	103.325	19.880	4.248	0.425
120.000	133.592	80.006	19.995	103.332	19.879	4.352	0.445
128.000	137.286	80.006	19.995	103.331	19.878	4.387	0.462
136.000	141.138	80.004	19.994	103.334	19.881	4.178	0.496
144.000	145.060	80.007	19.994	103.327	19.882	4.107	0.474
152.000	149.017	80.005	19.994	103.319	19.882	4.057	0.505
160.000	153.004	80.006	19.994	103.297	19.884	3.916	0.495
168.000	156.941	80.008	19.994	103.315	19.881	4.176	0.484
176.000	160.963	80.008	19.995	103.318	19.882	4.081	0.524
184.000	164.986	80.006	19.995	103.293	19.883	3.991	0.493
192.000	169.006	80.004	19.994	103.291	19.881	4.154	0.498
200.000	173.051	80.004	19.996	103.292	19.886	3.775	0.498
208.000	177.084	80.004	19.996	103.292	19.890	3.485	0.504
216.000	181.150	80.004	19.995	103.282	19.889	3.604	0.492
224.000	185.123	80.005	19.994	103.280	19.888	3.647	0.488
232.000	189.050	80.007	19.994	103.269	19.887	3.693	0.487
240.000	192.970	80.007	19.995	103.278	19.889	3.558	0.503
248.000	196.881	80.007	19.994	103.279	19.886	3.765	0.484
256.000	200.752	80.008	19.993	103.264	19.881	4.134	0.474
264.000	204.617	80.005	19.994	103.277	19.879	4.295	0.458
272.000	208.564	80.005	19.996	103.275	19.872	4.832	0.475
280.000	212.455	80.006	19.996	103.283	19.871	4.922	0.459
288.000	216.356	80.006	19.996	103.273	19.865	5.395	0.462
296.000	220.356	80.005	19.996	103.285	19.861	5.638	0.510
304.000	224.361	80.006	19.995	103.271	19.851	6.370	0.476
312.000	228.330	80.007	19.995	103.282	19.848	6.595	0.484
320.001	232.337	80.006	19.995	103.273	19.838	7.347	0.492
328.000	236.338	80.006	19.995	103.277	19.832	7.832	0.496
336.000	240.304	80.007	19.994	103.284	19.822	8.596	0.483
344.000	244.264	80.007	19.996	103.285	19.815	9.061	0.468
352.000	248.182	80.005	19.995	103.294	19.794	10.650	0.513
360.000	252.195	80.005	19.995	103.288	19.780	11.683	0.499
368.000	256.101	80.005	19.995	103.279	19.762	12.997	0.427
376.000	260.017	80.004	19.997	103.299	19.736	14.947	0.456
384.001	263.982	80.004	19.995	103.323	19.709	16.959	0.500
392.000	267.910	80.005	19.995	103.329	19.681	19.061	0.491
400.000	271.925	80.007	19.997	103.334	19.645	21.727	0.519
408.000	275.944	80.008	19.995	103.362	19.612	24.203	0.492
416.000	279.989	80.006	19.994	103.371	19.573	27.091	0.488
424.000	283.960	80.008	19.994	103.364	19.533	30.092	0.497
432.000	287.952	80.006	19.995	103.373	19.498	32.732	0.481
440.000	291.893	80.005	19.996	103.384	19.462	35.377	0.480
448.000	295.818	80.005	19.995	103.395	19.435	37.397	0.500
456.000	299.811	80.005	19.995	103.406	19.405	39.615	0.512
464.000	303.735	80.005	19.995	103.411	19.378	41.650	0.481
472.000	307.677	80.005	19.995	103.410	19.358	43.178	0.489
480.000	311.593	80.006	19.994	103.413	19.331	45.125	0.496
488.000	315.588	80.004	19.995	103.411	19.311	46.639	0.523
496.000	319.498	80.006	19.995	103.443	19.279	49.027	0.466
504.000	323.485	80.008	19.995	103.443	19.241	51.866	0.456
512.001	327.515	80.006	19.994	103.450	19.199	55.058	0.465
520.000	331.594	80.004	19.994	103.484	19.146	59.014	0.504
528.000	335.658	80.004	19.995	103.488	19.092	63.039	0.490
536.000	339.610	80.006	19.995	103.504	19.031	67.577	0.524
544.000	343.599	80.006	19.994	103.529	18.988	70.769	0.511
552.000	347.564	80.005	19.995	103.526	18.943	74.116	0.499
560.000	351.595	80.008	19.996	103.530	18.931	74.977	0.511
568.000	355.672	80.005	19.994	103.503	18.951	73.467	0.494
576.000	359.759	80.005	19.995	103.447	19.004	69.509	0.528
584.000	363.821	80.008	19.995	103.388	19.108	61.685	0.518
592.000	367.959	80.007	19.996	103.333	19.249	51.206	0.537
600.000	372.104	80.005	19.996	103.263	19.410	39.219	0.510
608.000	376.322	80.005	19.994	103.236	19.565	27.687	0.535
616.000	380.603	80.005	19.994	103.224	19.681	19.033	0.548
624.000	384.881	80.006	19.995	103.212	19.746	14.167	0.559
632.000	389.067	80.006	19.995	103.212	19.781	11.608	0.498
640.000	393.247	80.006	19.994	103.207	19.795	10.524	0.519
648.000	397.397	80.007	19.993	103.207	19.814	9.175	0.539
656.000	401.478	80.007	19.995	103.207	19.813	9.201	0.526
664.000	405.538	80.006	19.994	103.205	19.824	8.378	0.519
672.001	409.559	80.008	19.994	103.182	19.829	8.001	0.528
680.000	413.550	80.007	19.995	103.197	19.835	7.605	0.488
688.000	417.434	80.006	19.997	103.190	19.839	7.253	0.506
696.000	421.346	80.004	19.995	103.174	19.844	6.883	0.486
704.000	425.182	80.007	19.995	103.201	19.849	6.562	0.467
712.000	429.159	80.006	19.994	103.196	19.850	6.496	0.470
720.000	433.257	80.005	19.994	103.199	19.856	6.006	0.517
728.000	437.438	80.009	19.993	103.201	19.863	5.533	0.517
736.000	441.581	80.007	19.994	103.199	19.866	5.274	0.506
744.000	445.797	80.006	19.993	103.212	19.867	5.204	0.541
752.000	449.947	80.008	19.994	103.187	19.871	4.941	0.530
760.000	454.087	80.009	19.996	103.172	19.869	5.083	0.508
768.000	458.174	80.005	19.995	103.174	19.871	4.891	0.537
776.001	462.263	80.006	19.995	103.197	19.877	4.467	0.514
784.000	466.308	80.006	19.996	103.190	19.876	4.527	0.492
792.000	470.435	80.004	19.995	103.191	19.875	4.606	0.518
800.000	474.551	80.004	19.994	103.192	19.876	4.531	0.541
808.000	478.754	80.005	19.993	103.186	19.874	4.682	0.530
816.000	482.955	80.007	19.995	103.199	19.880	4.206	0.529
824.000	487.155	80.007	19.996	103.177	19.880	4.250	0.533
832.000	491.382	80.007	19.994	103.176	19.885	3.857	0.545
840.000	495.553	80.009	19.994	103.176	19.882	4.120	0.492
848.000	499.632	80.008	19.995	103.172	19.884	3.970	0.497
856.000	503.717	80.007	19.995	103.175	19.879	4.323	0.515
864.000	507.697	80.007	19.995	103.174	19.882	4.080	0.476
872.000	511.651	80.006	19.996	103.172	19.884	3.938	0.481
880.000	515.586	80.005	19.996	103.169	19.877	4.439	0.502
888.000	519.539	80.006	19.995	103.169	19.887	3.699	0.513
896.000	523.489	80.007	19.995	103.173	19.888	3.632	0.505
904.000	527.403	80.007	19.994	103.172	19.889	3.568	0.496
912.000	531.455	80.006	19.994	103.170	19.885	3.831	0.514
920.000	535.528	80.008	19.994	103.176	19.885	3.855	0.513
928.000	539.600	80.008	19.993	103.173	19.886	3.815	0.513
936.000	543.845	80.005	19.994	103.176	19.884	3.939	0.513
944.000	548.208	80.006	19.996	103.182	19.883	4.026	0.572
952.000	552.636	80.006	19.996	103.174	19.886	3.779	0.541
960.000	557.132	80.007	19.995	103.172	19.883	4.006	0.564
968.000	561.662	80.006	19.996	103.171	19.878	4.389	0.590
976.000	566.050	80.006	19.997	103.174	19.886	3.801	0.566
984.000	570.498	80.007	19.994	103.168	19.886	3.769	0.596
992.000	574.901	80.006	19.994	103.168	19.885	3.869	0.576
1000.000	579.235	80.009	19.995	103.173	19.883	3.984	0.552
1008.000	583.486	80.008	19.994	103.175	19.881	4.187	0.517
1016.000	587.693	80.006	19.995	103.169	19.885	3.858	0.501
1024.000	591.817	80.006	19.995	103.164	19.885	3.846	0.493
1032.000	595.854	80.005	19.994	103.160	19.885	3.894	0.477
1040.000	599.687	80.007	19.995	103.143	19.885	3.870	0.449
1048.000	603.481	80.005	19.995	103.158	19.880	4.269	0.488
1056.001	607.208	80.006	19.995	103.164	19.887	3.715	0.433
1064.000	610.935	80.007	19.995	103.170	19.883	4.002	0.463
1072.000	614.638	80.006	19.996	103.164	19.887	3.733	0.473
1080.000	618.295	80.007	19.995	103.170	19.892	3.355	0.478
1088.001	622.040	80.009	19.995	103.172	19.879	4.329	0.466
1096.000	626.011	80.008	19.994	103.170	19.882	4.084	0.511
1104.000	630.132	80.006	19.994	103.170	19.881	4.196	0.538
1112.000	634.357	80.006	19.994	103.170	19.884	3.909	0.572
1120.000	638.603	80.006	19.993	103.176	19.881	4.148	0.555
1128.000	642.824	80.007	19.995	103.171	19.881	4.135	0.537
1136.000	646.968	80.004	19.995	103.172	19.884	3.955	0.504
1144.001	651.085	80.010	19.995	103.170	19.878	4.366	0.510
1152.000	655.067	80.009	19.995	103.161	19.883	4.032	0.485
1160.000	659.136	80.006	19.995	103.170	19.878	4.365	0.535
1168.000	663.410	80.009	19.996	103.169	19.882	4.120	0.523
1176.000	667.706	80.009	19.994	103.167	19.878	4.408	0.518
1184.001	671.981	80.005	19.994	103.170	19.884	3.924	0.497
1192.001	676.334	80.006	19.995	103.164	19.885	3.884	0.566
1200.001	680.521	80.005	19.994	103.175	19.879	4.316	0.511
1208.001	684.782	80.006	19.994	103.168	19.885	3.870	0.525
1216.000	688.926	80.007	19.995	103.165	19.880	4.267	0.498
1224.001	693.072	80.007	19.994	103.163	19.878	4.397	0.519
1232.000	697.167	80.007	19.995	103.163	19.877	4.456	0.508
1240.000	701.282	80.006	19.994	103.154	19.878	4.378	0.535
1248.000	705.309	80.006	19.995	103.151	19.875	4.613	0.524
1256.000	709.303	80.008	19.995	103.148	19.877	4.450	0.494
1264.000	713.337	80.006	19.996	103.163	19.874	4.647	0.502
1272.001	717.364	80.006	19.995	103.160	19.873	4.786	0.507
1280.000	721.373	80.006	19.995	103.166	19.874	4.656	0.504
1288.000	725.284	80.005	19.995	103.159	19.874	4.662	0.494
1296.001	729.320	80.006	19.996	103.138	19.876	4.559	0.498
1304.000	733.303	80.006	19.995	103.147	19.872	4.852	0.499
1312.000	737.281	80.008	19.994	103.147	19.879	4.345	0.498
1320.001	741.269	80.008	19.995	103.150	19.876	4.502	0.479
1325.000	743.798	80.007	19.996	103.161	19.875	4.591	0.491

File: Oak_HWF_MCC_30K_min_211105_R3.txt
Sample ID:	C:\MCC\MCC Cal\Test\Oak_HWF_MCC_30K_min_211105_R3.txt
Sample Weight (mg):	4.93
Heating Rate (C/s):	0.5
Combustor Temp (C):	900
N2 Flow Rate (cc/min):	80
O2 Flow Rate (cc/min):	20
Calibration File:	C:\MCC\MCC Cal\Coeff1 JN10440_30_210304.txt.txt
T Correction Coefficients:	0	1.024463	0
Time Shift (s):	14
*
Time (s)	Temperature (C)	N2 flow rate (cc/min)	O2 flow rate (cc/min)	Flow Rate (cc/min)	Oxygen (%)	HRR (W/g)	Heating rate (C/s)
0.000	106.267	80.004	19.994	102.978	19.992	-0.466	0.017
8.000	106.262	80.008	19.994	103.005	19.985	-0.054	0.003
16.000	106.324	80.004	19.995	103.020	19.978	0.404	0.030
24.000	106.507	80.002	19.997	103.079	19.970	0.976	0.036
32.001	107.001	80.005	19.995	103.183	19.953	2.065	0.074
40.001	108.081	80.005	19.995	103.177	19.945	2.612	0.162
48.001	109.515	80.003	19.994	103.230	19.942	2.803	0.217
56.000	111.337	80.004	19.994	103.254	19.934	3.332	0.243
64.000	113.617	80.007	19.994	103.254	19.932	3.461	0.265
72.000	116.281	80.005	19.994	103.268	19.929	3.645	0.365
80.000	119.252	80.006	19.995	103.262	19.929	3.654	0.372
88.000	122.513	80.006	19.995	103.258	19.929	3.607	0.451
96.001	125.969	80.005	19.994	103.272	19.931	3.500	0.456
104.000	129.543	80.004	19.994	103.261	19.932	3.436	0.477
112.000	133.273	80.002	19.996	103.264	19.936	3.201	0.470
120.000	137.159	80.003	19.996	103.260	19.928	3.676	0.510
128.000	141.080	80.003	19.994	103.254	19.932	3.409	0.502
136.000	145.102	80.005	19.995	103.253	19.933	3.392	0.514
144.000	149.048	80.006	19.995	103.246	19.931	3.498	0.512
152.000	153.008	80.005	19.994	103.241	19.936	3.139	0.517
160.000	156.906	80.006	19.993	103.223	19.933	3.356	0.482
168.000	160.883	80.006	19.993	103.222	19.933	3.350	0.503
176.000	164.821	80.004	19.993	103.221	19.934	3.307	0.469
184.000	168.740	80.004	19.994	103.218	19.936	3.154	0.482
192.000	172.666	80.004	19.995	103.215	19.936	3.161	0.525
200.000	176.582	80.003	19.995	103.215	19.931	3.513	0.475
208.000	180.542	80.004	19.996	103.212	19.935	3.208	0.490
216.000	184.480	80.003	19.996	103.205	19.937	3.132	0.476
224.000	188.494	80.007	19.994	103.212	19.930	3.542	0.505
232.000	192.426	80.005	19.995	103.212	19.934	3.279	0.477
240.000	196.367	80.004	19.994	103.193	19.931	3.520	0.491
248.000	200.331	80.007	19.994	103.185	19.924	3.941	0.493
256.000	204.251	80.006	19.993	103.199	19.926	3.837	0.474
264.000	208.254	80.005	19.995	103.204	19.921	4.176	0.500
272.000	212.251	80.005	19.994	103.202	19.918	4.359	0.485
280.000	216.251	80.004	19.995	103.208	19.912	4.749	0.491
288.000	220.295	80.004	19.996	103.191	19.906	5.158	0.507
296.000	224.219	80.003	19.995	103.201	19.899	5.584	0.446
304.000	228.251	80.004	19.994	103.204	19.895	5.878	0.495
312.000	232.296	80.005	19.994	103.204	19.880	6.842	0.478
320.000	236.279	80.005	19.995	103.210	19.869	7.522	0.473
328.000	240.215	80.007	19.995	103.205	19.859	8.190	0.484
336.000	244.173	80.007	19.993	103.206	19.853	8.596	0.492
344.000	248.113	80.006	19.994	103.208	19.838	9.567	0.486
352.000	252.207	80.005	19.995	103.216	19.821	10.691	0.480
360.000	256.205	80.005	19.994	103.217	19.801	11.964	0.478
368.000	260.180	80.004	19.995	103.225	19.775	13.723	0.480
376.000	264.159	80.003	19.996	103.235	19.741	15.920	0.495
384.000	268.156	80.005	19.996	103.256	19.702	18.437	0.494
392.000	272.151	80.006	19.995	103.258	19.665	20.886	0.472
400.000	276.184	80.004	19.995	103.275	19.625	23.509	0.484
408.000	280.202	80.005	19.995	103.289	19.579	26.503	0.522
416.000	284.198	80.007	19.994	103.296	19.537	29.282	0.519
424.000	288.239	80.005	19.994	103.299	19.492	32.182	0.507
432.000	292.219	80.005	19.995	103.331	19.450	34.987	0.491
440.000	296.216	80.004	19.995	103.335	19.404	37.968	0.511
448.000	300.208	80.005	19.993	103.338	19.375	39.863	0.519
456.000	304.231	80.005	19.994	103.350	19.339	42.205	0.527
464.000	308.262	80.004	19.995	103.358	19.305	44.464	0.484
472.000	312.389	80.006	19.995	103.366	19.278	46.204	0.539
480.000	316.479	80.006	19.995	103.370	19.243	48.512	0.530
488.000	320.512	80.005	19.995	103.379	19.213	50.488	0.506
496.000	324.538	80.007	19.995	103.406	19.169	53.383	0.511
504.000	328.562	80.008	19.994	103.409	19.121	56.521	0.495
512.000	332.603	80.005	19.994	103.437	19.062	60.383	0.521
520.001	336.636	80.005	19.994	103.450	18.998	64.610	0.523
528.000	340.622	80.005	19.994	103.479	18.932	68.959	0.481
536.000	344.678	80.006	19.995	103.492	18.870	73.017	0.505
544.000	348.645	80.006	19.994	103.493	18.821	76.180	0.507
552.000	352.682	80.006	19.994	103.490	18.786	78.483	0.488
560.000	356.731	80.006	19.995	103.488	18.791	78.120	0.590
568.000	360.820	80.004	19.995	103.438	18.840	74.859	0.506
576.000	364.834	80.006	19.994	103.381	18.943	68.037	0.483
584.000	368.865	80.008	19.995	103.294	19.095	58.112	0.514
592.000	372.958	80.005	19.996	103.230	19.285	45.652	0.507
600.000	377.049	80.006	19.995	103.171	19.468	33.702	0.511
608.000	381.074	80.007	19.993	103.148	19.616	24.068	0.512
616.000	385.080	80.005	19.994	103.136	19.710	17.939	0.506
624.000	389.045	80.005	19.995	103.137	19.756	14.888	0.471
632.000	393.017	80.005	19.994	103.137	19.778	13.481	0.506
640.000	397.107	80.007	19.994	103.130	19.786	12.987	0.538
648.000	401.003	80.005	19.995	103.133	19.789	12.775	0.505
656.000	404.945	80.005	19.994	103.132	19.794	12.461	0.489
664.000	408.922	80.008	19.995	103.132	19.799	12.084	0.494
672.000	412.923	80.006	19.995	103.132	19.806	11.663	0.510
680.000	416.921	80.006	19.995	103.125	19.809	11.478	0.485
688.000	421.065	80.004	19.996	103.134	19.807	11.620	0.539
696.000	425.129	80.006	19.994	103.136	19.811	11.326	0.518
704.000	429.240	80.005	19.994	103.134	19.811	11.354	0.517
712.000	433.335	80.005	19.994	103.138	19.818	10.848	0.489
720.000	437.423	80.005	19.996	103.132	19.821	10.654	0.507
728.000	441.435	80.007	19.994	103.126	19.821	10.657	0.498
736.000	445.441	80.008	19.994	103.132	19.826	10.316	0.516
744.000	449.383	80.008	19.994	103.133	19.828	10.241	0.474
752.000	453.373	80.008	19.994	103.134	19.828	10.217	0.536
760.000	457.304	80.007	19.994	103.135	19.827	10.294	0.485
768.000	461.236	80.005	19.994	103.134	19.828	10.232	0.485
776.000	465.200	80.005	19.995	103.136	19.829	10.133	0.472
784.000	469.212	80.004	19.996	103.120	19.827	10.274	0.476
792.000	473.278	80.004	19.997	103.107	19.827	10.293	0.498
800.000	477.339	80.005	19.995	103.117	19.830	10.086	0.498
808.000	481.440	80.007	19.993	103.136	19.827	10.278	0.516
816.000	485.578	80.007	19.994	103.132	19.824	10.469	0.545
824.000	489.706	80.006	19.995	103.136	19.822	10.625	0.491
832.000	493.894	80.007	19.993	103.130	19.824	10.477	0.566
840.000	498.048	80.008	19.993	103.132	19.825	10.404	0.520
848.000	502.186	80.004	19.994	103.135	19.821	10.652	0.515
856.000	506.287	80.004	19.993	103.132	19.819	10.793	0.523
864.000	510.452	80.004	19.995	103.127	19.819	10.810	0.505
872.000	514.595	80.006	19.995	103.123	19.817	10.927	0.519
880.000	518.716	80.004	19.994	103.126	19.817	10.944	0.502
888.000	522.956	80.003	19.995	103.116	19.816	11.023	0.534
896.000	527.130	80.008	19.993	103.123	19.813	11.165	0.493
904.000	531.357	80.007	19.993	103.123	19.815	11.047	0.512
912.000	535.579	80.005	19.994	103.106	19.809	11.482	0.507
920.000	539.740	80.007	19.993	103.110	19.810	11.375	0.505
928.000	543.878	80.007	19.994	103.117	19.806	11.660	0.558
936.000	547.961	80.007	19.994	103.122	19.807	11.559	0.495
944.000	552.026	80.005	19.994	103.100	19.804	11.787	0.507
952.000	556.113	80.006	19.995	103.108	19.801	11.986	0.477
960.000	560.220	80.005	19.995	103.113	19.799	12.119	0.519
968.000	564.250	80.005	19.994	103.111	19.795	12.368	0.488
976.000	568.266	80.005	19.995	103.115	19.797	12.246	0.494
984.000	572.363	80.008	19.996	103.114	19.793	12.515	0.547
992.000	576.507	80.007	19.995	103.106	19.793	12.491	0.545
1000.000	580.627	80.007	19.994	103.106	19.790	12.676	0.524
1008.000	584.683	80.010	19.994	103.108	19.791	12.648	0.480
1016.000	588.674	80.007	19.994	103.103	19.790	12.726	0.512
1024.000	592.784	80.005	19.994	103.114	19.785	12.997	0.496
1032.000	596.923	80.006	19.994	103.102	19.784	13.073	0.510
1040.001	600.994	80.008	19.993	103.105	19.785	13.006	0.500
1048.000	605.032	80.006	19.995	103.120	19.783	13.160	0.515
1056.001	609.019	80.006	19.995	103.118	19.778	13.494	0.477
1064.000	613.062	80.007	19.995	103.100	19.776	13.613	0.491
1072.000	617.100	80.009	19.995	103.114	19.770	14.009	0.516
1080.000	621.020	80.008	19.996	103.109	19.769	14.033	0.516
1088.000	624.858	80.006	19.995	103.098	19.766	14.287	0.483
1096.000	628.718	80.009	19.994	103.098	19.765	14.346	0.504
1104.000	632.535	80.005	19.993	103.098	19.759	14.745	0.485
1112.000	636.590	80.006	19.994	103.109	19.761	14.593	0.553
1120.001	640.652	80.006	19.994	103.129	19.754	15.016	0.515
1128.000	644.825	80.006	19.994	103.112	19.756	14.912	0.510
1136.000	648.973	80.006	19.995	103.100	19.751	15.243	0.514
1144.000	653.038	80.005	19.994	103.098	19.750	15.324	0.519
1152.000	657.002	80.008	19.994	103.096	19.747	15.524	0.481
1160.000	660.967	80.009	19.995	103.101	19.741	15.903	0.492
1168.000	664.987	80.008	19.994	103.112	19.743	15.735	0.488
1176.000	669.095	80.008	19.995	103.113	19.738	16.064	0.532
1184.001	673.320	80.009	19.994	103.104	19.735	16.291	0.527
1192.000	677.564	80.007	19.996	103.102	19.735	16.296	0.524
1200.000	681.713	80.006	19.994	103.112	19.734	16.373	0.502
1208.000	685.838	80.008	19.995	103.103	19.734	16.380	0.530
1216.000	690.005	80.008	19.994	103.103	19.733	16.424	0.512
1224.000	694.205	80.005	19.994	103.102	19.729	16.668	0.550
1232.000	698.382	80.007	19.995	103.101	19.725	16.904	0.500
1240.000	702.617	80.010	19.994	103.099	19.721	17.176	0.523
1248.001	706.758	80.009	19.994	103.098	19.718	17.361	0.496
1256.000	710.863	80.006	19.995	103.098	19.721	17.184	0.481
1264.000	714.979	80.010	19.993	103.098	19.716	17.540	0.505
1272.000	719.061	80.009	19.993	103.093	19.710	17.882	0.494
1280.000	723.138	80.007	19.996	103.092	19.712	17.762	0.495
1288.000	727.181	80.006	19.996	103.095	19.713	17.742	0.528
1296.000	731.169	80.009	19.993	103.097	19.711	17.860	0.516
1304.000	735.134	80.007	19.992	103.098	19.710	17.918	0.461
1312.000	739.031	80.006	19.995	103.100	19.704	18.324	0.481
1320.001	742.982	80.008	19.993	103.100	19.701	18.488	0.445
1325.000	745.434	80.008	19.995	103.096	19.706	18.152	0.453