Folder: fsri_materials_database/01_Data/PMMA_R01/MCC

Note: 01_Data/README.md
# Materials and Products Database
## 01_Data

Raw data generated from each apparatus are included here in plain-text format. The data is organized first by material, next by the short name of test apparatus used, and where applicable additional filtering by test settings.

### material.json

Each material directory contains a json file of the same name as the material. This file links the data stored in the repository as well as data and graphs produced by the accompanying scripts (__02_Scripts__) to the respective landing page for the material on the front-end website.

File: PMMA_MCC_30K_min_210920_R1.txt
Sample ID:	C:\MCC\PMMA_MCC_30K_min_210920_R1.txt
Sample Weight (mg):	4.57
Heating Rate (C/s):	0.5
Combustor Temp (C):	900
N2 Flow Rate (cc/min):	80
O2 Flow Rate (cc/min):	20
Calibration File:	C:\MCC\MCC Cal\Coeff1 JN10440_30_210304.txt.txt
T Correction Coefficients:	0	1.024463	0
Time Shift (s):	14
*
Time (s)	Temperature (C)	N2 flow rate (cc/min)	O2 flow rate (cc/min)	Flow Rate (cc/min)	Oxygen (%)	HRR (W/g)	Heating rate (C/s)
0.001	105.721	79.997	19.994	99.804	20.386	0.130	0.012
8.000	105.655	79.995	19.994	99.815	20.384	0.277	0.016
16.000	105.744	79.996	19.995	99.872	20.375	0.857	0.016
24.002	106.036	79.994	19.995	99.992	20.355	2.257	0.076
32.000	106.836	79.994	19.994	100.036	20.345	2.932	0.104
40.000	108.178	79.995	19.995	100.044	20.339	3.332	0.209
48.001	109.919	79.996	19.995	100.045	20.341	3.183	0.216
56.001	111.964	79.993	19.995	100.045	20.337	3.484	0.277
64.001	114.294	79.994	19.993	100.074	20.331	3.899	0.321
72.001	116.970	79.996	19.994	100.096	20.330	3.934	0.334
80.000	119.900	79.996	19.995	100.101	20.327	4.183	0.381
88.001	123.024	79.995	19.994	100.096	20.322	4.504	0.389
96.001	126.414	79.996	19.994	100.093	20.323	4.435	0.438
104.000	129.943	79.994	19.994	100.093	20.314	5.039	0.451
112.000	133.549	79.992	19.996	100.105	20.310	5.303	0.445
120.001	137.364	79.994	19.994	100.088	20.301	5.920	0.498
128.000	141.164	79.996	19.995	100.106	20.292	6.530	0.466
136.000	145.133	79.993	19.995	100.097	20.280	7.391	0.494
144.000	149.101	79.994	19.995	100.085	20.266	8.354	0.502
152.000	153.118	79.997	19.994	100.102	20.251	9.333	0.482
160.000	157.119	79.997	19.994	100.082	20.232	10.624	0.483
168.000	161.179	79.995	19.995	100.087	20.219	11.549	0.498
176.000	165.244	79.997	19.995	100.077	20.203	12.658	0.521
184.001	169.282	79.995	19.995	100.076	20.196	13.106	0.498
192.000	173.295	79.994	19.995	100.085	20.190	13.519	0.483
200.000	177.285	79.993	19.997	100.065	20.188	13.642	0.459
208.000	181.280	79.994	19.994	100.073	20.199	12.935	0.516
216.001	185.269	79.994	19.995	100.065	20.199	12.884	0.500
224.000	189.227	79.994	19.993	100.067	20.207	12.345	0.466
232.000	193.199	79.996	19.994	100.053	20.213	11.977	0.481
240.000	197.123	79.996	19.993	100.045	20.212	12.039	0.502
248.000	201.045	79.996	19.995	100.042	20.215	11.806	0.469
256.000	204.979	79.996	19.994	100.065	20.210	12.157	0.493
264.001	208.920	79.994	19.995	100.047	20.207	12.383	0.490
272.000	212.816	79.994	19.995	100.050	20.201	12.746	0.472
280.000	216.700	79.993	19.995	100.063	20.198	12.935	0.509
288.000	220.594	79.994	19.995	100.058	20.192	13.392	0.481
296.000	224.545	79.993	19.996	100.057	20.184	13.922	0.508
304.000	228.429	79.994	19.995	100.065	20.178	14.305	0.459
312.000	232.339	79.996	19.994	100.048	20.179	14.241	0.466
320.001	236.274	79.995	19.995	100.041	20.182	14.026	0.494
328.000	240.138	79.997	19.994	100.058	20.199	12.914	0.477
336.000	244.056	79.998	19.993	100.041	20.219	11.558	0.475
344.000	248.022	79.994	19.994	100.041	20.234	10.527	0.458
352.000	252.090	79.993	19.996	100.048	20.234	10.506	0.489
360.001	256.070	79.994	19.994	100.049	20.227	11.005	0.499
368.000	260.135	79.994	19.995	100.068	20.201	12.791	0.502
376.000	264.152	79.994	19.996	100.068	20.161	15.497	0.482
384.000	268.217	79.992	19.996	100.075	20.109	19.034	0.515
392.001	272.312	79.996	19.994	100.076	20.057	22.588	0.525
400.000	276.279	79.996	19.995	100.079	19.994	26.937	0.522
408.000	280.328	79.996	19.995	100.088	19.943	30.413	0.494
416.000	284.322	79.997	19.995	100.099	19.871	35.335	0.494
424.000	288.357	79.995	19.994	100.074	19.827	38.344	0.499
432.001	292.384	79.995	19.994	100.084	19.782	41.382	0.489
440.000	296.400	79.995	19.997	100.081	19.760	42.873	0.489
448.000	300.421	79.996	19.996	100.065	19.768	42.337	0.482
456.000	304.436	79.996	19.995	100.038	19.820	38.788	0.522
464.000	308.488	79.993	19.996	100.038	19.873	35.146	0.500
472.000	312.576	79.996	19.995	100.042	19.927	31.500	0.524
480.000	316.594	79.996	19.994	100.076	19.937	30.800	0.493
488.000	320.684	79.996	19.994	100.056	19.929	31.367	0.502
496.000	324.652	79.997	19.994	100.085	19.883	34.498	0.501
504.000	328.652	79.998	19.995	100.038	19.832	37.981	0.505
512.000	332.623	79.995	19.995	100.118	19.750	43.624	0.491
520.000	336.647	79.997	19.995	100.084	19.675	48.708	0.504
528.002	340.791	79.996	19.995	100.177	19.473	62.581	0.623
536.000	344.594	79.995	19.996	100.216	19.338	71.774	0.533
544.000	348.587	79.995	19.995	100.220	19.131	86.372	0.517
552.000	352.580	79.997	19.995	100.191	18.946	98.463	0.523
560.000	356.586	79.995	19.996	99.986	18.702	115.435	0.485
568.000	360.612	79.996	19.995	100.247	18.628	120.370	0.466
576.000	364.696	79.999	19.994	100.245	18.415	135.058	0.520
584.000	368.726	79.998	19.994	100.246	18.248	146.434	0.501
592.000	372.737	79.995	19.995	100.248	18.100	156.583	0.537
600.000	376.710	79.996	19.996	100.249	17.997	163.604	0.511
608.000	380.716	79.995	19.994	100.238	17.954	166.509	0.488
616.000	384.725	79.994	19.994	100.221	17.994	163.702	0.481
624.000	388.748	79.994	19.995	100.190	18.122	154.909	0.506
632.000	392.805	79.997	19.995	100.150	18.322	141.170	0.523
640.000	396.957	79.996	19.995	100.107	18.585	123.125	0.529
648.001	400.994	79.996	19.996	100.072	18.880	102.993	0.479
656.000	405.127	79.997	19.995	100.042	19.189	81.842	0.512
664.000	409.177	79.997	19.994	100.033	19.479	62.033	0.496
672.000	413.328	79.995	19.995	100.017	19.723	45.375	0.521
680.000	417.330	79.996	19.995	100.011	19.925	31.623	0.521
688.000	421.399	79.997	19.994	100.076	20.062	22.218	0.496
696.000	425.510	79.995	19.993	100.011	20.159	15.627	0.522
704.000	429.596	79.997	19.994	100.011	20.217	11.675	0.499
712.000	433.725	79.996	19.996	99.999	20.266	8.307	0.525
720.001	437.799	79.994	19.995	100.014	20.295	6.326	0.528
728.000	441.817	79.995	19.995	100.009	20.310	5.304	0.478
736.000	445.892	79.997	19.994	100.004	20.325	4.310	0.507
744.000	449.948	79.996	19.996	100.001	20.332	3.785	0.517
752.000	454.065	79.995	19.996	99.997	20.333	3.770	0.514
760.000	458.153	79.995	19.995	100.000	20.333	3.710	0.512
768.001	462.263	79.996	19.994	100.005	20.334	3.673	0.527
776.000	466.337	79.996	19.994	100.003	20.337	3.448	0.508
784.000	470.401	79.996	19.995	100.011	20.340	3.301	0.502
792.000	474.512	79.997	19.994	99.945	20.338	3.388	0.504
800.000	478.684	79.996	19.994	100.000	20.340	3.256	0.525
808.000	482.766	79.994	19.994	100.000	20.341	3.200	0.504
816.000	486.909	79.998	19.995	99.997	20.338	3.396	0.505
824.000	490.968	79.996	19.994	99.997	20.335	3.589	0.484
832.001	495.021	79.995	19.995	99.995	20.336	3.550	0.517
840.000	499.083	79.996	19.995	99.997	20.340	3.286	0.511
848.001	503.153	79.995	19.995	100.000	20.336	3.530	0.512
856.000	507.229	79.995	19.994	100.000	20.340	3.258	0.508
864.000	511.322	79.994	19.994	100.001	20.334	3.660	0.518
872.000	515.448	79.996	19.994	100.001	20.335	3.612	0.511
880.000	519.611	79.996	19.993	99.998	20.337	3.457	0.518
888.000	523.727	79.997	19.995	99.999	20.340	3.247	0.492
896.001	527.830	79.997	19.995	99.995	20.341	3.165	0.523
904.000	531.946	79.997	19.995	99.998	20.340	3.265	0.502
912.000	536.087	79.995	19.994	100.000	20.339	3.301	0.520
920.000	540.179	79.994	19.996	99.998	20.338	3.375	0.528
928.000	544.190	79.994	19.994	99.997	20.336	3.565	0.515
936.000	548.267	79.993	19.995	100.002	20.339	3.304	0.522
944.000	552.351	79.997	19.995	100.001	20.336	3.556	0.474
952.000	556.597	79.997	19.995	100.001	20.342	3.150	0.534
960.000	560.715	79.997	19.994	99.998	20.340	3.279	0.505
968.000	564.896	79.996	19.995	100.003	20.338	3.418	0.507
976.000	569.055	79.997	19.994	100.000	20.335	3.576	0.512
984.000	573.146	79.999	19.995	100.004	20.336	3.547	0.529
992.000	577.328	79.995	19.994	100.000	20.338	3.420	0.532
1000.000	581.424	79.995	19.996	100.000	20.336	3.569	0.536
1008.000	585.508	79.995	19.996	99.998	20.336	3.524	0.537
1016.000	589.596	79.994	19.996	100.005	20.339	3.364	0.523
1024.000	593.658	79.996	19.996	99.998	20.337	3.489	0.505
1032.001	597.742	79.996	19.994	100.002	20.338	3.414	0.527
1040.001	601.768	79.997	19.994	100.001	20.335	3.617	0.519
1048.000	605.788	79.996	19.995	99.997	20.333	3.712	0.512
1056.001	609.803	79.999	19.994	100.002	20.333	3.739	0.507
1064.001	613.823	80.000	19.994	100.000	20.335	3.589	0.544
1072.001	617.861	79.996	19.994	100.012	20.335	3.612	0.477
1080.001	621.923	79.996	19.995	100.002	20.335	3.582	0.532
1088.000	625.967	79.996	19.996	100.006	20.328	4.055	0.546
1096.000	630.014	79.994	19.995	100.002	20.331	3.910	0.505
1104.000	634.065	79.993	19.996	100.032	20.330	3.957	0.535
1112.000	638.112	79.997	19.995	100.065	20.333	3.718	0.511
1120.000	642.135	79.996	19.993	99.959	20.329	4.018	0.488
1128.000	646.177	79.996	19.994	100.017	20.330	3.951	0.496
1136.000	650.255	79.997	19.994	100.032	20.332	3.834	0.513
1144.000	654.372	79.999	19.994	100.011	20.325	4.292	0.509
1152.001	658.433	79.997	19.995	100.010	20.324	4.357	0.504
1160.000	662.465	79.994	19.995	100.009	20.329	4.001	0.492
1168.000	666.519	79.996	19.996	100.018	20.319	4.670	0.527
1176.000	670.520	79.996	19.995	100.020	20.326	4.215	0.522
1184.001	674.595	79.995	19.995	100.034	20.326	4.212	0.495
1192.001	678.701	79.996	19.995	100.021	20.326	4.252	0.518
1200.000	682.711	79.997	19.997	99.989	20.327	4.162	0.486
1208.000	686.800	79.995	19.995	100.027	20.329	4.004	0.506
1216.001	690.819	79.998	19.996	100.011	20.324	4.377	0.499
1224.000	694.910	79.998	19.994	100.019	20.324	4.341	0.516
1232.000	698.896	79.994	19.995	100.028	20.328	4.112	0.481
1240.000	702.903	79.996	19.995	100.034	20.315	4.960	0.511
1248.000	706.871	79.997	19.994	100.030	20.317	4.816	0.486
1256.000	710.889	79.995	19.995	100.021	20.321	4.542	0.509
1264.000	714.921	79.994	19.995	100.026	20.317	4.845	0.487
1272.000	719.020	79.995	19.996	100.027	20.317	4.805	0.527
1280.000	723.051	79.994	19.994	100.019	20.310	5.291	0.514
1288.000	727.114	79.995	19.996	100.016	20.317	4.844	0.536
1296.000	731.158	79.997	19.997	100.031	20.312	5.196	0.501
1304.000	735.256	79.997	19.994	100.030	20.318	4.782	0.509
1312.000	739.280	79.994	19.994	100.036	20.320	4.632	0.484
1320.001	743.463	79.996	19.994	100.033	20.319	4.688	0.523

File: PMMA_R01_MCC_30K_min_210920_R3.txt
Sample ID:	C:\MCC\PMMA_MCC_30K_min_210920_R3.txt
Sample Weight (mg):	4.62
Heating Rate (C/s):	0.5
Combustor Temp (C):	900
N2 Flow Rate (cc/min):	80
O2 Flow Rate (cc/min):	20
Calibration File:	C:\MCC\MCC Cal\Coeff1 JN10440_30_210304.txt.txt
T Correction Coefficients:	0	1.024463	0
Time Shift (s):	14
*
Time (s)	Temperature (C)	N2 flow rate (cc/min)	O2 flow rate (cc/min)	Flow Rate (cc/min)	Oxygen (%)	HRR (W/g)	Heating rate (C/s)
0.001	108.050	79.995	19.995	100.075	20.330	-0.289	-0.027
8.001	108.044	79.996	19.995	100.081	20.332	-0.454	-0.000
16.000	108.034	79.996	19.995	100.135	20.322	0.262	0.007
24.000	108.317	79.993	19.996	100.208	20.307	1.237	0.040
32.000	108.842	79.996	19.996	100.162	20.304	1.492	0.080
40.000	109.730	79.998	19.994	100.254	20.295	2.072	0.135
48.001	111.039	79.997	19.994	100.271	20.292	2.285	0.196
56.000	112.649	79.998	19.995	100.298	20.291	2.388	0.232
64.001	114.604	79.999	19.994	100.308	20.287	2.651	0.285
72.000	116.864	79.996	19.995	100.310	20.284	2.842	0.290
80.000	119.361	79.995	19.995	100.324	20.282	2.951	0.350
88.000	122.066	79.996	19.995	100.343	20.275	3.426	0.350
96.001	125.057	79.995	19.995	100.344	20.280	3.102	0.386
104.000	128.170	79.994	19.995	100.343	20.269	3.827	0.396
112.000	131.457	79.998	19.995	100.348	20.259	4.505	0.412
120.000	134.926	79.997	19.995	100.340	20.254	4.851	0.428
128.001	138.530	79.995	19.994	100.342	20.247	5.311	0.472
136.000	142.206	79.997	19.993	100.346	20.237	6.019	0.456
144.000	146.084	79.998	19.994	100.356	20.233	6.305	0.468
152.000	149.966	79.994	19.994	100.354	20.221	7.098	0.476
160.000	153.981	79.995	19.993	100.349	20.200	8.531	0.517
168.000	157.917	79.998	19.994	100.335	20.180	9.869	0.525
176.000	161.853	79.997	19.994	100.334	20.164	10.926	0.465
184.000	165.873	79.995	19.995	100.339	20.152	11.782	0.485
192.000	169.875	79.997	19.995	100.317	20.152	11.773	0.495
200.001	173.913	79.999	19.995	100.308	20.148	12.009	0.511
208.000	177.916	79.996	19.994	100.307	20.152	11.753	0.511
216.000	181.901	79.997	19.994	100.309	20.157	11.403	0.516
224.001	185.914	79.998	19.994	100.297	20.164	10.968	0.511
232.001	189.899	79.996	19.994	100.297	20.170	10.547	0.476
240.000	193.870	79.996	19.995	100.298	20.177	10.071	0.525
248.000	197.799	79.997	19.994	100.290	20.177	10.085	0.466
256.000	201.693	79.996	19.994	100.295	20.171	10.494	0.485
264.001	205.586	79.996	19.995	100.288	20.171	10.503	0.519
272.000	209.475	79.995	19.994	100.294	20.169	10.632	0.459
280.000	213.410	79.997	19.994	100.288	20.170	10.546	0.474
288.000	217.332	79.998	19.994	100.294	20.160	11.210	0.500
296.000	221.293	79.997	19.994	100.279	20.156	11.476	0.467
304.000	225.261	79.998	19.994	100.269	20.153	11.701	0.503
312.000	229.222	79.997	19.993	100.275	20.151	11.842	0.524
320.000	233.194	79.995	19.993	100.273	20.159	11.302	0.509
328.000	237.173	79.995	19.994	100.274	20.182	9.754	0.502
336.000	241.144	79.996	19.996	100.270	20.201	8.426	0.507
344.001	245.138	79.995	19.994	100.263	20.213	7.626	0.469
352.000	249.108	79.996	19.994	100.270	20.219	7.225	0.493
360.001	253.180	79.997	19.994	100.268	20.210	7.866	0.521
368.000	257.142	79.998	19.995	100.269	20.187	9.419	0.507
376.001	261.075	79.997	19.995	100.271	20.155	11.589	0.479
384.000	265.052	79.999	19.996	100.277	20.111	14.544	0.500
392.001	269.092	79.997	19.996	100.275	20.058	18.124	0.520
400.000	273.104	79.997	19.993	100.283	20.002	21.920	0.499
408.000	277.093	79.996	19.994	100.302	19.949	25.539	0.471
416.000	281.083	79.997	19.993	100.309	19.889	29.578	0.498
424.000	285.117	79.997	19.993	100.301	19.822	34.107	0.503
432.000	289.065	79.997	19.994	100.305	19.771	37.580	0.473
440.000	293.087	79.998	19.993	100.300	19.727	40.534	0.537
448.000	297.098	79.997	19.995	100.316	19.716	41.309	0.515
456.000	301.124	79.997	19.994	100.289	19.732	40.209	0.529
464.000	305.056	79.998	19.993	100.274	19.780	36.977	0.489
472.000	309.061	79.997	19.993	100.265	19.848	32.327	0.491
480.000	313.030	79.995	19.996	100.263	19.905	28.510	0.498
488.000	317.031	79.996	19.996	100.272	19.908	28.297	0.484
496.000	321.033	79.997	19.994	100.295	19.889	29.562	0.457
504.000	325.026	79.995	19.994	100.270	19.863	31.336	0.511
512.000	329.015	79.996	19.996	100.342	19.771	37.617	0.493
520.000	333.025	79.997	19.995	100.319	19.693	42.898	0.492
528.000	337.036	79.997	19.994	100.305	19.581	50.477	0.473
536.000	341.009	79.996	19.994	100.388	19.415	61.727	0.467
544.000	345.003	79.997	19.996	100.435	19.243	73.425	0.502
552.000	348.975	79.997	19.995	100.442	19.009	89.275	0.462
560.000	353.005	79.995	19.994	100.548	18.777	105.122	0.508
568.000	357.021	79.995	19.996	100.420	18.621	115.672	0.523
576.000	361.078	79.996	19.994	100.461	18.492	124.415	0.510
584.000	365.172	79.994	19.994	100.458	18.344	134.466	0.510
592.000	369.263	79.995	19.995	100.491	18.187	145.138	0.490
600.001	373.391	79.998	19.994	100.468	18.056	153.963	0.514
608.000	377.474	79.998	19.995	100.467	17.965	160.116	0.513
616.000	381.497	79.998	19.994	100.429	17.932	162.269	0.485
624.000	385.522	79.999	19.995	100.416	17.992	158.183	0.528
632.000	389.490	79.997	19.995	100.378	18.130	148.771	0.479
640.000	393.631	79.994	19.995	100.338	18.346	134.090	0.536
648.000	397.593	79.996	19.995	100.292	18.622	115.341	0.512
656.000	401.606	79.993	19.995	100.253	18.923	94.929	0.502
664.000	405.703	79.995	19.996	100.232	19.230	74.154	0.509
672.000	409.742	79.995	19.994	100.227	19.513	54.961	0.479
680.000	413.810	79.998	19.995	100.213	19.748	39.089	0.511
688.000	417.850	79.998	19.995	100.202	19.926	27.083	0.523
696.000	421.870	79.996	19.992	100.196	20.062	17.844	0.509
704.000	425.892	79.998	19.994	100.215	20.147	12.077	0.526
712.000	429.908	79.999	19.994	100.208	20.198	8.636	0.490
720.000	433.995	79.995	19.994	100.203	20.243	5.571	0.516
728.000	438.085	79.996	19.994	100.202	20.266	4.059	0.542
736.000	442.114	79.996	19.995	100.197	20.292	2.308	0.502
744.000	446.141	79.994	19.994	100.192	20.304	1.441	0.488
752.000	450.185	79.994	19.996	100.191	20.312	0.941	0.481
760.000	454.251	79.998	19.996	100.192	20.320	0.373	0.531
768.000	458.266	79.996	19.994	100.200	20.319	0.478	0.503
776.000	462.378	79.998	19.995	100.203	20.319	0.480	0.509
784.000	466.446	80.000	19.995	100.195	20.324	0.137	0.523
792.000	470.536	79.998	19.995	100.195	20.319	0.461	0.521
800.000	474.649	79.996	19.994	100.200	20.320	0.363	0.524
808.000	478.715	79.996	19.994	100.191	20.319	0.435	0.528
816.000	482.830	79.996	19.994	100.200	20.324	0.122	0.522
824.000	486.929	79.995	19.994	100.193	20.319	0.463	0.513
832.000	490.997	79.996	19.996	100.200	20.321	0.336	0.479
840.000	495.191	79.996	19.995	100.193	20.325	0.074	0.536
848.000	499.293	79.995	19.997	100.209	20.323	0.177	0.523
856.000	503.459	79.996	19.994	100.198	20.318	0.554	0.560
864.000	507.565	79.997	19.993	100.196	20.317	0.624	0.493
872.000	511.655	79.999	19.997	100.199	20.321	0.338	0.463
880.000	515.783	79.996	19.996	100.196	20.316	0.675	0.528
888.000	519.912	79.996	19.994	100.195	20.317	0.605	0.507
896.001	523.984	79.997	19.993	100.200	20.320	0.382	0.494
904.000	528.085	79.995	19.996	100.212	20.320	0.386	0.502
912.000	532.090	79.995	19.993	100.210	20.317	0.568	0.509
920.000	536.181	79.998	19.996	100.211	20.319	0.478	0.486
928.001	540.219	79.997	19.995	100.199	20.320	0.423	0.517
936.000	544.258	79.998	19.997	100.196	20.317	0.611	0.527
944.000	548.334	80.000	19.994	100.214	20.322	0.240	0.513
952.000	552.363	79.998	19.994	100.224	20.322	0.255	0.497
960.000	556.460	79.995	19.994	100.202	20.319	0.469	0.524
968.001	560.539	79.995	19.993	100.232	20.318	0.556	0.526
976.000	564.656	79.995	19.994	100.228	20.324	0.131	0.500
984.000	568.753	79.997	19.994	100.232	20.320	0.410	0.490
992.001	572.860	79.997	19.995	100.159	20.319	0.456	0.505
1000.000	577.009	79.996	19.994	100.226	20.318	0.500	0.509
1008.000	581.063	79.997	19.994	100.222	20.315	0.724	0.510
1016.000	585.031	79.996	19.994	100.225	20.317	0.618	0.492
1024.000	589.089	79.997	19.995	100.222	20.317	0.607	0.515
1032.000	593.162	79.999	19.993	100.229	20.315	0.724	0.533
1040.001	597.239	79.995	19.994	100.236	20.320	0.417	0.535
1048.000	601.313	79.995	19.994	100.234	20.321	0.323	0.504
1056.000	605.416	79.996	19.994	100.234	20.320	0.390	0.536
1064.001	609.457	79.996	19.994	100.240	20.319	0.473	0.501
1072.001	613.550	79.997	19.994	100.246	20.320	0.421	0.530
1080.001	617.603	79.997	19.994	100.239	20.319	0.469	0.505
1088.000	621.630	79.996	19.995	100.249	20.315	0.748	0.517
1096.000	625.657	79.996	19.995	100.250	20.317	0.591	0.502
1104.001	629.720	79.996	19.995	100.247	20.315	0.735	0.497
1112.000	633.832	79.997	19.996	100.242	20.315	0.722	0.529
1120.000	638.030	79.996	19.995	100.254	20.310	1.087	0.535
1128.001	642.170	79.996	19.995	100.241	20.312	0.938	0.546
1136.000	646.267	79.996	19.994	100.248	20.310	1.087	0.541
1144.001	650.371	79.997	19.995	100.261	20.312	0.953	0.509
1152.001	654.470	79.996	19.996	100.266	20.313	0.888	0.523
1160.000	658.542	79.999	19.994	100.266	20.313	0.842	0.482
1168.000	662.625	79.997	19.994	100.268	20.308	1.173	0.499
1176.001	666.598	79.997	19.996	100.258	20.312	0.936	0.460
1184.000	670.612	79.996	19.994	100.267	20.307	1.250	0.480
1192.000	674.663	79.998	19.995	100.267	20.317	0.595	0.513
1200.000	678.706	79.994	19.995	100.269	20.315	0.696	0.470
1208.000	682.789	79.995	19.995	100.268	20.306	1.331	0.525
1216.000	686.784	79.996	19.994	100.273	20.311	1.023	0.500
1224.000	690.821	79.998	19.996	100.273	20.307	1.293	0.491
1232.000	694.877	79.992	19.994	100.275	20.303	1.509	0.497
1240.000	699.007	79.996	19.994	100.271	20.300	1.736	0.518
1248.000	703.054	79.999	19.994	100.269	20.306	1.330	0.477
1256.000	707.121	79.998	19.996	100.272	20.307	1.237	0.507
1264.000	711.226	79.999	19.995	100.272	20.311	0.981	0.505
1272.001	715.337	79.998	19.994	100.270	20.306	1.352	0.520
1280.000	719.357	79.995	19.994	100.280	20.302	1.614	0.506
1288.001	723.360	79.995	19.994	100.282	20.303	1.575	0.494
1296.000	727.373	79.994	19.995	100.277	20.303	1.509	0.485
1304.000	731.433	79.993	19.994	100.271	20.305	1.405	0.506
1312.000	735.445	79.996	19.995	100.283	20.304	1.492	0.518
1320.001	739.468	79.995	19.997	100.337	20.302	1.621	0.508
1328.001	743.476	80.000	19.995	100.307	20.297	1.978	0.497