Folder: fsri_materials_database/01_Data/Composite_Deck_Board/STA/N2/10K_min (part 2)

File: Composite_Deck_Board_STA_N2_10KData_210628_R3.csv
##Temp./Â°C,Time/min,Mass loss(subtr.2)/mg,DSC(subtr.2)/mW,Sensit./(uV/mW)
49.3,10.01,0.00856,-0.02344425,0.6183
52.1,12.29809,0.0033932,0.37132,0.61978
54.9,12.95951,0.003921075,0.5414,0.62123
57.7,13.4862,0.00504587,0.66881,0.62266
60.5,13.95328,0.004574357,0.74776,0.62406
63.3,14.3823,0.00442007,0.80941,0.62543
66.1,14.78475,0.002386225,0.8827,0.62677
68.9,15.16671,0.004390487,0.95196,0.62809
71.7,15.5312,0.001729791,1.0038,0.62937
74.5,15.88235,0.001765981,1.05993,0.63063
77.3,16.22211,0.001867095,1.109,0.63187
80.1,16.5515,0.0004327527,1.1553,0.63307
82.9,16.8716,0.001429481,1.20029,0.63425
85.7,17.1853,0.00011006,1.23797,0.6354
88.5,17.4885,0.000108944,1.28691,0.63652
91.3,17.7883,0.001448448,1.33327,0.63762
94.1,18.08448,0.001513765,1.37794,0.63869
96.9,18.37519,-0.0008690483,1.43534,0.63973
99.7,18.66092,-0.0001705302,1.49671,0.64074
102.5,18.94499,-0.001178389,1.56631,0.64172
105.3,19.2255,-0.000759871,1.66383,0.64268
108.1,19.50443,-0.0004044856,1.75433,0.64361
110.9,19.78112,-0.00197795,1.86903,0.64451
113.7,20.05714,-0.001069782,2.00366,0.64539
116.5,20.3305,0.000213637,2.14767,0.64624
119.3,20.60334,-0.001089869,2.33029,0.64706
122.1,20.87418,-0.001084205,2.66857,0.64785
124.9,21.14245,-0.001080644,2.9482,0.64861
127.7,21.41135,-0.001099337,2.23957,0.64935
130.5,21.6753,-0.001015439,2.3368,0.65006
133.3,21.9379,-0.0004343033,2.03214,0.65075
136.1,22.1969,-0.001306499,1.59232,0.6514
138.9,22.456,-0.00032915,1.5058,0.65203
141.7,22.71399,-0.001310354,1.49327,0.65263
144.5,22.97094,-0.001310844,1.5133,0.65321
147.3,23.2285,-0.001311058,1.52596,0.65376
150.1,23.48401,5.813805e-06,1.54495,0.65428
152.9,23.73892,-0.0003300004,1.57152,0.65477
155.7,23.99324,-0.0003196768,1.58389,0.65524
158.5,24.24759,-0.00168624,1.61405,0.65568
161.3,24.50065,-0.0006543462,1.62032,0.6561
164.1,24.75389,-0.00196842,1.6118,0.65649
166.9,25.00716,-0.001920603,1.60434,0.65685
169.7,25.26008,-0.001970001,1.62301,0.65719
172.5,25.51352,-0.002950001,1.63859,0.6575
175.3,25.7656,-0.00500015,1.64246,0.65778
178.1,26.01835,-0.003289861,1.66393,0.65804
180.9,26.27003,-0.00318,1.66085,0.65827
183.7,26.5213,-0.00449975,1.6821,0.65848
186.5,26.77235,-0.005809995,1.68859,0.65866
189.3,27.0228,-0.005810054,1.69525,0.65882
192.1,27.27327,-0.004776509,1.71407,0.65895
194.9,27.52285,-0.008439125,1.73703,0.65905
197.7,27.7722,-0.00745,1.75028,0.65913
200.5,28.0221,-0.0070904,1.75213,0.65919
203.3,28.27092,-0.009540018,1.76634,0.65922
206.1,28.5204,-0.010563,1.7906,0.65922
208.9,28.76949,-0.01052999,1.80204,0.65921
211.7,29.0182,-0.01413135,1.79147,0.65916
214.5,29.2675,-0.01381943,1.81476,0.6591
217.3,29.51691,-0.01375348,1.83579,0.659
220.1,29.766,-0.01379908,1.84614,0.65889
222.9,30.01545,-0.01906669,1.87943,0.65875
225.7,30.26442,-0.01899346,1.89109,0.65859
228.5,30.5143,-0.02050417,1.90597,0.6584
231.3,30.7638,-0.02446673,1.92132,0.65819
234.1,31.01319,-0.02861581,1.94161,0.65796
236.9,31.26333,-0.02851662,1.93465,0.65771
239.7,31.51397,-0.03377966,1.93917,0.65743
242.5,31.7645,-0.0393302,1.94564,0.65713
245.3,32.0149,-0.0409735,1.95677,0.65681
248.1,32.2648,-0.04752608,1.96852,0.65646
250.9,32.51513,-0.05348956,1.98058,0.65609
253.7,32.7654,-0.05724731,1.98627,0.6557
256.5,33.01563,-0.06571558,1.99602,0.65529
259.3,33.26574,-0.07278785,2.02426,0.65486
262.1,33.5159,-0.08241708,2.04262,0.65441
264.9,33.76578,-0.09288558,2.05905,0.65394
267.7,34.01616,-0.10328,2.06613,0.65344
270.5,34.26619,-0.11661,2.0909,0.65293
273.3,34.5169,-0.12942,2.11303,0.65239
276.1,34.7675,-0.1482,2.13684,0.65183
278.9,35.01753,-0.16532,2.15221,0.65126
281.7,35.27028,-0.18418,2.16929,0.65066
284.5,35.52211,-0.2087,2.17947,0.65005
287.3,35.77404,-0.22778,2.17045,0.64941
290.1,36.0266,-0.25308,2.17652,0.64876
292.9,36.27884,-0.27631,2.16937,0.64808
295.7,36.53163,-0.29985,2.16851,0.64739
298.5,36.78457,-0.32852,2.16498,0.64668
301.3,37.03774,-0.3517,2.17248,0.64595
304.1,37.2909,-0.37731,2.17225,0.6452
306.9,37.54444,-0.403,2.17207,0.64444
309.7,37.79746,-0.42828,2.18446,0.64366
312.5,38.0506,-0.45226,2.19895,0.64286
315.3,38.30431,-0.4805,2.21968,0.64204
318.1,38.55878,-0.50345,2.24029,0.6412
320.9,38.81369,-0.53453,2.26269,0.64035
323.7,39.0683,-0.56285,2.28622,0.63949
326.5,39.32327,-0.59097,2.33023,0.6386
329.3,39.57886,-0.62048,2.37575,0.6377
332.1,39.83445,-0.64924,2.41728,0.63679
334.9,40.0901,-0.68159,2.48977,0.63586
337.7,40.3459,-0.7149,2.54036,0.63491
340.5,40.60127,-0.75083,2.61947,0.63395
343.3,40.85814,-0.78922,2.71202,0.63297
346.1,41.1143,-0.83067,2.8111,0.63198
348.9,41.37075,-0.87633,2.95058,0.63097
351.7,41.62789,-0.92528,3.08929,0.62995
354.5,41.88491,-0.98106,3.24435,0.62892
357.3,42.14262,-1.0423,3.38494,0.62787
360.1,42.40039,-1.10187,3.51532,0.62681
362.9,42.6592,-1.16826,3.58546,0.62574
365.7,42.91807,-1.23387,3.57919,0.62465
368.5,43.17739,-1.30019,3.45015,0.62355
371.3,43.4367,-1.35787,3.20025,0.62244
374.1,43.69592,-1.40632,2.8565,0.62132
376.9,43.95404,-1.44613,2.42817,0.62018
379.7,44.21353,-1.4726,2.01897,0.61903
382.5,44.47267,-1.48714,1.71481,0.61787
385.3,44.73242,-1.49975,1.51835,0.6167
388.1,44.99245,-1.50537,1.45184,0.61552
390.9,45.253,-1.51059,1.40386,0.61433
393.7,45.5142,-1.51749,1.39871,0.61313
396.5,45.77533,-1.52301,1.39943,0.61191
399.3,46.03687,-1.53083,1.38533,0.61069
402.1,46.29902,-1.53474,1.37751,0.60946
404.9,46.56125,-1.54054,1.38739,0.60822
407.7,46.82382,-1.54749,1.38027,0.60697
410.5,47.08716,-1.55222,1.36906,0.6057
413.3,47.35049,-1.55845,1.37982,0.60444
416.1,47.61407,-1.56784,1.40786,0.60316
418.9,47.87904,-1.57232,1.43896,0.60187
421.7,48.1441,-1.58185,1.46799,0.60058
424.5,48.40913,-1.59001,1.49993,0.59928
427.3,48.67457,-1.59764,1.52964,0.59797
430.1,48.93998,-1.60909,1.58303,0.59665
432.9,49.20483,-1.62271,1.65692,0.59533
435.7,49.47083,-1.63705,1.72541,0.59399
438.5,49.7371,-1.6516,1.80201,0.59266
441.3,50.00363,-1.66947,1.88356,0.59131
444.1,50.2699,-1.68926,1.97848,0.58996
446.9,50.53693,-1.71593,2.09186,0.58861
449.7,50.80355,-1.74145,2.23132,0.58725
452.5,51.07124,-1.77446,2.37538,0.58588
455.3,51.3392,-1.81089,2.51487,0.58451
458.1,51.60712,-1.85699,2.68934,0.58313
460.9,51.87574,-1.9086,2.88256,0.58175
463.7,52.14441,-1.96612,3.06292,0.58036
466.5,52.4133,-2.038,3.27068,0.57897
469.3,52.6827,-2.11236,3.46091,0.57758
472.1,52.95211,-2.19987,3.63658,0.57618
474.9,53.22224,-2.29846,3.76403,0.57477
477.7,53.4921,-2.40515,3.84852,0.57337
480.5,53.76185,-2.5162,3.85432,0.57196
483.3,54.0316,-2.63168,3.77512,0.57055
486.1,54.3024,-2.74839,3.53053,0.56913
488.9,54.57271,-2.85423,3.19563,0.56772
491.7,54.84359,-2.94437,2.74125,0.5663
494.5,55.11512,-3.01909,2.2484,0.56487
497.3,55.3868,-3.07319,1.73762,0.56345
500.1,55.65902,-3.10652,1.31679,0.56203
502.9,55.93094,-3.12487,0.97964,0.5606
505.7,56.20259,-3.13438,0.78572,0.55917
508.5,56.4751,-3.13788,0.71691,0.55774
511.3,56.7476,-3.14163,0.67219,0.55631
514.1,57.02058,-3.14447,0.65952,0.55488
516.9,57.2938,-3.14597,0.66052,0.55345
519.7,57.56544,-3.14842,0.6726,0.55202
522.5,57.8395,-3.14974,0.67471,0.55059
525.3,58.11351,-3.15248,0.68744,0.54915
528.1,58.38836,-3.15511,0.68983,0.54772
530.9,58.6623,-3.15774,0.67304,0.54629
533.7,58.93623,-3.15906,0.66634,0.54486
536.5,59.2101,-3.16323,0.68361,0.54343
539.3,59.48576,-3.16463,0.66667,0.542
542.1,59.76341,-3.16718,0.66823,0.54058
544.9,60.03924,-3.16849,0.67834,0.53915
547.7,60.3155,-3.16966,0.6988,0.53773
550.5,60.5917,-3.17244,0.69414,0.5363
553.3,60.86695,-3.17426,0.69566,0.53488
556.1,61.1449,-3.16522,0.70896,0.53347
558.9,61.42179,-3.17793,0.69638,0.53205
561.7,61.6987,-3.1873,0.69339,0.53064
564.5,61.97602,-3.18076,0.71167,0.52922
567.3,62.2538,-3.18217,0.72853,0.52782
570.1,62.5321,-3.18363,0.73523,0.52641
572.9,62.8102,-3.18681,0.74259,0.52501
575.7,63.08837,-3.18715,0.75273,0.52361
578.5,63.36685,-3.18746,0.73851,0.52221
581.3,63.64635,-3.18898,0.75196,0.52082
584.1,63.92525,-3.19021,0.76039,0.51943
586.9,64.20437,-3.19416,0.76382,0.51804
589.7,64.48353,-3.19548,0.76762,0.51666
592.5,64.76302,-3.19427,0.804,0.51528
595.3,65.0428,-3.19427,0.81514,0.51391
598.1,65.3219,-3.19614,0.79497,0.51254
600.9,65.6023,-3.19669,0.80695,0.51117
603.7,65.8827,-3.19877,0.83904,0.50981
606.5,66.1636,-3.19745,0.835,0.50846
609.3,66.44455,-3.19942,0.85564,0.50711
612.1,66.7252,-3.20206,0.87413,0.50576
614.9,67.00715,-3.20073,0.88509,0.50442
617.7,67.2885,-3.20207,0.86776,0.50308
620.5,67.56989,-3.20601,0.9063,0.50175
623.3,67.8514,-3.20302,0.91789,0.50043
626.1,68.13305,-3.20626,0.9249,0.49911
628.9,68.4157,-3.20677,0.91319,0.49779
631.7,68.69834,-3.20627,0.93984,0.49648
634.5,68.98138,-3.20766,0.94976,0.49518
637.3,69.26398,-3.20894,0.96336,0.49388
640.1,69.54642,-3.20901,0.99096,0.49259
642.9,69.82805,-3.20915,0.98126,0.4913
645.7,70.10982,-3.21183,0.99786,0.49002
648.5,70.39259,-3.21165,0.99267,0.48875
651.3,70.67647,-3.21243,0.99266,0.48748
654.1,70.9597,-3.21378,1.0027,0.48622
656.9,71.2431,-3.21281,1.01178,0.48497
659.7,71.52684,-3.21511,1.01672,0.48372
662.5,71.8112,-3.21483,1.06837,0.48248
665.3,72.09465,-3.2199,1.08764,0.48124
668.1,72.3788,-3.21467,1.14124,0.48001
670.9,72.663,-3.2172,1.16552,0.47879
673.7,72.9478,-3.21721,1.21208,0.47758
676.5,73.23394,-3.22013,1.24226,0.47637
679.3,73.51909,-3.21752,1.28598,0.47517
682.1,73.80426,-3.22759,1.30233,0.47397
684.9,74.08843,-3.21622,1.36148,0.47279
687.7,74.37393,-3.21884,1.35607,0.47161
690.5,74.6605,-3.22005,1.41588,0.47043
693.3,74.94655,-3.22859,1.39585,0.46927
696.1,75.2327,-3.21884,1.42227,0.46811
698.9,75.51941,-3.22087,1.46268,0.46696
701.7,75.8064,-3.22219,1.47997,0.46581
704.5,76.09311,-3.22191,1.51869,0.46467
707.3,76.38031,-3.2206,1.53037,0.46354
710.1,76.66771,-3.2319,1.53979,0.46242
712.9,76.95329,-3.22124,1.55227,0.4613
715.7,77.24154,-3.2211,1.59171,0.4602
718.5,77.5281,-3.22247,1.60832,0.4591
721.3,77.81563,-3.22302,1.64051,0.458
724.1,78.10306,-3.22138,1.64252,0.45692
726.9,78.39041,-3.22444,1.61667,0.45584
729.7,78.67917,-3.22443,1.60408,0.45477
732.5,78.96706,-3.22385,1.59407,0.4537
735.3,79.25508,-3.22363,1.64464,0.45264
738.1,79.54339,-3.2228,1.70091,0.4516
740.9,79.83122,-3.22344,1.76957,0.45055
742.5,79.99583,-3.2342,1.7883,0.44996