Folder: fsri_materials_database/01_Data/Composite_Deck_Board/STA/N2/30K_min (part 2)

File: Composite_Deck_Board_STA_N2_30KData_210629_R3.csv
##Temp./Â°C,Time/min,Mass loss(subtr.2)/mg,DSC(subtr.2)/mW,Sensit./(uV/mW)
50.71,10.01,-0.00515,0.01468367,0.6235
53.61,11.55058,-0.004673363,0.54572,0.62346
56.51,11.89533,-0.006149329,0.93772,0.62342
59.41,12.14616,-0.001207129,1.2693,0.62336
62.31,12.3555,-0.002963517,1.52138,0.62328
65.21,12.5418,-0.00599503,1.73299,0.6232
68.11,12.71338,-0.001902976,1.90678,0.6231
71.01,12.8752,-0.002707517,2.05349,0.62298
73.91,13.02941,-0.005861012,2.21618,0.62286
76.81,13.17789,-0.003128302,2.33523,0.62272
79.71,13.3222,-0.003559513,2.46594,0.62258
82.61,13.4622,-0.004449678,2.58955,0.62241
85.51,13.59806,-0.00541261,2.70433,0.62224
88.41,13.7308,-0.007364744,2.81796,0.62206
91.31,13.86005,-0.007127561,2.94817,0.62186
94.21,13.98541,-0.007316202,3.0685,0.62165
97.11,14.10932,-0.008993316,3.20858,0.62143
100.01,14.2294,-0.01009752,3.35834,0.6212
102.91,14.34702,-0.008799911,3.56923,0.62095
105.81,14.4627,-0.008795072,3.7621,0.62069
108.71,14.5759,-0.008593826,4.01183,0.62043
111.61,14.68714,-0.008362174,4.3086,0.62015
114.51,14.7963,-0.01008162,4.67889,0.61986
117.41,14.9042,-0.01037591,5.13515,0.61955
120.31,15.01,-0.009101134,5.71661,0.61924
123.21,15.1142,-0.009096768,6.58155,0.61891
126.11,15.21684,-0.008177138,6.82525,0.61858
129.01,15.31766,-0.01085052,6.22296,0.61823
131.91,15.41755,-0.01083547,6.19508,0.61787
134.81,15.5158,-0.009594758,5.35046,0.6175
137.71,15.6125,-0.009322564,4.64758,0.61712
140.61,15.70819,-0.008230722,4.26845,0.61673
143.51,15.8024,-0.009863874,4.08535,0.61633
146.41,15.8958,-0.008981246,3.99658,0.61592
149.31,15.9885,-0.01153798,3.98972,0.61549
152.21,16.08033,-0.01029302,3.99402,0.61506
155.11,16.1714,-0.01159873,4.02312,0.61462
158.01,16.26201,-0.01161722,4.05604,0.61416
160.91,16.35203,-0.01162303,4.10304,0.6137
163.81,16.44141,-0.01029983,4.15244,0.61322
166.71,16.5303,-0.008011352,4.19748,0.61274
169.61,16.61865,-0.006346737,4.25695,0.61224
172.51,16.70648,-0.009730399,4.30025,0.61174
175.41,16.794,-0.01042003,4.35069,0.61123
178.31,16.88087,-0.009088804,4.38454,0.6107
181.21,16.96726,-0.01179322,4.4359,0.61017
184.11,17.05315,-0.01315987,4.47683,0.60963
187.01,17.1385,-0.01294527,4.54015,0.60907
189.91,17.22318,-0.01188196,4.60685,0.60851
192.81,17.3075,-0.01347548,4.66885,0.60794
195.71,17.39144,-0.01336991,4.70296,0.60736
198.61,17.47498,-0.01442071,4.71817,0.60677
201.51,17.5583,-0.01568001,4.77623,0.60617
204.41,17.64114,-0.0156829,4.82256,0.60556
207.31,17.7238,-0.01700027,4.85596,0.60495
210.21,17.80631,-0.01700117,4.90132,0.60432
213.11,17.88839,-0.01601035,4.96043,0.60369
216.01,17.97044,-0.01700397,4.97881,0.60304
218.91,18.05217,-0.01768191,5.04495,0.60239
221.81,18.13353,-0.01766,5.08704,0.60173
224.71,18.21472,-0.01766004,5.11797,0.60107
227.61,18.29577,-0.01799534,5.19347,0.60039
230.51,18.3765,-0.01986705,5.23924,0.59971
233.41,18.45733,-0.02127012,5.30399,0.59901
236.31,18.53782,-0.02259462,5.34831,0.59831
239.21,18.6182,-0.02248278,5.40889,0.5976
242.11,18.69855,-0.02476538,5.42683,0.59689
245.01,18.77863,-0.0268191,5.49638,0.59617
247.91,18.85857,-0.03196768,5.51842,0.59543
250.81,18.9385,-0.03422638,5.57069,0.5947
253.71,19.01819,-0.0370829,5.61685,0.59395
256.61,19.09777,-0.04116326,5.66204,0.5932
259.51,19.17719,-0.04371565,5.68887,0.59244
262.41,19.2567,-0.04766441,5.72278,0.59167
265.31,19.33592,-0.05496252,5.70874,0.59089
268.21,19.4152,-0.06062808,5.74904,0.59011
271.11,19.49439,-0.06848339,5.78201,0.58932
274.01,19.5735,-0.07292249,5.78861,0.58853
276.91,19.65266,-0.08130847,5.80637,0.58772
279.81,19.73184,-0.08954485,5.84552,0.58692
282.71,19.81097,-0.09846388,5.88401,0.5861
285.61,19.89009,-0.10958,5.90767,0.58528
288.51,19.9691,-0.12308,5.95656,0.58445
291.41,20.04825,-0.13403,5.97283,0.58362
294.31,20.12728,-0.15152,6.02266,0.58278
297.21,20.20642,-0.17027,6.03677,0.58193
300.11,20.28567,-0.18815,6.05671,0.58108
303.01,20.36476,-0.21163,6.07302,0.58022
305.91,20.44383,-0.23486,6.06065,0.57935
308.81,20.52274,-0.25825,6.06349,0.57848
311.71,20.6019,-0.28319,6.02844,0.57761
314.61,20.68134,-0.30711,6.00272,0.57673
317.51,20.76063,-0.33353,5.98728,0.57584
320.41,20.83979,-0.36212,5.94369,0.57495
323.31,20.9194,-0.38986,5.94785,0.57405
326.21,20.99879,-0.41341,5.91981,0.57315
329.11,21.0783,-0.44111,5.94715,0.57225
332.01,21.15726,-0.46927,5.97611,0.57133
334.91,21.23722,-0.49709,6.01515,0.57042
337.81,21.31699,-0.52485,6.06139,0.5695
340.71,21.39678,-0.55513,6.12947,0.56857
343.61,21.47664,-0.58393,6.21359,0.56764
346.51,21.55667,-0.61334,6.3063,0.5667
349.41,21.6368,-0.64227,6.4143,0.56576
352.31,21.71686,-0.67448,6.55445,0.56482
355.21,21.7972,-0.70958,6.70879,0.56387
358.11,21.8775,-0.74198,6.92083,0.56292
361.01,21.958,-0.78014,7.15861,0.56196
363.91,22.03847,-0.82025,7.43467,0.561
366.81,22.11911,-0.86131,7.73862,0.56004
369.71,22.19995,-0.91004,8.12216,0.55907
372.61,22.28094,-0.95871,8.53338,0.5581
375.51,22.36201,-1.01432,8.93019,0.55713
378.41,22.4431,-1.07234,9.30175,0.55615
381.31,22.52431,-1.13314,9.63216,0.55516
384.21,22.60568,-1.19845,9.82905,0.55418
387.11,22.6872,-1.26269,9.82199,0.55319
390.01,22.76889,-1.32521,9.54265,0.5522
392.91,22.85088,-1.38209,8.96581,0.5512
395.81,22.93311,-1.43163,8.08033,0.55021
398.71,23.01539,-1.47172,7.03037,0.5492
401.61,23.09785,-1.5027,5.9121,0.5482
404.51,23.18044,-1.52175,4.91272,0.54719
407.41,23.26269,-1.53588,4.172,0.54619
410.31,23.34528,-1.54315,3.68049,0.54517
413.21,23.42792,-1.55292,3.38079,0.54416
416.11,23.51053,-1.55758,3.20958,0.54314
419.01,23.59337,-1.56412,3.10637,0.54212
421.91,23.6763,-1.57129,3.06646,0.5411
424.81,23.75956,-1.57636,3.05282,0.54008
427.71,23.84292,-1.58439,3.03915,0.53905
430.61,23.92634,-1.59209,3.05298,0.53803
433.51,24.01022,-1.59967,3.09289,0.537
436.41,24.0941,-1.60442,3.13193,0.53597
439.31,24.1781,-1.61254,3.20224,0.53493
442.21,24.26226,-1.62054,3.28575,0.5339
445.11,24.34658,-1.63204,3.41037,0.53286
448.01,24.4312,-1.63917,3.5559,0.53183
450.91,24.51574,-1.65412,3.7208,0.53079
453.81,24.60042,-1.66773,3.92264,0.52975
456.71,24.68514,-1.68168,4.1547,0.5287
459.61,24.7704,-1.69987,4.44921,0.52766
462.51,24.85531,-1.72161,4.75049,0.52662
465.41,24.94086,-1.74235,5.12298,0.52557
468.31,25.02628,-1.77167,5.52774,0.52452
471.21,25.1117,-1.80608,5.96523,0.52348
474.11,25.19738,-1.84454,6.43649,0.52243
477.01,25.28343,-1.88683,6.9188,0.52138
479.91,25.36949,-1.9374,7.38794,0.52033
482.81,25.45557,-1.99753,7.80476,0.51928
485.71,25.54199,-2.07107,8.24495,0.51823
488.61,25.62852,-2.13933,8.62603,0.51718
491.51,25.71513,-2.22561,8.93171,0.51613
494.41,25.802,-2.32114,9.16262,0.51507
497.31,25.88898,-2.42602,9.22329,0.51402
500.21,25.9762,-2.53557,9.10892,0.51297
503.11,26.06318,-2.64848,8.77005,0.51192
506.01,26.15095,-2.76431,8.14744,0.51086
508.91,26.23927,-2.86761,7.21832,0.50981
511.81,26.328,-2.95954,6.07272,0.50876
514.71,26.4169,-3.04218,4.79976,0.50771
517.61,26.506,-3.087,3.49849,0.50665
520.51,26.5954,-3.13215,2.29455,0.5056
523.41,26.68468,-3.15519,1.26869,0.50455
526.31,26.77419,-3.1684,0.48337,0.5035
529.21,26.86328,-3.17289,0.06462123,0.50245
532.11,26.9524,-3.17596,-0.19272,0.5014
535.01,27.04162,-3.17901,-0.29561,0.50035
537.91,27.13082,-3.18007,-0.35212,0.4993
540.81,27.22,-3.18166,-0.37975,0.49825
543.71,27.30967,-3.18429,-0.40202,0.4972
546.61,27.39912,-3.18728,-0.4429,0.49615
549.51,27.48889,-3.18857,-0.46699,0.4951
552.41,27.57855,-3.18988,-0.51135,0.49406
555.31,27.66855,-3.19131,-0.55774,0.49301
558.21,27.7586,-3.19265,-0.57997,0.49197
561.11,27.8489,-3.19532,-0.60497,0.49093
564.01,27.939,-3.20179,-0.62254,0.48989
566.91,28.02915,-3.19465,-0.6446,0.48885
569.81,28.11976,-3.19879,-0.68172,0.48781
572.71,28.21003,-3.20469,-0.71003,0.48677
575.61,28.30105,-3.20469,-0.74965,0.48573
578.51,28.39197,-3.20605,-0.76219,0.4847
581.41,28.4829,-3.20603,-0.79303,0.48366
584.31,28.57402,-3.21031,-0.81437,0.48263
587.21,28.66508,-3.21219,-0.84566,0.4816
590.11,28.75627,-3.21293,-0.89489,0.48057
593.01,28.84767,-3.21463,-0.94454,0.47955
595.91,28.9392,-3.21578,-0.96413,0.47852
598.81,29.0308,-3.21863,-1.00648,0.4775
601.71,29.12267,-3.21812,-1.01889,0.47647
604.61,29.2145,-3.21391,-1.03735,0.47545
607.51,29.3066,-3.22151,-1.03863,0.47443
610.41,29.39879,-3.22312,-1.07297,0.47342
613.31,29.49115,-3.22179,-1.07696,0.4724
616.21,29.5835,-3.22598,-1.14158,0.47139
619.11,29.6758,-3.22552,-1.12858,0.47038
622.01,29.7683,-3.22856,-1.17438,0.46937
624.91,29.861,-3.23036,-1.16688,0.46836
627.81,29.95365,-3.23306,-1.17539,0.46736
630.71,30.0465,-3.23223,-1.20168,0.46636
633.61,30.1395,-3.23091,-1.23263,0.46536
636.51,30.2325,-3.23091,-1.25459,0.46436
639.41,30.32576,-3.23318,-1.24078,0.46336
642.31,30.4191,-3.23572,-1.2535,0.46237
645.21,30.51261,-3.23705,-1.25857,0.46138
648.11,30.60603,-3.23704,-1.23381,0.46039
651.01,30.6997,-3.23837,-1.23056,0.4594
653.91,30.7935,-3.23979,-1.22684,0.45842
656.81,30.88737,-3.23739,-1.23809,0.45744
659.71,30.981,-3.24164,-1.23334,0.45646
662.61,31.0752,-3.24199,-1.24189,0.45548
665.51,31.16945,-3.24067,-1.25445,0.45451
668.41,31.2634,-3.24199,-1.26629,0.45354
671.31,31.3577,-3.2433,-1.30753,0.45257
674.21,31.4521,-3.2433,-1.35405,0.4516
677.11,31.54637,-3.24461,-1.36196,0.45064
680.01,31.6409,-3.24487,-1.36523,0.44968
682.91,31.7355,-3.2443,-1.33971,0.44872
685.81,31.83,-3.24561,-1.34951,0.44777
688.71,31.92492,-3.2467,-1.33852,0.44682
691.61,32.01967,-3.24672,-1.38247,0.44587
694.51,32.1147,-3.24802,-1.34738,0.44492
697.41,32.2097,-3.24934,-1.39001,0.44398
700.31,32.30503,-3.24934,-1.40898,0.44304
703.21,32.40011,-3.25001,-1.45303,0.4421
706.11,32.49538,-3.24802,-1.49534,0.44116
709.01,32.59067,-3.25066,-1.47535,0.44023
711.91,32.686,-3.2503,-1.4651,0.4393
714.81,32.78156,-3.24933,-1.46732,0.43837
717.71,32.8771,-3.25194,-1.50827,0.43745
720.61,32.97252,-3.25177,-1.48397,0.43653
723.51,33.0681,-3.24933,-1.42931,0.43561
726.41,33.16342,-3.25074,-1.3641,0.4347
729.31,33.25895,-3.25263,-1.31843,0.43379
731.51,33.3326,-3.25263,-1.26944,0.4331