Folder: fsri_materials_database/01_Data/Composite_Deck_Board/STA/N2/3K_min

Note: 01_Data/README.md
# Materials and Products Database
## 01_Data

Raw data generated from each apparatus are included here in plain-text format. The data is organized first by material, next by the short name of test apparatus used, and where applicable additional filtering by test settings.

### material.json

Each material directory contains a json file of the same name as the material. This file links the data stored in the repository as well as data and graphs produced by the accompanying scripts (__02_Scripts__) to the respective landing page for the material on the front-end website.

File: Composite_Deck_Board_STA_N2_3KData_210628_R1.csv
##Temp./Â°C,Time/min,Mass loss(subtr.2)/mg,DSC(subtr.2)/mW,Sensit./(uV/mW)
48.912,10.01,-0.00988,0.03265465,0.5841
51.912,13.9006,-0.01098135,0.244,0.58551
54.912,15.47456,-0.01100327,0.29435,0.5869
57.912,16.81271,-0.01349996,0.3314,0.58826
60.912,18.02577,-0.01382949,0.35242,0.58961
63.912,19.17843,-0.01492149,0.38085,0.59092
66.912,20.2827,-0.01447451,0.41184,0.59222
69.912,21.3567,-0.01489558,0.41589,0.59349
72.912,22.41297,-0.01623975,0.42354,0.59474
75.912,23.45477,-0.01755815,0.42704,0.59596
78.912,24.48469,-0.01491952,0.44068,0.59716
81.912,25.5098,-0.01691407,0.45266,0.59834
84.912,26.5271,-0.01712487,0.47336,0.59949
87.912,27.5349,-0.01681718,0.47626,0.60062
90.912,28.5356,-0.01552182,0.49974,0.60172
93.912,29.52807,-0.01697904,0.51841,0.6028
96.912,30.515,-0.01569,0.53093,0.60386
99.912,31.4972,-0.01701,0.55313,0.6049
102.912,32.47245,-0.01568189,0.58567,0.6059
105.912,33.45143,-0.01695486,0.61738,0.60689
108.912,34.42581,-0.01626024,0.66188,0.60785
111.912,35.39635,-0.01459708,0.70017,0.60879
114.912,36.36907,-0.01568992,0.7492,0.6097
117.912,37.33902,-0.01471,0.8299,0.61059
120.912,38.3111,-0.01518628,0.92331,0.61146
123.912,39.28151,-0.01447987,1.11316,0.6123
126.912,40.24666,-0.01481992,0.75049,0.61312
129.912,41.2057,-0.01612986,0.84615,0.61391
132.912,42.16133,-0.01317023,0.62127,0.61468
135.912,43.11537,-0.01381766,0.56197,0.61543
138.912,44.07347,-0.01414972,0.5596,0.61615
141.912,45.02872,-0.01304882,0.55012,0.61685
144.912,45.97795,-0.01288293,0.54929,0.61752
147.912,46.9289,-0.01250999,0.57261,0.61817
150.912,47.87802,-0.01287672,0.58334,0.6188
153.912,48.8234,-0.01221899,0.58257,0.6194
156.912,49.7712,-0.01207,0.61268,0.61998
159.912,50.71754,-0.01042848,0.59509,0.62054
162.912,51.66103,-0.01076984,0.61838,0.62107
165.912,52.60499,-0.01157901,0.61836,0.62158
168.912,53.5474,-0.01021002,0.62176,0.62206
171.912,54.48945,-0.008890014,0.63732,0.62252
174.912,55.4322,-0.01163042,0.6425,0.62296
177.912,56.378,-0.01097942,0.65303,0.62337
180.912,57.32189,-0.01229992,0.65416,0.62376
183.912,58.2642,-0.01314602,0.63237,0.62413
186.912,59.2049,-0.0135165,0.63479,0.62447
189.912,60.146,-0.0136,0.63265,0.62479
192.912,61.0873,-0.0151559,0.64146,0.62508
195.912,62.02609,-0.01615663,0.62923,0.62536
198.912,62.96436,-0.01788954,0.65595,0.62561
201.912,63.8994,-0.01800033,0.68528,0.62583
204.912,64.83661,-0.02084695,0.71579,0.62604
207.912,65.774,-0.02362055,0.70765,0.62622
210.912,66.71333,-0.02423095,0.70893,0.62637
213.912,67.6521,-0.02688,0.72465,0.62651
216.912,68.58924,-0.02922775,0.73514,0.62662
219.912,69.52869,-0.03323812,0.7414,0.62671
222.912,70.4673,-0.03554999,0.75012,0.62677
225.912,71.40831,-0.0421215,0.75219,0.62682
228.912,72.3462,-0.04342367,0.75071,0.62684
231.912,73.28438,-0.04991732,0.7834,0.62683
234.912,74.22378,-0.05693558,0.7885,0.62681
237.912,75.1638,-0.06440051,0.77551,0.62676
240.912,76.1006,-0.07358972,0.77701,0.62669
243.912,77.04089,-0.08441686,0.79702,0.6266
246.912,77.98069,-0.09676383,0.80485,0.62649
249.912,78.91623,-0.10882,0.82623,0.62635
252.912,79.854,-0.12495,0.85131,0.62619
255.912,80.7899,-0.14225,0.85433,0.62601
258.912,81.7326,-0.16351,0.85468,0.62581
261.912,82.67729,-0.18376,0.85886,0.62559
264.912,83.61761,-0.20819,0.85265,0.62534
267.912,84.55901,-0.23651,0.87044,0.62508
270.912,85.49818,-0.26326,0.8581,0.62479
273.912,86.43712,-0.28948,0.85351,0.62448
276.912,87.378,-0.32084,0.86326,0.62415
279.912,88.3215,-0.34967,0.86077,0.6238
282.912,89.2633,-0.37647,0.84633,0.62343
285.912,90.2075,-0.40563,0.84523,0.62303
288.912,91.15202,-0.43765,0.85076,0.62262
291.912,92.09446,-0.46592,0.85294,0.62218
294.912,93.0376,-0.49616,0.85667,0.62173
297.912,93.98231,-0.52391,0.86053,0.62125
300.912,94.9273,-0.55602,0.89124,0.62076
303.912,95.87144,-0.58904,0.8878,0.62024
306.912,96.81453,-0.62238,0.92072,0.6197
309.912,97.76261,-0.65597,0.93743,0.61915
312.912,98.71131,-0.69298,0.96777,0.61857
315.912,99.65826,-0.72758,0.99981,0.61797
318.912,100.606,-0.76996,1.02442,0.61736
321.912,101.558,-0.8118,1.06324,0.61672
324.912,102.508,-0.86094,1.10191,0.61607
327.912,103.455,-0.91198,1.15843,0.61539
330.912,104.41,-0.96964,1.22746,0.6147
333.912,105.36,-1.03446,1.3122,0.61399
336.912,106.314,-1.10641,1.3593,0.61325
339.912,107.267,-1.18635,1.43153,0.6125
342.912,108.223,-1.27141,1.46684,0.61174
345.912,109.178,-1.3551,1.43609,0.61095
348.912,110.135,-1.43286,1.33236,0.61014
351.912,111.092,-1.49525,1.15176,0.60932
354.912,112.047,-1.54189,0.93368,0.60847
357.912,113.002,-1.57084,0.7755,0.60761
360.912,113.958,-1.58729,0.67169,0.60674
363.912,114.9164,-1.59789,0.65208,0.60584
366.912,115.878,-1.60175,0.6251,0.60493
369.912,116.839,-1.60833,0.59983,0.604
372.912,117.797,-1.61555,0.60003,0.60305
375.912,118.759,-1.6182,0.58496,0.60208
378.912,119.724,-1.62369,0.58378,0.6011
381.912,120.688,-1.6268,0.56968,0.6001
384.912,121.65,-1.63508,0.57303,0.59908
387.912,122.616,-1.63861,0.58806,0.59805
390.912,123.583,-1.64486,0.57446,0.597
393.912,124.55,-1.65287,0.57886,0.59593
396.912,125.5197,-1.66008,0.57709,0.59485
399.912,126.4857,-1.66804,0.54702,0.59375
402.912,127.453,-1.67589,0.56848,0.59264
405.912,128.423,-1.68643,0.56742,0.59151
408.912,129.399,-1.69465,0.57255,0.59037
411.912,130.369,-1.70799,0.58785,0.5892
414.912,131.34,-1.72087,0.63181,0.58803
417.912,132.315,-1.73622,0.64726,0.58684
420.912,133.287,-1.75421,0.66154,0.58563
423.912,134.264,-1.77573,0.69395,0.58441
426.912,135.24,-1.7993,0.75224,0.58318
429.912,136.22,-1.83023,0.78911,0.58193
432.912,137.196,-1.86169,0.82737,0.58066
435.912,138.175,-1.90373,0.88164,0.57938
438.912,139.155,-1.95134,0.95598,0.57809
441.912,140.134,-2.00809,1.02284,0.57678
444.912,141.113,-2.07635,1.10276,0.57546
447.912,142.096,-2.15945,1.18899,0.57413
450.912,143.0754,-2.2501,1.26273,0.57278
453.912,144.058,-2.35746,1.34176,0.57142
456.912,145.047,-2.47939,1.40477,0.57005
459.912,146.035,-2.60845,1.41762,0.56866
462.912,147.021,-2.74311,1.37737,0.56726
465.912,148.003,-2.87686,1.29696,0.56585
468.912,148.987,-2.99997,1.14461,0.56442
471.912,149.975,-3.10476,0.93873,0.56299
474.912,150.968,-3.1834,0.70569,0.56154
477.912,151.957,-3.23577,0.50798,0.56008
480.912,152.946,-3.26298,0.34707,0.5586
483.912,153.935,-3.27452,0.2741,0.55712
486.912,154.927,-3.27952,0.2742,0.55562
489.912,155.917,-3.28396,0.23546,0.55412
492.912,156.905,-3.28577,0.20811,0.5526
495.912,157.897,-3.29062,0.18817,0.55107
498.912,158.891,-3.29159,0.17614,0.54953
501.912,159.889,-3.29333,0.18044,0.54797
504.912,160.884,-3.29753,0.18485,0.54641
507.912,161.88,-3.29454,0.16666,0.54484
510.912,162.878,-3.30013,0.1764,0.54326
513.912,163.874,-3.30277,0.16968,0.54166
516.912,164.8714,-3.30381,0.1607,0.54006
519.912,165.8763,-3.30606,0.17577,0.53845
522.912,166.876,-3.30836,0.16783,0.53683
525.912,167.877,-3.30869,0.16406,0.53519
528.912,168.8771,-3.30676,0.15489,0.53355
531.912,169.878,-3.30946,0.15927,0.5319
534.912,170.876,-3.31011,0.13725,0.53024
537.912,171.883,-3.31299,0.12446,0.52858
540.912,172.8864,-3.31298,0.13245,0.5269
543.912,173.889,-3.3133,0.1258,0.52521
546.912,174.895,-3.31374,0.13016,0.52352
549.912,175.907,-3.31365,0.13112,0.52182
552.912,176.914,-3.31634,0.09894289,0.52011
555.912,177.922,-3.31834,0.07868716,0.51839
558.912,178.931,-3.31505,0.10174,0.51667
561.912,179.943,-3.31767,0.10331,0.51493
564.912,180.948,-3.31736,0.14012,0.51319
567.912,181.964,-3.31571,0.12971,0.51145
570.912,182.973,-3.32042,0.1125,0.50969
573.912,183.9873,-3.31955,0.12176,0.50793
576.912,184.995,-3.3216,0.13356,0.50616
579.912,186.012,-3.32152,0.15712,0.50439
582.912,187.028,-3.32027,0.14238,0.50261
585.912,188.042,-3.32022,0.15655,0.50082
588.912,189.0552,-3.32308,0.17937,0.49903
591.912,190.072,-3.31429,0.1581,0.49723
594.912,191.089,-3.32206,0.15708,0.49542
597.912,192.108,-3.31926,0.18114,0.49361
600.912,193.125,-3.32179,0.14285,0.49179
603.912,194.141,-3.32427,0.13284,0.48997
606.912,195.163,-3.32304,0.13064,0.48814
609.912,196.184,-3.32208,0.10726,0.48631
612.912,197.208,-3.32449,0.08789592,0.48447
615.912,198.226,-3.32571,0.08841377,0.48263
618.912,199.251,-3.32621,0.0852457,0.48078
621.912,200.276,-3.32576,0.10665,0.47893
624.912,201.298,-3.32525,0.09902924,0.47708
627.912,202.319,-3.32569,0.0912305,0.47522
630.912,203.345,-3.32231,0.09189629,0.47335
633.912,204.373,-3.3223,0.10021,0.47148
636.912,205.3957,-3.32454,0.08810526,0.46961
639.912,206.421,-3.32569,0.09678226,0.46774
642.912,207.448,-3.32473,0.07491583,0.46586
645.912,208.476,-3.32431,0.01582041,0.46397
648.912,209.504,-3.32685,0.00602128,0.46209
651.912,210.535,-3.32404,0.02797715,0.4602
654.912,211.562,-3.32438,0.01574629,0.45831
657.912,212.589,-3.32427,0.04560142,0.45641
660.912,213.62,-3.32372,-0.03042443,0.45452
663.912,214.6502,-3.32372,0.01533716,0.45262
666.912,215.684,-3.32305,-0.01703293,0.45071
669.912,216.711,-3.32053,-0.01456769,0.44881
672.912,217.742,-3.32185,0.005122348,0.4469
675.912,218.775,-3.32197,-0.000510214,0.44499
678.912,219.808,-3.32195,-0.01599176,0.44308
681.912,220.833,-3.32292,-0.001947636,0.44117
684.912,221.874,-3.32196,0.02777099,0.43926
687.912,222.909,-3.32241,0.04924503,0.43734
690.912,223.942,-3.32059,0.03418749,0.43543
693.912,224.978,-3.3224,0.01200698,0.43351
696.912,226.016,-3.32218,0.009082449,0.43159
699.912,227.0549,-3.3201,0.02085473,0.42967
702.912,228.0909,-3.32009,0.06400928,0.42775
705.912,229.122,-3.32141,0.05013854,0.42583
708.912,230.163,-3.31911,0.09737845,0.42391
711.912,231.202,-3.31658,0.06246376,0.42198
714.912,232.239,-3.31988,0.07852797,0.42006
717.912,233.279,-3.3196,0.06879179,0.41814
720.912,234.321,-3.31922,0.07400645,0.41622
723.912,235.361,-3.31878,0.11158,0.41429
726.912,236.405,-3.31999,0.1799,0.41237
729.912,237.448,-3.31889,0.16873,0.41045
732.912,238.4902,-3.31889,0.15334,0.40852
735.912,239.536,-3.31821,0.14379,0.4066
738.912,240.578,-3.31856,0.21015,0.40468
741.912,241.622,-3.32043,0.25374,0.40276
744.912,242.666,-3.31586,0.33012,0.40084
746.812,243.33,-3.319,0.3322,0.39963