Folder: fsri_materials_database/01_Data/Polyester_Felt/MCC (part 2)

File: Polyester_Felt_MCC_30K_min_210709_R3.txt
Sample ID:	C:\MCC\MCC Cal\Test\Polyester_Felt\Polyester_Felt_MCC_30K_min_21_07_09_R3.txt
Sample Weight (mg):	4.94
Heating Rate (C/s):	1
Combustor Temp (C):	900
N2 Flow Rate (cc/min):	80
O2 Flow Rate (cc/min):	20
Calibration File:	C:\MCC\MCC Cal\Coeff1 JN10440_30_210304.txt.txt
T Correction Coefficients:	0	1.024463	0
Time Shift (s):	14
*
Time (s)	Temperature (C)	N2 flow rate (cc/min)	O2 flow rate (cc/min)	Flow Rate (cc/min)	Oxygen (%)	HRR (W/g)	Heating rate (C/s)
0.000	106.990	79.997	19.994	99.918	20.122	-0.007	-0.009
4.000	107.010	79.997	19.996	99.922	20.124	-0.088	-0.008
8.000	106.971	79.993	19.996	99.929	20.119	0.203	-0.024
12.000	106.977	79.993	19.995	100.039	20.102	1.305	0.008
16.000	107.159	79.993	19.996	100.193	20.082	2.554	0.043
20.000	107.583	79.993	19.995	100.293	20.060	3.958	0.128
24.000	108.294	79.994	19.995	100.358	20.048	4.670	0.242
28.000	109.256	79.992	19.997	100.290	20.037	5.399	0.238
32.000	110.567	79.992	19.996	100.429	20.036	5.461	0.326
36.000	112.002	79.992	19.995	100.365	20.033	5.633	0.382
40.001	113.738	79.994	19.997	100.367	20.036	5.476	0.428
44.000	115.676	79.994	19.996	100.379	20.032	5.733	0.494
48.000	117.776	79.994	19.995	100.371	20.031	5.775	0.545
52.000	120.008	79.995	19.996	100.391	20.030	5.816	0.561
56.000	122.470	79.995	19.996	100.388	20.028	5.956	0.611
60.000	125.109	79.995	19.997	100.395	20.027	6.065	0.674
64.000	127.821	79.996	19.997	100.392	20.024	6.231	0.702
68.001	130.698	79.995	19.996	100.402	20.025	6.180	0.712
72.001	133.710	79.995	19.996	100.400	20.024	6.195	0.755
76.000	136.861	79.996	19.995	100.397	20.024	6.212	0.827
80.001	140.120	79.995	19.995	100.409	20.024	6.212	0.830
84.000	143.441	79.993	19.996	100.399	20.023	6.279	0.838
88.000	146.923	79.993	19.995	100.403	20.024	6.243	0.882
92.001	150.477	79.993	19.995	100.399	20.023	6.286	0.915
96.001	154.106	79.993	19.995	100.400	20.025	6.160	0.907
100.000	157.719	79.994	19.995	100.401	20.022	6.335	0.923
104.001	161.479	79.993	19.995	100.395	20.022	6.339	0.935
108.000	165.257	79.994	19.996	100.392	20.024	6.212	0.996
112.000	169.091	79.992	19.995	100.383	20.026	6.073	0.945
116.000	173.048	79.992	19.996	100.384	20.028	5.952	0.992
120.000	176.986	79.993	19.996	100.368	20.023	6.270	0.995
124.000	181.025	79.994	19.996	100.360	20.026	6.071	1.023
128.000	185.086	79.996	19.995	100.356	20.024	6.206	1.055
132.000	189.173	79.995	19.996	100.411	20.027	6.037	1.004
136.000	193.310	79.994	19.996	100.351	20.028	5.953	1.024
140.000	197.440	79.992	19.997	100.327	20.028	5.984	1.055
144.000	201.637	79.994	19.997	100.327	20.033	5.671	1.043
148.001	205.807	79.994	19.997	100.323	20.032	5.696	1.052
152.000	210.028	79.996	19.996	100.317	20.032	5.717	1.071
156.001	214.204	79.997	19.995	100.239	20.030	5.856	1.055
160.001	218.330	79.995	19.994	100.375	20.033	5.644	1.026
164.001	222.513	79.993	19.995	100.289	20.032	5.727	1.036
168.001	226.622	79.994	19.996	100.279	20.039	5.254	1.031
172.000	230.788	79.993	19.996	100.280	20.037	5.389	1.029
176.000	234.912	79.993	19.996	100.203	20.041	5.158	1.043
180.001	239.064	79.995	19.995	100.275	20.048	4.670	1.021
184.000	243.182	79.995	19.995	100.270	20.052	4.415	1.047
188.000	247.256	79.993	19.996	100.247	20.053	4.355	1.018
192.000	251.352	79.994	19.995	100.246	20.053	4.349	1.034
196.000	255.392	79.993	19.994	100.250	20.054	4.303	1.039
200.001	259.380	79.992	19.995	100.246	20.057	4.130	1.008
204.000	263.284	79.992	19.995	100.235	20.056	4.204	0.982
208.000	267.275	79.993	19.996	100.244	20.056	4.170	1.002
212.000	271.261	79.995	19.996	100.246	20.055	4.225	1.000
216.001	275.215	79.994	19.995	100.244	20.058	4.051	1.014
220.000	279.192	79.993	19.995	100.243	20.058	4.071	1.029
224.000	283.074	79.993	19.995	100.244	20.052	4.463	0.990
228.000	286.980	79.993	19.996	100.220	20.056	4.171	0.961
232.000	290.915	79.995	19.997	100.243	20.057	4.133	0.968
236.001	294.914	79.996	19.997	100.240	20.055	4.233	0.987
240.000	298.833	79.996	19.996	100.236	20.057	4.102	0.966
244.000	302.803	79.993	19.994	100.238	20.055	4.278	0.992
248.001	306.747	79.991	19.995	100.231	20.053	4.380	0.983
252.000	310.729	79.993	19.997	100.235	20.054	4.307	0.994
256.000	314.755	79.993	19.995	100.221	20.055	4.273	1.000
260.000	318.763	79.993	19.996	100.236	20.054	4.290	1.023
264.000	322.751	79.995	19.995	100.226	20.050	4.598	1.030
268.000	326.789	79.994	19.995	100.211	20.048	4.695	1.018
272.000	330.829	79.995	19.996	100.216	20.046	4.797	1.010
276.000	334.893	79.994	19.996	100.219	20.048	4.722	1.029
280.000	338.933	79.992	19.995	100.217	20.046	4.794	1.024
284.000	342.952	79.994	19.995	100.210	20.045	4.904	1.012
288.000	347.006	79.996	19.996	100.210	20.045	4.909	1.022
292.001	351.062	79.995	19.996	100.207	20.044	4.940	1.007
296.000	355.182	79.992	19.996	100.203	20.039	5.287	1.018
300.000	359.207	79.995	19.996	100.211	20.035	5.540	0.999
304.001	363.301	79.994	19.996	100.211	20.031	5.752	1.024
308.000	367.401	79.994	19.996	100.207	20.024	6.234	1.046
312.000	371.462	79.996	19.995	100.208	20.011	7.027	1.012
316.000	375.544	79.997	19.996	100.203	19.997	7.894	1.026
320.000	379.602	79.995	19.997	100.212	19.982	8.882	0.972
324.000	383.709	79.993	19.996	100.229	19.957	10.438	1.030
328.000	387.732	79.993	19.995	100.231	19.932	12.044	1.040
332.000	391.832	79.994	19.995	100.248	19.900	14.045	1.019
336.000	395.968	79.993	19.996	100.263	19.856	16.857	1.044
340.000	400.049	79.994	19.996	100.288	19.782	21.561	1.033
344.000	404.057	79.993	19.995	100.333	19.681	28.012	0.998
348.000	408.119	79.995	19.995	100.385	19.544	36.721	1.018
352.000	412.175	79.992	19.995	100.444	19.384	46.881	0.985
356.000	416.316	79.993	19.996	100.484	19.194	58.923	1.040
360.000	420.475	79.994	19.996	100.550	18.974	73.135	1.045
364.000	424.593	79.994	19.996	100.533	18.804	84.023	1.026
368.000	428.735	79.998	19.995	100.633	18.600	97.164	1.020
372.000	432.889	79.994	19.995	100.873	18.244	120.127	1.015
376.001	437.005	79.995	19.996	100.966	17.814	148.256	1.050
380.000	441.078	79.995	19.996	101.070	17.287	181.576	1.015
384.000	445.116	79.994	19.996	101.453	16.426	237.070	1.037
388.000	449.133	79.996	19.995	101.659	15.700	284.637	1.013
392.000	453.132	79.996	19.995	101.083	15.361	306.192	1.001
396.000	457.157	79.998	19.996	101.780	15.165	318.483	1.011
400.000	461.122	79.995	19.996	101.927	15.086	323.103	0.994
404.000	465.110	79.993	19.996	101.764	15.202	315.159	0.971
408.000	469.102	79.992	19.996	101.669	15.555	292.141	0.961
412.000	473.085	79.993	19.997	101.556	16.099	256.863	0.973
416.000	477.135	79.994	19.996	101.382	16.768	213.874	0.980
420.000	481.138	79.994	19.995	101.226	17.452	169.956	0.977
424.000	485.136	79.995	19.995	101.053	18.077	129.955	0.988
428.000	489.194	79.992	19.996	100.902	18.598	96.701	1.018
432.000	493.231	79.995	19.994	100.723	19.015	70.220	0.997
436.000	497.322	79.996	19.996	100.574	19.329	50.271	1.027
440.000	501.354	79.995	19.996	100.454	19.558	35.718	1.025
444.000	505.438	79.996	19.995	100.358	19.715	25.760	1.026
448.000	509.492	79.996	19.995	100.307	19.823	18.956	1.048
452.000	513.505	79.996	19.995	100.242	19.889	14.732	1.013
456.000	517.604	79.996	19.995	100.212	19.938	11.657	1.034
460.000	521.702	79.994	19.995	100.192	19.965	9.940	1.001
464.000	525.819	79.995	19.995	100.168	19.978	9.091	1.053
468.000	529.920	79.994	19.996	100.169	19.987	8.524	1.002
472.000	534.004	79.997	19.996	100.166	19.997	7.904	1.015
476.000	538.136	79.997	19.995	100.165	19.999	7.783	1.004
480.000	542.163	79.997	19.995	100.121	19.997	7.928	0.958
484.000	546.209	79.998	19.995	100.230	20.000	7.740	0.770
488.000	550.490	79.994	19.997	100.154	20.002	7.621	1.100
492.000	554.498	79.995	19.996	100.160	20.002	7.578	0.960
496.000	558.611	79.995	19.996	100.162	20.000	7.732	1.016
500.000	562.690	79.993	19.997	100.148	20.003	7.515	1.041
504.000	566.757	79.994	19.996	100.155	19.999	7.786	0.981
508.000	570.868	79.994	19.996	100.160	19.997	7.892	1.022
512.000	575.009	79.994	19.996	100.155	19.999	7.768	1.054
516.001	579.109	79.995	19.994	100.151	19.997	7.896	1.055
520.000	583.171	79.994	19.995	100.136	19.997	7.896	0.996
524.000	587.216	79.997	19.997	100.156	19.997	7.890	1.019
528.000	591.346	79.996	19.996	100.141	19.986	8.604	1.022
532.000	595.411	79.995	19.996	100.151	19.994	8.082	0.988
536.000	599.457	79.995	19.996	100.149	19.994	8.107	0.988
540.000	603.529	79.994	19.995	100.140	19.994	8.102	1.003
544.000	607.585	79.995	19.996	100.132	19.991	8.267	1.082
548.000	611.637	79.996	19.995	100.131	19.992	8.221	1.008
552.000	615.729	79.996	19.995	100.140	19.989	8.423	1.041
556.000	619.811	79.996	19.995	100.135	19.988	8.499	1.051
560.000	623.859	79.995	19.995	100.142	19.992	8.247	1.021
564.000	627.966	79.995	19.996	100.140	19.991	8.274	1.055
568.000	632.057	79.994	19.997	100.133	19.990	8.385	1.169
572.000	636.160	79.996	19.996	100.140	19.989	8.421	1.029
576.000	640.219	79.995	19.995	100.132	19.993	8.190	1.023
580.000	644.248	79.992	19.996	100.134	19.991	8.292	1.014
584.000	648.311	79.994	19.995	100.140	19.997	7.935	1.027
588.000	652.402	79.993	19.997	100.124	20.002	7.614	1.005
592.000	656.502	79.994	19.996	100.125	20.005	7.414	1.000
596.000	660.572	79.994	19.994	100.114	20.010	7.114	1.023
600.000	664.639	79.993	19.996	100.126	20.011	7.048	0.995
604.000	668.624	79.994	19.996	100.128	20.013	6.878	0.958
608.000	672.704	79.997	19.996	100.113	20.018	6.591	1.016
612.000	676.775	79.997	19.996	100.122	20.022	6.353	1.008
616.000	680.818	79.997	19.995	100.117	20.021	6.395	0.994
620.000	684.827	79.995	19.997	100.093	20.025	6.134	1.011
624.000	688.913	79.996	19.996	100.118	20.029	5.867	1.028
628.000	692.932	79.997	19.996	100.107	20.028	5.924	1.023
632.000	696.876	79.997	19.995	100.099	20.032	5.675	0.963
636.000	700.992	79.998	19.995	100.102	20.036	5.415	1.123
640.000	705.014	79.996	19.995	100.108	20.033	5.621	1.019
644.000	709.032	79.994	19.996	100.098	20.034	5.558	1.010
648.000	713.135	79.994	19.996	100.090	20.036	5.420	1.039
652.000	717.208	79.993	19.996	100.095	20.041	5.127	1.031
656.000	721.245	79.993	19.995	100.089	20.041	5.110	1.003
660.000	725.254	79.995	19.995	100.094	20.040	5.170	1.027
664.000	729.310	79.993	19.996	100.091	20.040	5.193	1.012
668.000	733.334	79.993	19.997	100.093	20.042	5.066	0.998
672.000	737.324	79.994	19.996	100.085	20.037	5.394	1.010

File: Polyester_Felt_MCC_30K_min_211020_R4.txt
Sample ID:	C:\MCC\MCC Cal\Test\Polyester_Felt_MCC_30K_min_211020_R4.txt
Sample Weight (mg):	4.9
Heating Rate (C/s):	0.5
Combustor Temp (C):	900
N2 Flow Rate (cc/min):	80
O2 Flow Rate (cc/min):	20
Calibration File:	C:\MCC\MCC Cal\Coeff1 JN10440_30_210304.txt.txt
T Correction Coefficients:	0	1.024463	0
Time Shift (s):	14
*
Time (s)	Temperature (C)	N2 flow rate (cc/min)	O2 flow rate (cc/min)	Flow Rate (cc/min)	Oxygen (%)	HRR (W/g)	Heating rate (C/s)
0.000	107.515	80.003	19.994	102.992	20.006	-0.413	0.018
8.000	107.509	80.001	19.997	103.016	20.003	-0.206	-0.017
16.001	107.588	80.001	19.995	103.049	19.999	0.057	0.019
24.000	107.706	79.999	19.993	103.109	19.990	0.668	0.026
32.000	108.203	80.001	19.994	103.134	19.979	1.394	0.073
40.000	109.100	80.001	19.995	103.193	19.974	1.674	0.183
48.000	110.376	80.001	19.994	103.225	19.967	2.184	0.176
56.000	112.114	80.002	19.993	103.234	19.966	2.256	0.250
64.000	114.144	80.002	19.994	103.253	19.958	2.771	0.312
72.000	116.502	80.005	19.994	103.261	19.959	2.693	0.256
80.001	119.205	80.003	19.993	103.260	19.956	2.896	0.373
88.000	122.043	80.003	19.994	103.257	19.956	2.880	0.360
96.000	125.066	80.000	19.995	103.265	19.954	3.037	0.402
104.000	128.269	80.002	19.995	103.260	19.956	2.864	0.428
112.001	131.640	80.002	19.995	103.258	19.956	2.855	0.404
120.000	135.077	80.000	19.994	103.260	19.953	3.078	0.457
128.000	138.644	80.003	19.994	103.264	19.961	2.580	0.417
136.000	142.212	80.002	19.993	103.259	19.958	2.775	0.447
144.000	145.950	80.002	19.994	103.266	19.959	2.652	0.476
152.000	149.716	80.005	19.992	103.265	19.959	2.716	0.467
160.000	153.501	80.002	19.994	103.260	19.958	2.748	0.468
168.000	157.320	80.001	19.995	103.254	19.955	2.948	0.469
176.000	161.145	80.001	19.996	103.252	19.954	3.017	0.448
184.000	165.077	80.001	19.996	103.239	19.955	2.917	0.500
192.000	168.954	80.002	19.995	103.260	19.959	2.714	0.502
200.000	172.956	80.001	19.995	103.251	19.962	2.516	0.510
208.000	176.944	80.002	19.995	103.236	19.960	2.587	0.519
216.000	180.934	80.003	19.995	103.240	19.961	2.580	0.505
224.000	184.899	80.001	19.994	103.236	19.959	2.685	0.494
232.000	188.955	80.004	19.994	103.228	19.963	2.453	0.486
240.000	193.031	80.004	19.993	103.223	19.962	2.501	0.510
248.000	197.066	80.001	19.994	103.222	19.961	2.555	0.510
256.000	201.024	80.001	19.994	103.219	19.961	2.571	0.534
264.001	204.952	79.997	19.995	103.213	19.964	2.342	0.496
272.000	208.923	80.002	19.994	103.224	19.964	2.374	0.479
280.000	212.881	80.001	19.995	103.219	19.964	2.342	0.504
288.000	216.811	80.001	19.994	103.206	19.963	2.413	0.480
296.000	220.776	79.999	19.995	103.213	19.964	2.387	0.518
304.000	224.653	80.000	19.995	103.210	19.961	2.554	0.505
312.000	228.643	80.003	19.994	103.212	19.964	2.367	0.532
320.000	232.602	80.005	19.995	103.199	19.965	2.290	0.492
328.000	236.647	80.000	19.994	103.203	19.964	2.335	0.514
336.000	240.505	80.000	19.993	103.197	19.967	2.133	0.445
344.000	244.455	79.998	19.994	103.214	19.967	2.169	0.500
352.000	248.359	80.002	19.995	103.203	19.970	1.991	0.503
360.000	252.323	80.000	19.995	103.194	19.971	1.884	0.494
368.000	256.294	80.002	19.995	103.202	19.970	1.932	0.486
376.000	260.218	80.002	19.995	103.196	19.971	1.887	0.500
384.000	264.244	80.003	19.994	103.187	19.972	1.837	0.495
392.000	268.306	80.000	19.995	103.187	19.978	1.431	0.544
400.000	272.392	80.004	19.994	103.186	19.974	1.672	0.536
408.000	276.713	80.001	19.994	103.184	19.970	1.944	0.388
416.000	280.629	80.002	19.994	103.189	19.966	2.226	0.550
424.000	284.601	80.000	19.996	103.193	19.974	1.686	0.511
432.000	288.741	80.002	19.994	103.181	19.972	1.860	0.550
440.000	292.840	80.002	19.995	103.167	19.970	1.992	0.503
448.000	296.908	80.001	19.995	103.178	19.974	1.689	0.516
456.000	300.935	80.002	19.994	103.176	19.971	1.878	0.502
464.000	304.997	80.002	19.993	103.169	19.970	1.949	0.502
472.000	309.037	80.000	19.995	103.176	19.974	1.678	0.513
480.000	313.075	80.003	19.995	103.164	19.971	1.885	0.480
488.000	317.079	80.004	19.994	103.148	19.968	2.086	0.478
496.000	321.020	80.002	19.994	103.157	19.974	1.703	0.479
504.000	325.001	80.000	19.993	103.148	19.971	1.926	0.489
512.000	329.047	80.002	19.994	103.157	19.972	1.840	0.489
520.000	333.098	80.002	19.995	103.147	19.970	1.983	0.527
528.000	337.125	80.001	19.993	103.150	19.966	2.218	0.501
536.000	341.186	80.003	19.994	103.161	19.961	2.544	0.481
544.000	345.180	80.003	19.995	103.152	19.964	2.341	0.502
552.000	349.264	80.000	19.994	103.150	19.958	2.779	0.530
560.000	353.364	80.004	19.995	103.144	19.958	2.736	0.505
568.000	357.414	80.003	19.994	103.146	19.950	3.276	0.503
576.000	361.548	80.000	19.995	103.143	19.941	3.844	0.489
584.001	365.644	80.003	19.994	103.149	19.933	4.400	0.509
592.001	369.765	80.000	19.994	103.149	19.924	4.983	0.503
600.000	373.885	80.000	19.993	103.156	19.908	6.037	0.511
608.000	377.958	80.000	19.995	103.154	19.895	6.888	0.488
616.000	382.039	80.002	19.994	103.175	19.870	8.547	0.498
624.000	386.133	80.003	19.994	103.185	19.824	11.565	0.480
632.000	390.177	80.002	19.994	103.208	19.763	15.572	0.512
640.000	394.321	80.002	19.994	103.257	19.678	21.180	0.534
648.000	398.414	80.004	19.995	103.276	19.576	27.882	0.518
656.000	402.653	80.000	19.997	103.305	19.498	33.047	0.535
664.000	406.873	79.999	19.996	103.317	19.421	38.087	0.549
672.000	411.024	79.999	19.995	103.380	19.329	44.202	0.507
680.000	415.024	80.002	19.994	103.439	19.183	53.865	0.487
688.000	419.070	80.002	19.996	103.464	18.974	67.674	0.489
696.000	423.019	80.001	19.994	103.544	18.733	83.681	0.468
704.000	426.988	80.002	19.994	103.859	18.325	110.914	0.478
712.000	430.931	80.003	19.995	103.696	18.014	131.410	0.461
720.000	434.892	80.001	19.995	103.992	17.609	158.465	0.514
728.000	438.899	80.003	19.994	104.075	17.431	170.253	0.491
736.000	442.878	80.000	19.995	104.084	17.354	175.294	0.493
744.000	446.935	80.000	19.994	104.082	17.400	172.146	0.463
752.000	450.965	80.000	19.996	104.019	17.584	159.746	0.513
760.000	455.022	80.001	19.995	103.913	17.883	139.807	0.518
768.000	459.046	80.001	19.995	103.777	18.257	115.000	0.493
776.000	463.078	80.001	19.993	103.636	18.720	84.308	0.505
784.000	467.110	80.003	19.995	103.538	19.115	58.252	0.522
792.000	471.106	80.001	19.995	103.418	19.385	40.456	0.486
800.000	475.266	80.001	19.994	103.330	19.561	28.846	0.563
808.000	479.347	80.003	19.994	103.266	19.694	20.096	0.522
816.000	483.448	80.001	19.993	103.220	19.789	13.835	0.519
824.000	487.558	80.000	19.994	103.183	19.860	9.210	0.524
832.000	491.722	80.000	19.994	103.163	19.903	6.368	0.548
840.000	495.941	80.000	19.994	103.141	19.931	4.489	0.543
848.000	500.054	79.999	19.996	103.133	19.935	4.282	0.498
856.000	504.243	80.001	19.996	103.134	19.939	3.978	0.485
864.000	508.410	80.002	19.994	103.126	19.943	3.756	0.525
872.000	512.583	80.001	19.994	103.122	19.949	3.318	0.506
880.000	516.779	80.003	19.995	103.113	19.951	3.236	0.505
888.000	520.964	80.003	19.994	103.121	19.952	3.159	0.509
896.000	525.059	80.003	19.994	103.126	19.950	3.271	0.504
904.000	529.141	80.001	19.993	103.121	19.958	2.741	0.499
912.000	533.244	80.000	19.994	103.110	19.953	3.052	0.553
920.000	537.285	80.001	19.994	103.122	19.956	2.876	0.493
928.000	541.314	80.000	19.995	103.117	19.957	2.794	0.499
936.000	545.328	79.998	19.995	103.117	19.955	2.961	0.514
944.000	549.382	80.001	19.995	103.117	19.956	2.895	0.513
952.000	553.360	80.002	19.995	103.104	19.957	2.828	0.494
960.000	557.399	80.002	19.994	103.109	19.962	2.497	0.496
968.000	561.503	80.003	19.995	103.109	19.955	2.920	0.521
976.000	565.562	80.001	19.995	103.109	19.963	2.424	0.507
984.000	569.688	80.001	19.994	103.110	19.961	2.520	0.505
992.000	573.909	80.001	19.994	103.114	19.964	2.377	0.510
1000.000	578.174	80.002	19.994	103.107	19.961	2.529	0.511
1008.000	582.354	80.000	19.995	103.106	19.955	2.947	0.534
1016.000	586.468	79.999	19.994	103.104	19.956	2.874	0.524
1024.000	590.541	80.002	19.995	103.108	19.962	2.470	0.505
1032.000	594.656	80.001	19.994	103.106	19.963	2.438	0.541
1040.000	598.742	80.001	19.995	103.100	19.963	2.450	0.523
1048.001	602.787	80.004	19.994	103.104	19.957	2.824	0.457
1056.000	606.852	80.002	19.994	103.107	19.956	2.890	0.503
1064.000	610.964	80.002	19.995	103.106	19.958	2.721	0.525
1072.000	615.151	80.001	19.994	103.104	19.957	2.799	0.518
1080.000	619.396	80.002	19.994	103.106	19.956	2.853	0.532
1088.000	623.688	80.002	19.995	103.105	19.958	2.740	0.534
1096.000	627.934	79.999	19.993	103.106	19.964	2.343	0.523
1104.000	632.126	80.001	19.994	103.075	19.958	2.749	0.535
1112.000	636.351	80.002	19.994	103.099	19.965	2.256	0.530
1120.000	640.536	80.000	19.994	103.102	19.967	2.124	0.536
1128.000	644.632	80.003	19.994	103.097	19.959	2.665	0.498
1136.001	648.752	80.003	19.994	103.094	19.970	1.964	0.507
1144.001	652.836	80.002	19.993	103.087	19.968	2.078	0.530
1152.000	656.946	80.002	19.996	103.084	19.969	2.008	0.479
1160.001	661.069	80.001	19.994	103.084	19.975	1.611	0.522
1168.000	665.153	80.001	19.994	103.079	19.973	1.784	0.512
1176.001	669.249	80.001	19.994	103.078	19.973	1.784	0.525
1184.000	673.362	80.001	19.993	103.083	19.976	1.583	0.526
1192.000	677.453	80.002	19.995	103.078	19.978	1.412	0.523
1200.001	681.483	80.001	19.993	103.074	19.972	1.843	0.482
1208.001	685.482	80.003	19.994	103.081	19.981	1.205	0.498
1216.000	689.463	80.004	19.994	103.085	19.977	1.502	0.487
1224.001	693.500	80.000	19.994	103.075	19.980	1.285	0.488
1232.000	697.541	80.003	19.995	103.079	19.978	1.458	0.493
1240.000	701.505	80.003	19.994	103.081	19.984	1.020	0.475
1248.001	705.538	80.001	19.994	103.084	19.981	1.230	0.532
1256.000	709.546	80.001	19.994	103.074	19.977	1.519	0.472
1264.000	713.625	80.003	19.994	103.083	19.978	1.433	0.501
1272.000	717.686	80.003	19.992	103.077	19.975	1.632	0.510
1280.000	721.743	80.002	19.995	103.071	19.973	1.768	0.504
1288.000	725.862	80.004	19.995	103.073	19.978	1.426	0.529
1296.000	729.932	80.002	19.993	103.073	19.976	1.577	0.496
1304.000	734.021	80.000	19.994	103.070	19.975	1.625	0.530
1312.000	738.022	79.999	19.995	103.073	19.979	1.374	0.517
1320.000	742.084	80.000	19.994	103.079	19.974	1.725	0.514
1323.001	743.601	80.001	19.995	103.073	19.975	1.655	0.513