Folder: fsri_materials_database/01_Data/Polyester_Felt/MCC

Note: 01_Data/README.md
# Materials and Products Database
## 01_Data

Raw data generated from each apparatus are included here in plain-text format. The data is organized first by material, next by the short name of test apparatus used, and where applicable additional filtering by test settings.

### material.json

Each material directory contains a json file of the same name as the material. This file links the data stored in the repository as well as data and graphs produced by the accompanying scripts (__02_Scripts__) to the respective landing page for the material on the front-end website.

File: Polyester_Felt_MCC_30K_min_210709_R1.txt
Sample ID:	C:\MCC\MCC Cal\Test\Polyester_Felt\Polyester_Felt_MCC_30K_min_21_07_09_R1.txt
Sample Weight (mg):	3.86
Heating Rate (C/s):	0.5
Combustor Temp (C):	900
N2 Flow Rate (cc/min):	80
O2 Flow Rate (cc/min):	20
Calibration File:	C:\MCC\MCC Cal\Coeff1 JN10440_30_210304.txt.txt
T Correction Coefficients:	0	1.024463	0
Time Shift (s):	14
*
Time (s)	Temperature (C)	N2 flow rate (cc/min)	O2 flow rate (cc/min)	Flow Rate (cc/min)	Oxygen (%)	HRR (W/g)	Heating rate (C/s)
0.000	109.089	79.998	19.995	99.936	20.131	0.018	-0.016
8.000	109.029	79.996	19.996	99.933	20.131	0.018	0.026
16.000	109.014	79.998	19.996	99.937	20.134	-0.229	-0.017
24.000	109.037	79.995	19.996	99.974	20.128	0.262	0.017
32.000	109.186	79.996	19.997	100.046	20.120	0.905	0.015
40.000	109.705	79.994	19.996	100.071	20.107	1.910	0.074
48.000	110.640	79.994	19.996	100.135	20.099	2.551	0.146
56.000	112.011	79.996	19.997	100.153	20.096	2.830	0.198
64.000	113.745	79.998	19.995	100.158	20.086	3.651	0.277
72.000	115.837	79.998	19.997	100.166	20.082	3.993	0.261
80.001	118.287	79.998	19.996	100.168	20.081	4.074	0.327
88.001	120.939	79.998	19.995	100.169	20.083	3.842	0.343
96.001	123.886	79.994	19.996	100.176	20.087	3.591	0.361
104.001	126.946	79.997	19.997	100.187	20.072	4.798	0.377
112.000	130.232	79.995	19.998	100.196	20.081	4.028	0.396
120.000	133.666	79.995	19.997	100.190	20.081	4.068	0.412
128.000	137.325	79.994	19.996	100.201	20.085	3.738	0.446
136.000	141.194	79.997	19.994	100.195	20.075	4.568	0.470
144.000	145.095	79.996	19.995	100.190	20.081	4.043	0.497
152.000	149.100	79.996	19.996	100.178	20.078	4.252	0.522
160.000	153.063	79.998	19.996	100.183	20.080	4.085	0.500
168.000	157.138	79.996	19.994	100.171	20.081	4.049	0.522
176.000	161.207	79.997	19.997	100.171	20.082	3.982	0.508
184.000	165.261	79.996	19.997	100.165	20.087	3.564	0.459
192.000	169.341	79.996	19.997	100.152	20.093	3.081	0.485
200.000	173.383	79.995	19.997	100.158	20.088	3.475	0.487
208.000	177.413	79.995	19.997	100.137	20.089	3.434	0.495
216.000	181.389	79.997	19.997	100.130	20.092	3.147	0.488
224.000	185.414	79.997	19.997	100.134	20.089	3.427	0.516
232.000	189.425	79.995	19.995	100.134	20.092	3.167	0.504
240.000	193.314	79.997	19.996	100.133	20.089	3.387	0.485
248.000	197.178	79.999	19.996	100.125	20.092	3.178	0.480
256.000	201.053	79.994	19.996	100.131	20.097	2.724	0.483
264.000	204.959	79.996	19.997	100.130	20.093	3.089	0.502
272.000	208.882	79.996	19.997	100.128	20.094	2.993	0.501
280.000	212.777	79.996	19.996	100.129	20.090	3.335	0.479
288.000	216.681	79.993	19.997	100.116	20.096	2.839	0.476
296.000	220.618	79.996	19.997	100.115	20.099	2.546	0.492
304.000	224.547	79.998	19.998	100.112	20.095	2.879	0.502
312.000	228.523	79.998	19.997	100.093	20.106	2.005	0.540
320.000	232.474	79.999	19.996	100.093	20.102	2.316	0.503
328.000	236.421	79.999	19.996	100.098	20.106	2.021	0.512
336.000	240.359	79.997	19.996	100.091	20.111	1.647	0.528
344.000	244.296	79.998	19.997	100.098	20.108	1.879	0.478
352.000	248.200	79.995	19.997	100.095	20.111	1.634	0.520
360.000	252.180	79.995	19.996	100.095	20.113	1.474	0.483
368.000	256.104	79.996	19.997	100.094	20.115	1.287	0.493
376.000	260.014	79.997	19.997	100.086	20.115	1.283	0.495
384.000	263.928	79.998	19.998	100.089	20.115	1.272	0.446
392.000	267.943	79.997	19.996	100.091	20.110	1.718	0.483
400.000	271.933	79.999	19.996	100.084	20.109	1.754	0.490
408.000	275.964	79.998	19.996	100.082	20.109	1.765	0.537
416.000	279.996	79.996	19.996	100.091	20.110	1.683	0.509
424.000	283.946	79.995	19.994	100.077	20.109	1.782	0.478
432.000	287.940	79.997	19.997	100.068	20.111	1.638	0.503
440.000	292.045	79.997	19.998	100.089	20.111	1.592	0.508
448.000	296.078	79.994	19.997	100.079	20.113	1.427	0.517
456.000	300.079	79.997	19.996	100.068	20.111	1.632	0.513
464.000	304.134	79.996	19.997	100.069	20.116	1.178	0.523
472.000	308.142	79.995	19.997	100.074	20.112	1.500	0.496
480.000	312.228	79.998	19.997	100.063	20.121	0.776	0.509
488.000	316.230	79.998	19.996	100.068	20.118	1.042	0.492
496.000	320.278	79.996	19.998	100.060	20.114	1.345	0.507
504.000	324.241	79.997	19.996	100.080	20.121	0.811	0.525
512.000	328.238	79.997	19.997	100.089	20.115	1.269	0.447
520.000	332.476	79.997	19.996	100.081	20.115	1.311	0.742
528.000	336.677	79.996	19.997	100.073	20.116	1.231	0.517
536.000	340.956	79.998	19.997	100.070	20.116	1.169	0.536
544.000	345.184	79.996	19.997	100.059	20.118	1.054	0.526
552.000	349.450	79.996	19.997	100.064	20.120	0.864	0.533
560.000	353.676	79.997	19.998	100.063	20.112	1.496	0.540
568.000	357.898	79.997	19.996	100.053	20.106	2.020	0.540
576.000	361.945	79.997	19.998	100.059	20.105	2.076	0.525
584.000	365.959	79.994	19.996	100.050	20.095	2.900	0.510
592.000	369.973	79.997	19.997	100.054	20.090	3.343	0.516
600.000	373.979	79.995	19.996	100.073	20.075	4.544	0.524
608.000	378.087	79.994	19.996	100.072	20.061	5.662	0.517
616.000	382.152	79.996	19.996	100.082	20.040	7.323	0.522
624.000	386.217	79.995	19.997	100.091	20.011	9.695	0.498
632.000	390.329	79.998	19.997	100.101	19.967	13.255	0.517
640.000	394.448	79.999	19.997	100.129	19.903	18.449	0.507
648.000	398.526	79.994	19.998	100.145	19.816	25.541	0.510
656.000	402.742	79.997	19.997	100.184	19.717	33.498	0.537
664.000	406.849	79.996	19.996	100.204	19.640	39.793	0.507
672.000	411.118	79.995	19.996	100.282	19.489	52.066	0.529
680.000	415.295	79.994	19.995	100.265	19.397	59.521	0.497
688.000	419.396	79.996	19.996	100.342	19.265	70.251	0.504
696.000	423.413	79.997	19.996	100.411	19.069	86.236	0.493
704.000	427.465	79.996	19.996	100.469	18.824	106.240	0.517
712.000	431.407	79.998	19.998	100.540	18.589	125.485	0.463
720.000	435.368	79.996	19.996	100.634	18.404	140.528	0.452
728.000	439.364	79.995	19.997	100.684	18.237	154.163	0.507
736.000	443.336	79.995	19.997	100.713	18.128	163.031	0.526
744.000	447.274	79.995	19.997	100.726	18.119	163.762	0.518
752.000	451.221	79.996	19.996	100.710	18.224	155.076	0.498
760.000	455.209	79.995	19.998	100.659	18.422	138.889	0.523
768.000	459.220	79.997	19.995	100.560	18.709	115.490	0.550
776.000	463.125	79.998	19.996	100.480	19.093	84.158	0.473
784.000	467.189	79.997	19.995	100.403	19.422	57.434	0.537
792.000	471.274	79.997	19.997	100.299	19.649	39.003	0.530
800.000	475.320	79.997	19.996	100.214	19.802	26.665	0.491
808.000	479.403	79.997	19.997	100.174	19.913	17.640	0.518
816.000	483.437	79.996	19.998	100.129	19.988	11.564	0.522
824.000	487.465	79.996	19.998	100.093	20.034	7.816	0.539
832.000	491.584	79.996	20.000	100.089	20.071	4.860	0.472
840.001	495.688	79.994	19.997	100.065	20.097	2.778	0.517
848.000	499.810	79.996	19.997	100.059	20.105	2.105	0.488
856.001	503.879	79.997	19.997	100.025	20.113	1.420	0.483
864.000	508.001	79.996	19.996	100.052	20.119	0.995	0.534
872.000	512.080	79.999	19.996	100.056	20.123	0.633	0.512
880.000	516.237	79.998	19.997	100.037	20.124	0.600	0.501
888.000	520.395	79.997	19.998	100.049	20.121	0.798	0.525
896.000	524.481	79.996	19.998	100.046	20.122	0.713	0.526
904.000	528.584	79.995	19.998	100.026	20.128	0.231	0.546
912.000	532.719	79.995	19.997	100.049	20.125	0.504	0.520
920.000	536.935	79.995	19.996	100.052	20.128	0.225	0.527
928.000	541.077	79.997	19.996	99.960	20.126	0.367	0.513
936.000	545.177	79.997	19.996	100.047	20.130	0.104	0.526
944.000	549.303	79.999	19.996	100.038	20.128	0.278	0.508
952.000	553.360	79.999	19.996	100.045	20.130	0.060	0.521
960.000	557.503	79.999	19.997	100.043	20.128	0.267	0.513
968.000	561.619	79.996	19.997	100.036	20.126	0.411	0.533
976.000	565.704	79.997	19.997	99.968	20.124	0.574	0.537
984.000	569.735	79.996	19.996	99.975	20.126	0.382	0.500
992.000	573.897	79.994	19.998	100.044	20.130	0.058	0.524
1000.000	578.019	79.996	19.997	100.046	20.123	0.662	0.512
1008.000	582.024	79.998	19.997	100.023	20.129	0.129	0.483
1016.000	586.032	79.997	19.996	100.027	20.128	0.204	0.482
1024.001	590.103	79.997	19.996	100.040	20.127	0.331	0.485
1032.000	594.280	80.002	19.996	100.045	20.132	-0.091	0.525
1040.000	598.405	79.997	19.996	100.047	20.126	0.380	0.523
1048.000	602.565	79.996	19.995	99.967	20.130	0.071	0.522
1056.001	606.645	79.997	19.997	100.035	20.129	0.153	0.509
1064.000	610.750	79.996	19.998	100.022	20.122	0.700	0.520
1072.001	614.770	79.994	19.998	100.029	20.122	0.738	0.487
1080.000	618.862	79.995	19.998	100.045	20.124	0.580	0.524
1088.000	623.028	79.997	19.997	100.032	20.126	0.369	0.528
1096.000	627.165	79.996	19.997	100.046	20.123	0.651	0.499
1104.000	631.410	79.997	19.996	100.050	20.124	0.571	0.515
1112.000	635.569	79.997	19.995	100.034	20.124	0.527	0.514
1120.000	639.758	79.995	19.994	100.041	20.130	0.078	0.496
1128.000	643.883	79.997	19.996	100.048	20.133	-0.189	0.513
1136.000	647.893	79.996	19.996	100.039	20.134	-0.220	0.499
1144.000	651.915	79.996	19.997	100.038	20.138	-0.551	0.526
1152.000	655.916	79.997	19.996	100.030	20.135	-0.335	0.526
1160.001	659.927	79.996	19.997	100.042	20.135	-0.320	0.503
1168.000	663.941	79.997	19.998	99.961	20.136	-0.438	0.512
1176.000	667.972	79.996	19.997	100.036	20.140	-0.762	0.491
1184.000	672.046	79.998	19.997	100.038	20.138	-0.584	0.487
1192.000	676.140	79.998	19.995	100.033	20.142	-0.858	0.478
1200.000	680.156	79.996	19.997	100.017	20.144	-1.035	0.523
1208.000	684.266	79.996	19.997	100.020	20.142	-0.880	0.539
1216.000	688.372	79.996	19.997	100.030	20.141	-0.849	0.518
1224.000	692.537	79.996	19.997	100.018	20.140	-0.702	0.530
1232.000	696.710	79.994	19.996	100.023	20.143	-1.002	0.519
1240.000	700.757	79.996	19.996	100.024	20.141	-0.829	0.514
1248.000	704.832	79.998	19.997	100.017	20.137	-0.520	0.476
1256.000	709.047	79.996	19.997	100.040	20.135	-0.367	0.551
1264.000	713.134	79.997	19.996	100.029	20.138	-0.542	0.500
1272.000	717.299	79.998	19.997	100.026	20.141	-0.811	0.507
1280.000	721.366	79.995	19.997	100.024	20.140	-0.713	0.494
1288.000	725.307	79.996	19.996	100.030	20.138	-0.535	0.511
1296.000	729.305	79.995	19.996	100.034	20.138	-0.569	0.484
1304.000	733.263	79.996	19.996	100.030	20.135	-0.353	0.500
1312.000	737.197	79.995	19.996	100.015	20.137	-0.507	0.480
1320.000	741.152	79.997	19.998	100.015	20.134	-0.267	0.518
1325.000	743.714	79.997	19.998	100.029	20.138	-0.538	0.541

File: Polyester_Felt_MCC_30K_min_210709_R2.txt
Sample ID:	C:\MCC\MCC Cal\Test\Polyester_Felt\Polyester_Felt_MCC_30K_min_21_07_09_R2.txt
Sample Weight (mg):	5.01
Heating Rate (C/s):	1
Combustor Temp (C):	900
N2 Flow Rate (cc/min):	80
O2 Flow Rate (cc/min):	20
Calibration File:	C:\MCC\MCC Cal\Coeff1 JN10440_30_210304.txt.txt
T Correction Coefficients:	0	1.024463	0
Time Shift (s):	14
*
Time (s)	Temperature (C)	N2 flow rate (cc/min)	O2 flow rate (cc/min)	Flow Rate (cc/min)	Oxygen (%)	HRR (W/g)	Heating rate (C/s)
0.000	107.164	79.994	19.996	99.974	20.038	0.241	-0.003
4.000	107.179	79.995	19.997	99.976	20.038	0.236	-0.001
8.000	107.132	79.995	19.996	99.986	20.037	0.315	-0.002
12.000	107.167	79.994	19.995	100.095	20.021	1.305	0.022
16.000	107.306	79.997	19.995	100.202	20.003	2.409	0.056
20.000	107.646	79.995	19.994	100.287	19.988	3.368	0.130
24.000	108.218	79.992	19.996	100.321	19.975	4.173	0.184
28.000	109.093	79.991	19.996	100.332	19.972	4.373	0.258
32.000	110.177	79.997	19.996	100.365	19.968	4.616	0.291
36.001	111.443	79.997	19.995	100.368	19.962	4.979	0.346
40.000	112.940	79.995	19.996	100.379	19.962	5.022	0.383
44.001	114.618	79.995	19.996	100.385	19.960	5.111	0.431
48.001	116.476	79.997	19.996	100.405	19.957	5.288	0.489
52.001	118.480	79.995	19.997	100.404	19.954	5.522	0.495
56.001	120.655	79.995	19.997	100.400	19.955	5.448	0.549
60.000	122.993	79.992	19.995	100.399	19.956	5.383	0.598
64.000	125.430	79.997	19.996	100.401	19.954	5.504	0.648
68.001	127.978	79.998	19.995	100.408	19.949	5.810	0.653
72.000	130.657	79.997	19.995	100.402	19.950	5.754	0.652
76.000	133.490	79.996	19.995	100.402	19.945	6.037	0.720
80.000	136.338	79.995	19.995	100.407	19.949	5.782	0.719
84.000	139.358	79.994	19.995	100.418	19.949	5.812	0.794
88.001	142.406	79.994	19.995	100.417	19.943	6.173	0.766
92.000	145.628	79.995	19.995	100.374	19.948	5.899	0.789
96.000	148.799	79.996	19.995	100.489	19.951	5.685	0.814
100.000	152.160	79.995	19.995	100.411	19.951	5.656	0.841
104.001	155.571	79.994	19.996	100.409	19.947	5.963	0.849
108.001	159.011	79.994	19.996	100.412	19.944	6.129	0.904
112.000	162.557	79.991	19.995	100.419	19.946	5.970	0.900
116.000	166.087	79.996	19.997	100.414	19.943	6.186	0.878
120.001	169.787	79.993	19.996	100.407	19.939	6.460	0.910
124.000	173.524	79.997	19.996	100.402	19.943	6.207	0.925
128.000	177.254	79.998	19.996	100.400	19.940	6.347	0.948
132.000	181.070	79.996	19.997	100.398	19.941	6.308	0.963
136.000	184.951	79.996	19.997	100.395	19.945	6.035	0.951
140.000	188.934	79.994	19.996	100.393	19.948	5.891	0.984
144.000	192.892	79.995	19.996	100.389	19.949	5.827	0.958
148.000	196.851	79.996	19.997	100.368	19.950	5.730	1.000
152.000	200.895	79.997	19.996	100.363	19.948	5.876	0.992
156.000	204.943	79.996	19.996	100.360	19.951	5.699	0.988
160.001	209.039	79.995	19.996	100.362	19.952	5.593	1.018
164.000	213.087	79.995	19.996	100.363	19.950	5.765	0.996
168.000	217.185	79.995	19.995	100.352	19.955	5.406	1.024
172.000	221.239	79.993	19.996	100.346	19.955	5.416	1.020
176.000	225.360	79.995	19.995	100.333	19.951	5.669	1.023
180.000	229.460	79.994	19.995	100.328	19.958	5.270	1.049
184.001	233.525	79.996	19.995	100.325	19.960	5.122	1.027
188.000	237.661	79.996	19.995	100.322	19.963	4.951	1.025
192.000	241.704	79.994	19.996	100.319	19.967	4.678	0.988
196.000	245.796	79.995	19.996	100.318	19.969	4.539	1.021
200.000	249.922	79.997	19.996	100.308	19.966	4.724	1.048
204.000	253.957	79.997	19.996	100.290	19.971	4.428	1.014
208.000	257.924	79.997	19.996	100.296	19.972	4.334	1.004
212.000	261.875	79.995	19.995	100.283	19.976	4.144	0.959
216.000	265.906	79.996	19.996	100.283	19.978	4.013	0.998
220.000	269.844	79.996	19.996	100.282	19.976	4.085	0.966
224.000	273.832	79.997	19.996	100.278	19.975	4.204	0.930
228.000	277.844	79.997	19.996	100.283	19.984	3.593	1.001
232.000	281.754	79.997	19.997	100.270	19.979	3.953	0.952
236.000	285.735	79.995	19.996	100.272	19.977	4.031	0.996
240.000	289.665	79.993	19.995	100.276	19.979	3.909	0.998
244.000	293.622	79.995	19.996	100.274	19.981	3.801	0.981
248.000	297.589	79.995	19.995	100.275	19.977	4.029	0.994
252.001	301.470	79.995	19.995	100.264	19.978	4.003	0.974
256.001	305.455	79.996	19.996	100.265	19.975	4.166	1.001
260.000	309.405	79.995	19.995	100.264	19.973	4.321	0.994
264.000	313.430	79.994	19.995	100.249	19.976	4.090	1.045
268.000	317.394	79.995	19.996	100.246	19.974	4.246	0.998
272.001	321.402	79.994	19.996	100.249	19.973	4.292	1.037
276.000	325.376	79.995	19.996	100.246	19.972	4.341	0.966
280.000	329.342	79.995	19.995	100.250	19.971	4.455	1.002
284.000	333.326	79.998	19.996	100.248	19.968	4.643	0.998
288.000	337.346	79.998	19.995	100.245	19.972	4.356	0.981
292.001	341.384	79.996	19.995	100.245	19.964	4.883	1.004
296.000	345.408	79.997	19.997	100.243	19.964	4.867	1.002
300.001	349.459	79.995	19.996	100.247	19.966	4.727	1.041
304.001	353.521	79.997	19.996	100.246	19.955	5.453	1.032
308.000	357.569	79.999	19.995	100.237	19.951	5.645	1.042
312.000	361.608	79.998	19.996	100.235	19.948	5.866	1.005
316.000	365.575	79.996	19.996	100.241	19.942	6.228	1.029
320.000	369.744	79.995	19.997	100.243	19.936	6.639	1.166
324.001	373.668	79.993	19.997	100.250	19.918	7.736	0.851
328.001	377.702	79.995	19.996	100.247	19.901	8.825	0.961
332.000	381.825	79.995	19.996	100.256	19.881	10.066	1.004
336.000	385.830	79.995	19.996	100.267	19.851	11.917	0.990
340.000	389.872	79.995	19.997	100.263	19.812	14.350	0.997
344.000	394.029	79.995	19.997	100.286	19.771	16.937	1.039
348.000	398.119	79.994	19.996	100.316	19.701	21.323	0.996
352.000	402.193	79.995	19.996	100.349	19.618	26.508	0.982
356.000	406.318	79.993	19.996	100.406	19.496	34.215	1.040
360.001	410.416	79.994	19.995	100.461	19.320	45.225	1.035
364.000	414.487	79.996	19.997	100.495	19.138	56.577	1.043
368.001	418.631	79.997	19.995	100.580	18.914	70.828	1.046
372.000	422.778	79.998	19.996	100.550	18.760	80.567	1.011
376.000	426.947	79.996	19.996	100.629	18.564	93.042	1.043
380.000	431.098	79.997	19.996	100.876	18.264	112.141	1.021
384.000	435.240	79.998	19.996	100.962	17.857	138.092	1.003
388.001	439.334	80.000	19.997	101.157	17.312	172.637	1.018
392.000	443.395	79.997	19.996	101.355	16.636	215.279	0.997
396.000	447.303	79.996	19.996	101.510	15.915	261.703	0.995
400.000	451.317	79.995	19.997	101.528	15.458	290.863	1.028
404.000	455.327	79.995	19.996	101.533	15.202	306.776	1.003
408.001	459.344	79.996	19.997	101.921	15.067	314.897	1.015
412.001	463.414	79.996	19.997	101.860	15.118	311.195	1.016
416.000	467.472	79.995	19.996	101.755	15.409	292.323	1.036
420.000	471.611	79.995	19.997	101.609	15.939	258.517	1.040
424.000	475.750	79.995	19.995	101.435	16.636	214.238	1.062
428.000	479.889	79.995	19.996	101.286	17.353	168.815	1.029
432.000	484.079	79.995	19.996	101.135	18.006	127.629	1.060
436.001	488.265	79.995	19.995	100.967	18.545	93.741	1.060
440.001	492.428	79.997	19.996	100.783	18.966	67.274	1.054
444.000	496.579	79.997	19.995	100.630	19.275	47.893	1.017
448.000	500.749	79.999	19.996	100.499	19.499	33.910	1.045
452.001	504.822	79.996	19.995	100.400	19.651	24.417	1.031
456.000	508.903	79.997	19.996	100.324	19.752	18.102	1.017
460.000	513.011	79.997	19.996	100.271	19.823	13.660	1.021
464.000	517.090	79.997	19.995	100.238	19.864	11.076	1.013
468.001	521.189	79.998	19.996	100.207	19.893	9.295	1.034
472.000	525.223	79.997	19.995	100.203	19.907	8.420	1.020
476.000	529.294	79.996	19.996	100.174	19.918	7.740	1.001
480.000	533.337	79.995	19.996	100.189	19.927	7.167	0.995
484.001	537.422	79.993	19.996	100.191	19.928	7.118	1.005
488.001	541.445	79.994	19.996	100.174	19.933	6.800	1.019
492.000	545.478	79.994	19.995	100.171	19.931	6.890	1.016
496.001	549.558	79.995	19.997	100.175	19.933	6.799	1.030
500.001	553.549	79.995	19.996	100.167	19.931	6.896	1.012
504.001	557.602	79.995	19.997	100.162	19.932	6.824	0.986
508.001	561.645	79.995	19.997	100.172	19.935	6.668	1.034
512.000	565.659	79.995	19.996	100.168	19.933	6.780	0.979
516.000	569.759	79.995	19.995	100.165	19.934	6.756	1.043
520.000	573.796	79.995	19.996	100.167	19.932	6.839	1.050
524.000	577.905	79.997	19.997	100.164	19.938	6.498	0.997
528.000	581.920	79.997	19.997	100.165	19.934	6.727	1.021
532.000	585.939	79.998	19.996	100.161	19.932	6.882	0.989
536.000	589.984	79.995	19.996	100.167	19.934	6.714	1.024
540.000	594.001	79.997	19.995	100.166	19.928	7.126	1.014
544.000	598.116	79.996	19.995	100.163	19.924	7.350	1.026
548.000	602.146	79.997	19.994	100.165	19.923	7.417	0.972
552.000	606.226	79.998	19.995	100.166	19.926	7.220	1.025
556.000	610.277	79.996	19.996	100.161	19.920	7.620	1.006
560.000	614.409	79.995	19.996	100.165	19.918	7.714	1.049
564.000	618.493	79.994	19.996	100.155	19.916	7.848	1.030
568.000	622.707	79.996	19.997	100.152	19.918	7.701	1.077
572.000	626.794	79.995	19.995	100.163	19.915	7.911	1.033
576.000	630.909	79.995	19.997	100.139	19.913	8.022	1.025
580.000	635.084	79.995	19.996	100.150	19.916	7.873	1.042
584.000	639.289	79.995	19.997	100.145	19.918	7.740	1.065
588.000	643.446	79.993	19.997	100.148	19.914	7.951	1.067
592.000	647.501	79.992	19.997	100.132	19.920	7.570	1.026
596.000	651.663	79.996	19.997	100.133	19.925	7.270	1.033
600.000	655.834	79.996	19.995	100.133	19.924	7.372	1.032
604.000	659.971	79.996	19.995	100.120	19.929	7.063	1.034
608.000	664.045	79.996	19.996	100.125	19.934	6.750	1.022
612.000	668.087	79.996	19.996	100.129	19.933	6.799	1.017
616.000	672.209	79.995	19.995	100.130	19.943	6.167	1.040
620.000	676.267	79.995	19.995	100.114	19.948	5.876	1.049
624.000	680.318	79.997	19.995	100.114	19.952	5.575	1.019
628.000	684.215	79.997	19.995	100.104	19.952	5.616	0.971
632.000	688.182	79.998	19.996	100.109	19.952	5.620	0.985
636.000	692.084	79.997	19.995	100.091	19.952	5.608	0.976
640.000	696.057	79.995	19.996	100.104	19.955	5.412	0.967
644.000	699.997	79.995	19.996	100.111	19.962	4.982	0.980
648.000	703.973	79.995	19.996	100.104	19.960	5.097	1.012
652.000	707.933	79.995	19.997	100.091	19.969	4.554	1.010
656.001	711.930	79.995	19.997	100.099	19.965	4.763	1.000
660.000	716.018	79.996	19.996	100.113	19.968	4.583	1.055
664.000	720.082	79.995	19.995	100.116	19.967	4.656	1.022
668.000	724.156	79.994	19.996	100.097	19.963	4.915	1.002
672.000	728.283	79.994	19.997	100.104	19.967	4.654	1.012
676.000	732.344	79.993	19.995	100.099	19.967	4.647	1.031
680.000	736.394	79.997	19.997	100.092	19.964	4.844	1.025
683.500	740.041	79.996	19.996	100.093	19.965	4.772	1.021