Folder: fsri_materials_database/01_Data/Polyester_Felt/MCC (part 3)

File: Polyester_Felt_MCC_30K_min_211022_R5.txt
Sample ID:	C:\MCC\MCC Cal\Test\Polyester_Felt\Polyester_Felt_MCC_30K_min_211022_R5.txt
Sample Weight (mg):	4.38
Heating Rate (C/s):	0.5
Combustor Temp (C):	900
N2 Flow Rate (cc/min):	80
O2 Flow Rate (cc/min):	20
Calibration File:	C:\MCC\MCC Cal\Coeff1 JN10440_30_210304.txt.txt
T Correction Coefficients:	0	1.024463	0
Time Shift (s):	14
*
Time (s)	Temperature (C)	N2 flow rate (cc/min)	O2 flow rate (cc/min)	Flow Rate (cc/min)	Oxygen (%)	HRR (W/g)	Heating rate (C/s)
0.000	106.948	79.999	19.997	103.004	20.126	0.189	-0.001
8.000	106.911	80.001	19.997	103.001	20.124	0.287	-0.022
15.999	106.943	80.001	19.995	103.038	20.122	0.426	-0.013
23.999	107.071	80.001	19.996	103.086	20.110	1.366	0.008
31.999	107.509	80.002	19.996	103.120	20.108	1.487	0.086
40.000	108.204	80.003	19.994	103.151	20.100	2.065	0.093
47.999	109.276	80.002	19.996	103.186	20.097	2.304	0.115
55.999	110.579	80.005	19.995	103.196	20.096	2.330	0.187
63.999	112.196	80.002	19.997	103.190	20.096	2.371	0.187
71.999	114.015	80.000	19.997	103.196	20.095	2.440	0.231
79.999	116.034	80.000	19.996	103.200	20.092	2.678	0.266
87.999	118.251	80.001	19.996	103.230	20.087	3.010	0.283
96.000	120.613	80.000	19.996	103.234	20.092	2.655	0.287
103.999	123.221	80.000	19.997	103.227	20.088	2.953	0.355
111.999	125.953	80.002	19.995	103.230	20.091	2.756	0.350
119.999	128.718	80.002	19.995	103.223	20.090	2.835	0.354
127.999	131.649	80.002	19.994	103.228	20.092	2.641	0.338
136.000	134.627	80.002	19.995	103.231	20.093	2.605	0.388
144.000	137.751	80.003	19.994	103.239	20.092	2.690	0.380
152.000	140.958	80.002	19.994	103.248	20.088	2.951	0.434
160.000	144.304	80.000	19.995	103.235	20.085	3.139	0.414
168.000	147.676	80.001	19.996	103.231	20.085	3.199	0.434
176.000	151.157	80.000	19.995	103.237	20.088	2.944	0.447
184.000	154.715	80.000	19.996	103.241	20.089	2.893	0.461
192.000	158.305	80.000	19.996	103.244	20.087	2.996	0.445
200.000	161.992	80.003	19.994	103.240	20.087	3.058	0.454
208.000	165.783	80.001	19.995	103.239	20.089	2.899	0.503
216.000	169.633	80.001	19.995	103.237	20.089	2.889	0.487
224.000	173.442	80.003	19.995	103.234	20.087	3.026	0.492
232.000	177.319	80.002	19.995	103.231	20.086	3.123	0.468
240.000	181.259	80.000	19.994	103.235	20.084	3.219	0.489
248.000	185.254	80.000	19.995	103.231	20.092	2.649	0.505
256.000	189.300	80.000	19.996	103.229	20.088	2.951	0.514
264.000	193.338	80.002	19.996	103.203	20.086	3.104	0.503
272.000	197.305	79.998	19.995	103.212	20.090	2.842	0.498
280.000	201.344	80.002	19.996	103.215	20.092	2.691	0.507
288.000	205.360	80.001	19.996	103.205	20.091	2.731	0.516
296.000	209.396	80.002	19.995	103.196	20.089	2.872	0.531
304.000	213.354	80.003	19.996	103.202	20.089	2.852	0.498
312.000	217.299	80.001	19.995	103.188	20.089	2.876	0.493
320.000	221.219	80.002	19.995	103.188	20.090	2.810	0.479
328.000	225.149	80.001	19.995	103.194	20.092	2.651	0.498
336.000	229.144	80.001	19.995	103.193	20.095	2.425	0.504
344.000	233.072	79.997	19.996	103.193	20.093	2.588	0.487
352.000	237.025	80.000	19.994	103.189	20.097	2.296	0.461
360.000	240.951	80.001	19.996	103.190	20.094	2.505	0.488
368.000	244.863	80.002	19.996	103.180	20.095	2.417	0.480
376.000	248.723	80.001	19.996	103.183	20.099	2.143	0.470
384.000	252.704	80.001	19.995	103.176	20.096	2.350	0.479
392.000	256.673	80.002	19.994	103.184	20.098	2.185	0.479
400.000	260.691	80.001	19.995	103.182	20.097	2.280	0.486
408.000	264.617	80.000	19.995	103.186	20.099	2.113	0.510
416.000	268.634	80.001	19.995	103.173	20.098	2.197	0.481
424.000	272.751	80.000	19.995	103.172	20.100	2.087	0.516
432.000	276.717	80.001	19.995	103.171	20.098	2.185	0.477
440.000	280.777	80.002	19.995	103.172	20.103	1.865	0.461
448.000	284.844	80.002	19.994	103.153	20.101	1.980	0.503
456.000	288.871	80.003	19.996	103.164	20.105	1.734	0.517
464.000	292.935	80.002	19.997	103.155	20.103	1.865	0.537
472.000	296.865	79.999	19.996	103.154	20.106	1.662	0.456
480.000	300.851	80.001	19.996	103.155	20.101	2.012	0.472
488.000	304.876	80.000	19.996	103.153	20.102	1.937	0.477
496.000	308.813	80.002	19.996	103.152	20.099	2.167	0.519
504.000	312.859	80.000	19.995	103.151	20.100	2.052	0.512
512.000	316.845	80.001	19.994	103.150	20.099	2.139	0.468
520.000	320.803	80.001	19.994	103.153	20.102	1.919	0.496
528.000	324.838	80.001	19.998	103.157	20.100	2.048	0.493
536.000	328.865	80.002	19.995	103.154	20.101	1.988	0.515
544.000	332.904	80.005	19.995	103.151	20.097	2.301	0.539
552.000	336.947	80.003	19.997	103.146	20.096	2.390	0.506
560.000	340.983	80.001	19.996	103.150	20.098	2.245	0.514
568.000	344.989	80.001	19.996	103.149	20.096	2.374	0.492
576.000	349.022	80.000	19.995	103.149	20.090	2.808	0.491
584.000	353.111	79.999	19.995	103.154	20.085	3.171	0.537
592.000	357.136	80.001	19.996	103.154	20.084	3.272	0.524
600.000	361.191	80.005	19.995	103.157	20.075	3.915	0.525
608.000	365.255	80.003	19.995	103.159	20.064	4.683	0.519
616.000	369.460	80.002	19.995	103.157	20.056	5.324	0.521
624.000	373.573	80.005	19.996	103.150	20.042	6.331	0.537
632.000	377.683	80.003	19.995	103.168	20.027	7.412	0.523
640.000	381.816	80.004	19.996	103.177	19.998	9.582	0.492
648.000	385.878	80.001	19.997	103.185	19.962	12.225	0.505
656.000	389.971	80.002	19.996	103.203	19.908	16.159	0.517
664.000	393.980	79.999	19.994	103.235	19.829	21.988	0.530
672.000	398.048	80.002	19.996	103.273	19.727	29.541	0.499
680.000	402.117	80.003	19.996	103.308	19.627	36.929	0.512
688.000	406.229	80.003	19.996	103.297	19.594	39.325	0.506
696.000	410.307	80.003	19.996	103.346	19.508	45.706	0.530
704.000	414.332	80.003	19.996	103.384	19.387	54.641	0.512
712.000	418.251	80.001	19.997	103.463	19.212	67.633	0.490
720.000	422.174	80.002	19.995	103.556	19.022	81.518	0.480
728.000	426.066	80.002	19.996	103.853	18.444	124.683	0.497
736.000	429.964	80.000	19.996	103.809	18.284	136.454	0.480
744.000	433.925	80.002	19.998	103.820	18.157	145.901	0.509
752.000	437.886	80.001	19.995	103.893	18.013	156.582	0.472
760.000	441.953	80.003	19.995	103.946	17.883	166.248	0.536
768.000	446.193	80.002	19.996	103.972	17.825	170.541	0.519
776.000	450.560	80.002	19.995	103.944	17.895	165.181	0.498
784.000	454.971	80.003	19.995	103.881	18.095	150.242	0.549
792.000	459.360	80.005	19.994	103.776	18.403	127.323	0.534
800.000	463.757	80.004	19.995	103.662	18.837	95.226	0.526
808.000	468.025	79.999	19.995	103.555	19.235	65.797	0.502
816.000	472.235	80.003	19.996	103.432	19.497	46.452	0.499
824.000	476.472	80.000	19.996	103.341	19.676	33.253	0.545
832.000	480.649	80.000	19.996	103.274	19.816	22.939	0.513
840.000	484.837	80.002	19.996	103.216	19.926	14.866	0.503
848.000	488.918	80.001	19.994	103.183	19.990	10.153	0.527
856.000	492.972	80.002	19.995	103.154	20.024	7.685	0.512
864.000	497.105	80.004	19.996	103.148	20.045	6.103	0.523
872.000	501.198	80.003	19.996	103.149	20.045	6.100	0.528
880.000	505.227	80.002	19.995	103.129	20.045	6.107	0.525
888.000	509.257	80.001	19.995	103.126	20.051	5.660	0.534
896.000	513.310	80.003	19.996	103.122	20.058	5.141	0.490
904.000	517.420	80.001	19.995	103.126	20.060	4.980	0.500
912.000	521.502	80.001	19.996	103.134	20.060	5.010	0.491
920.000	525.560	80.002	19.997	103.119	20.061	4.900	0.502
928.000	529.656	80.003	19.996	103.122	20.064	4.742	0.471
936.000	533.783	80.003	19.996	103.143	20.072	4.120	0.514
944.000	537.891	80.004	19.994	103.149	20.083	3.333	0.493
952.000	542.009	80.004	19.995	103.138	20.076	3.830	0.527
960.000	546.034	80.003	19.996	103.119	20.070	4.244	0.472
968.000	550.129	80.002	19.996	103.118	20.066	4.594	0.500
976.000	554.228	80.003	19.995	103.114	20.068	4.392	0.510
984.000	558.263	80.001	19.996	103.119	20.064	4.704	0.516
992.000	562.323	80.002	19.996	103.119	20.063	4.776	0.499
1000.000	566.342	80.003	19.995	103.113	20.059	5.106	0.500
1008.000	570.374	80.003	19.997	103.109	20.061	4.921	0.504
1016.000	574.462	80.001	19.997	103.113	20.055	5.375	0.503
1024.000	578.482	80.003	19.996	103.110	20.060	4.985	0.506
1031.999	582.552	80.003	19.993	103.112	20.051	5.649	0.495
1040.000	586.541	80.002	19.995	103.115	20.060	5.028	0.497
1048.001	590.539	80.001	19.995	103.115	20.057	5.201	0.483
1055.999	594.645	80.000	19.995	103.114	20.054	5.458	0.501
1063.999	598.681	80.003	19.995	103.111	20.057	5.227	0.520
1071.999	602.722	80.000	19.995	103.110	20.059	5.080	0.489
1079.999	606.779	80.002	19.996	103.109	20.056	5.327	0.551
1087.999	610.812	80.003	19.998	103.108	20.053	5.538	0.491
1095.999	614.810	80.002	19.995	103.111	20.058	5.144	0.470
1103.999	618.835	80.002	19.997	103.109	20.054	5.446	0.478
1111.999	622.758	80.004	19.997	103.107	20.059	5.086	0.474
1119.999	626.710	80.001	19.996	103.111	20.054	5.480	0.461
1127.999	630.711	80.002	19.997	103.110	20.059	5.086	0.480
1135.999	634.949	80.003	19.995	103.118	20.055	5.370	0.560
1143.999	639.377	80.003	19.995	103.111	20.051	5.685	0.565
1151.999	643.873	80.002	19.997	103.121	20.059	5.072	0.577
1159.999	648.442	80.003	19.995	103.111	20.058	5.142	0.585
1167.999	653.003	80.003	19.995	103.115	20.058	5.148	0.574
1175.999	657.541	80.002	19.995	103.115	20.051	5.673	0.564
1183.999	661.993	80.003	19.996	103.114	20.061	4.897	0.566
1191.999	666.347	80.004	19.995	103.110	20.054	5.424	0.537
1199.999	670.569	80.001	19.996	103.104	20.062	4.866	0.520
1207.999	674.763	80.002	19.997	103.109	20.055	5.355	0.501
1215.999	678.738	80.002	19.994	103.101	20.059	5.076	0.501
1223.999	682.624	80.002	19.996	103.109	20.061	4.923	0.542
1231.999	686.423	80.002	19.995	103.111	20.062	4.831	0.480
1239.999	690.270	80.003	19.996	103.114	20.063	4.820	0.494
1247.999	694.071	80.002	19.997	103.115	20.068	4.454	0.467
1255.999	698.013	80.004	19.993	103.112	20.064	4.701	0.493
1263.999	701.982	80.001	19.995	103.110	20.063	4.800	0.496
1271.999	706.016	80.005	19.996	103.106	20.061	4.921	0.517
1279.999	710.036	80.003	19.995	103.111	20.056	5.300	0.504
1287.999	714.082	80.002	19.997	103.102	20.061	4.967	0.501
1295.999	718.153	80.002	19.996	103.111	20.056	5.287	0.501
1303.999	722.213	80.002	19.996	103.096	20.055	5.375	0.476
1311.999	726.240	80.001	19.995	103.106	20.051	5.668	0.556
1319.999	730.174	80.002	19.996	103.112	20.058	5.142	0.494
1327.999	734.119	80.003	19.997	103.108	20.055	5.393	0.470
1336.000	738.091	80.005	19.997	103.111	20.054	5.430	0.487
1343.999	742.114	80.004	19.995	103.105	20.050	5.761	0.519
1346.500	743.339	80.005	19.996	103.111	20.049	5.792	0.492