Folder: fsri_materials_database/01_Data/Fiberglass_Insulation_R30/Cone (part 4)

File: R30_Fiberglass_Insulation_Cone_HF75Scan_220503_R3.csv
Names,Time,Stack TC,Smoke TC,Exh Press,Smoke Comp,Smoke Meas,CO Meter,CO2 Meter,O2 Meter,Sample Mass,Ext Coeff,Start Test,Flame Verif
Chan Gain,,500,500,1,1,1,1,1,1,1,1,1.0,1.0
Offset,,0,0,0.135741,0,0,0,0,0,0,0,0.0,0.0
Gain,,1,1,25.011,14.8585,16.6522,1,1,1,1.00087,1.0138,1.0,1.0
Units,sec,C,C,Pa,%,%,%,%,%,g,/m,,
Baseline,,45.6288,47.2011,132.334,112.264,118.192,0.000418569,0.0481087,21.0109,-4.3732,-0.457478,,
31,7.5,43.7422,44.8553,129.926,112.095,118.683,0.00303566,0.0614201,20.994,497.461,-0.507915,0.0,0.0
62,15.25,44.6462,46.0127,136.109,112.105,117.63,0.00442926,0.063909,20.99,497.341,-0.427834,0.0,0.0
93,23,45.1593,46.4048,130.79,112.123,117.629,0.00470268,0.0665835,20.987,497.321,-0.426318,0.0,0.0
124,30.75,45.5999,47.3066,131.926,112.146,118.588,0.00322663,0.0640669,20.9929,497.331,-0.496727,0.0,0.0
155,38.5,46.2794,47.6485,130.821,112.163,119.101,0.0017085,0.0567597,20.9998,497.371,-0.533805,0.0,0.0
186,46.25,46.0915,47.7903,129.822,112.204,117.797,0.00128417,0.0522042,21.005,497.351,-0.432591,0.0,0.0
217,54,46.1796,48.0979,132.241,112.246,117.697,0.000985146,0.049983,21.0073,497.361,-0.421688,0.0,0.0
248,61.75,46.1641,48.1894,129.15,112.322,119.023,0.000996829,0.0492546,21.0074,497.351,-0.515349,0.0,0.0
279,69.5,46.7841,47.8204,130.653,112.387,117.814,0.000742796,0.0490498,21.0084,497.351,-0.419352,0.0,0.0
310,77.25,46.7635,47.7894,129.867,112.487,119.235,0.000387926,0.0485002,21.0087,497.371,-0.518147,0.0,0.0
341,85,46.6021,47.7068,132.408,112.548,118.224,0.000429629,0.0482737,21.0087,497.351,-0.437562,0.0,0.0
372,92.75,46.3363,48.4979,130.847,112.606,118.979,0.000662967,0.0482878,21.0087,497.321,-0.489636,0.0,0.0
403,100.5,46.533,48.1363,131.045,112.665,119.682,0.000645954,0.0480944,21.0098,497.321,-0.53736,0.0,0.0
434,108.25,46.4506,48.5274,129.19,112.729,118.836,0.000233132,0.0483159,21.0106,497.291,-0.469109,0.0,0.0
465,116,46.8428,48.0646,132.423,112.815,118.278,0.000122238,0.0482237,21.0109,497.331,-0.420571,0.0,0.0
496,123.75,46.5463,48.2894,128.856,112.837,118.196,0.000508264,0.0480866,21.0117,497.301,-0.412592,0.0,0.0
527,131.5,46.9183,48.6253,130.263,112.874,119.053,0.000433216,0.0480288,21.0127,497.301,-0.474003,0.0,0.0
558,139.25,46.9976,48.4121,131.915,112.929,119.149,0.000395605,0.0479401,21.0124,497.271,-0.476744,0.0,0.0
589,147,46.7215,48.5844,130.241,112.991,118.218,0.00014469,0.0482028,21.0124,497.291,-0.402129,0.0,0.0
620,154.75,47.0097,48.7135,130.82,113.091,120.94,0.00025949,0.048432,21.0124,497.291,-0.596713,0.0,0.0
651,162.5,46.7071,49.027,131.342,113.172,119.812,0.000522303,0.0480467,21.0119,497.321,-0.507024,0.0,0.0
682,170.25,46.1781,48.7375,130.917,113.246,120.711,0.000444284,0.0481228,21.0117,497.261,-0.567658,0.0,0.0
713,178,46.5909,48.5503,129.519,113.282,119.665,0.000555443,0.0479732,21.0117,497.301,-0.487533,0.0,0.0
744,185.75,46.927,48.6162,133.106,113.313,119.452,0.000493924,0.0480368,21.0134,497.261,-0.469166,0.0,0.0
775,193.5,46.8684,48.7831,129.759,113.377,120.204,0.000627634,0.047799,21.013,497.251,-0.520003,0.0,0.0
806,201.25,46.5587,48.8137,133.437,113.41,119.844,0.00059733,0.0477656,21.0113,497.291,-0.490675,0.0,0.0
837,209,46.7901,49.1038,130.424,113.424,119.034,0.000509268,0.0478352,21.012,497.261,-0.429333,0.0,0.0
868,216.75,47.0049,49.0068,130.177,113.455,120.66,0.000383355,0.047979,21.012,497.281,-0.547513,0.0,0.0
899,224.5,46.9246,48.9045,129.421,113.463,120.328,0.000633426,0.0482401,21.011,497.251,-0.522379,0.0,0.0
930,232.25,47.1329,49.2327,132.945,113.488,120.051,0.000740423,0.0479461,21.0139,497.261,-0.499896,0.0,0.0
961,240,47.1498,48.907,136.351,113.479,120.843,0.000291302,0.0478787,21.0139,497.261,-0.559103,0.0,0.0
992,247.75,46.5875,48.2802,130.751,113.485,121.1,0.000454233,0.047921,21.0125,497.251,-0.577542,0.0,0.0
1023,255.5,47.0156,49.0355,132.148,113.473,119.82,0.000375256,0.0478816,21.0147,497.271,-0.483999,0.0,0.0
1054,263.25,47.4299,49.5218,131.719,113.468,119.79,0.00035527,0.0479058,21.015,497.281,-0.482163,0.0,0.0
1085,271,47.079,48.5856,125.486,113.469,120.726,0.000299383,0.0478753,21.015,497.251,-0.551351,0.0,0.0
1116,278.75,47.3518,49.1368,130.758,113.464,120.012,0.000137982,0.0479766,21.0133,497.251,-0.498919,0.0,0.0
1147,286.5,47.1105,49.4564,126.731,113.449,120.931,0.000492022,0.0479501,21.0117,497.271,-0.567987,0.0,0.0
1178,294.25,47.499,49.4366,129.287,113.433,119.578,0.000263048,0.0481239,21.0117,497.271,-0.469189,0.0,0.0
1209,302,47.8297,49.3829,130.36,113.414,118.832,0.000192824,0.0480474,21.0136,497.261,-0.415031,0.0,0.0
1240,309.75,47.8859,49.2374,132.673,113.378,119.956,9.22891e-05,0.0480897,21.0132,497.241,-0.501492,0.0,0.0
1271,317.5,47.1031,49.2546,130.146,113.349,119.685,0.000303658,0.0481599,21.0143,497.281,-0.483666,0.0,0.0
1302,325.25,47.3895,49.9038,131.798,113.308,119.674,0.000576999,0.0480435,21.0123,497.261,-0.486073,0.0,0.0
1333,333,47.501,49.7528,129.403,113.286,119.761,0.000617877,0.0483531,21.0124,497.241,-0.494312,0.0,0.0
1364,340.75,47.3952,49.0023,131.918,113.243,119.703,0.000531505,0.0485204,21.0092,497.241,-0.493354,0.0,0.0
1395,348.5,47.3641,49.6666,133.797,113.209,118.477,0.000334157,0.0484963,21.011,497.241,-0.40449,0.0,0.0
1426,356.25,48.1399,49.4556,132.246,113.135,119.906,0.00022021,0.0482948,21.0123,497.231,-0.516957,0.0,0.0
1457,364,47.4349,49.4171,130.155,113.069,118.725,0.00041282,0.0484258,21.0113,497.231,-0.434101,0.0,0.0
1488,371.75,47.9473,48.9711,132.576,113.012,119.207,0.000167365,0.0483981,21.0093,497.221,-0.474572,0.0,0.0
1519,379.5,47.613,49.4541,133.068,112.972,119.994,0.000509307,0.0484928,21.0083,497.261,-0.536245,0.0,0.0
1550,387.25,47.4763,49.5829,129.88,112.904,119.086,0.000158461,0.048355,21.009,497.251,-0.474041,0.0,0.0
1581,395,47.7431,49.4461,132.854,112.875,119.456,0.000399329,0.048347,21.0093,497.241,-0.503948,0.0,0.0
1612,402.75,47.7101,49.6118,138.073,112.844,119.432,0.000634017,0.0485651,21.0106,497.221,-0.504562,0.0,0.0
1643,410.5,47.5853,49.9098,130.854,112.828,118.128,0.000562018,0.0485444,21.0085,497.251,-0.408255,0.0,0.0
1674,418.25,48.057,49.4484,131.812,112.811,118.944,0.000235485,0.0486108,21.0075,497.251,-0.470772,0.0,0.0
1705,426,47.6586,49.6449,131.012,112.801,118.196,0.000491044,0.0487156,21.0067,497.251,-0.415415,0.0,0.0
1736,433.75,47.562,49.4609,129.114,112.753,119.436,0.000292695,0.0488632,21.0051,497.251,-0.512052,0.0,0.0
1767,441.5,47.7764,49.3757,132.969,112.726,120.063,0.000597885,0.0489259,21.0067,497.201,-0.560768,0.0,0.0
1798,449.25,47.455,49.5083,131.223,112.674,118.461,0.00087134,0.0490678,21.007,497.231,-0.445438,0.0,0.0
1829,457,47.3517,49.6483,131.278,112.651,118.924,0.000380031,0.0493062,21.0065,497.251,-0.481953,0.0,0.0
1860,464.75,47.2581,48.9128,130.045,112.685,118.208,0.000358546,0.0492748,21.0083,497.231,-0.425525,0.0,0.0
1891,472.5,47.2615,49.0424,131.867,112.805,118.216,0.000446298,0.0492577,21.0112,497.211,-0.416694,0.0,0.0
1922,480.25,47.4655,49.4106,129.635,112.923,119.475,0.000407057,0.0490999,21.0099,497.241,-0.501561,0.0,0.0
1953,488,47.1769,49.2632,130.165,113.003,119.345,0.000543682,0.0490639,21.0088,497.251,-0.485592,0.0,0.0
1984,495.75,47.7561,49.1878,131.771,113.054,119.283,0.00015727,0.0490433,21.0078,497.231,-0.476976,0.0,0.0
2015,503.5,47.2694,49.1896,130.628,113.093,119.935,0.000158584,0.0490098,21.0086,497.231,-0.522312,0.0,0.0
2046,511.25,47.0067,48.7034,131.721,113.124,118.365,0.000393328,0.048972,21.0086,497.211,-0.40276,0.0,0.0
2077,519,47.658,49.1239,134.654,113.143,119.052,3.28591e-05,0.0488983,21.0086,497.231,-0.452697,0.0,0.0
2108,526.75,46.6997,49.0672,130.868,113.193,118.119,0.000447268,0.0488406,21.0086,497.241,-0.378806,0.0,0.0
2139,534.5,47.3011,49.0211,130.902,113.211,120.131,0.000366622,0.0488001,21.0098,497.271,-0.527653,0.0,0.0
2170,542.25,47.3531,49.1635,131.741,113.253,118.643,-1.49365e-06,0.0492218,21.0099,497.201,-0.413499,0.0,0.0
2201,550,47.4911,49.5221,127.652,113.287,119.092,0.000252093,0.0490673,21.0079,497.251,-0.44444,0.0,0.0
2232,557.75,47.1816,49.2917,130.201,113.348,120.179,0.000344821,0.0489125,21.0084,497.221,-0.520402,0.0,0.0
2263,565.5,48.0644,48.8492,134.671,113.408,119.87,0.00034676,0.0487706,21.0106,497.251,-0.492814,0.0,0.0
2294,573.25,47.6797,49.841,132.022,113.444,119.864,0.000609829,0.0486585,21.0108,497.231,-0.489588,0.0,0.0
2325,581,47.821,49.3477,134.755,113.45,119.531,0.000271996,0.0486933,21.0079,497.221,-0.464287,0.0,0.0
2356,588.75,47.2587,49.1136,132.647,113.449,119.273,-1.07702e-05,0.048548,21.0094,497.221,-0.445169,0.0,0.0
2387,596.5,47.7271,49.6453,130.104,113.434,120.125,2.19967e-05,0.0482696,21.008,497.241,-0.509728,0.0,0.0
2418,604.25,45.6047,47.7666,134.094,113.394,120.236,0.000538457,0.0483156,21.0082,497.231,-0.52102,0.0,0.0
2449,612,45.5835,47.477,130.136,113.386,118.564,0.000737087,0.048281,21.0097,497.241,-0.397132,0.0,0.0
2480,619.75,46.0467,47.6729,129.067,113.369,119.361,0.000485878,0.0483244,21.0076,497.191,-0.45805,0.0,0.0
2511,627.5,45.6034,47.9254,133.441,113.342,118.341,0.000414942,0.0484106,21.0102,497.251,-0.383868,0.0,0.0
2542,635.25,45.6616,47.2199,129.69,113.323,118.983,0.000645704,0.0482806,21.0118,497.251,-0.433467,0.0,0.0
2573,643,45.9209,47.5338,130.337,113.283,119.488,0.000109749,0.0485438,21.0097,497.241,-0.474201,0.0,0.0
2604,650.75,45.4448,47.6249,129.044,113.273,119.009,6.26667e-05,0.048585,21.0093,497.251,-0.439355,0.0,0.0
2635,658.5,45.5762,47.151,131,113.23,118.65,5.67977e-06,0.0484595,21.0088,497.241,-0.41574,0.0,0.0
2666,666.25,45.7236,47.8854,131.812,113.196,118.546,0.000579245,0.0484502,21.0085,497.231,-0.410712,0.0,0.0
2697,674,45.8514,47.7446,129.26,113.169,119.684,0.000440701,0.0486569,21.0089,497.241,-0.497761,0.0,0.0
2728,681.75,45.9329,47.439,129.642,113.13,119.067,0.000488636,0.0483444,21.0089,497.241,-0.454831,0.0,0.0
2759,689.5,45.5606,47.3817,133.813,113.123,118.639,0.000468259,0.0485362,21.0089,497.241,-0.423385,0.0,0.0
2790,697.25,46.0869,47.5527,131.527,113.121,118.829,0.000763351,0.0486077,21.0099,497.231,-0.4378,0.0,0.0
2821,705,46.4049,47.4538,131.281,113.075,119.598,0.000417167,0.0488506,21.0099,497.231,-0.498794,0.0,0.0
2852,712.75,45.3779,47.8056,129.975,113.036,119.529,,0.0487857,,497.251,-0.496683,0.0,0.0
2883,720.5,45.6282,47.8865,131.278,112.994,119.211,,,,497.241,-0.476339,0.0,0.0
2884,720.75,45.6658,47.3191,131.829,112.996,119.249,,,,497.241,-0.478968,0.0,0.0