Folder: fsri_materials_database/01_Data/Fiberglass_Insulation_R30/Cone (part 3)

File: R30_Fiberglass_Insulation_Cone_HF50Scan_220503_R3.csv
Names,Time,Stack TC,Smoke TC,Exh Press,Smoke Comp,Smoke Meas,CO Meter,CO2 Meter,O2 Meter,Sample Mass,Ext Coeff,Start Test,Flame Verif
Chan Gain,,500,500,1,1,1,1,1,1,1,1,1.0,1.0
Offset,,0,0,0.135741,0,0,0,0,0,0,0,0.0,0.0
Gain,,1,1,25.011,14.8585,16.6522,1,1,1,1.00087,1.0138,1.0,1.0
Units,sec,C,C,Pa,%,%,%,%,%,g,/m,,
Baseline,,34.0231,35.1057,139.8,112.25,113.952,0.000510907,0.0489745,21.0109,-1.24766,-0.133759,,
31,7.5,31.988,33.1182,136.528,112.05,113.764,0.0020752,0.0549457,21.0026,502.285,-0.135023,0.0,0.0
62,15.25,32.2486,33.386,136.41,112.071,114.29,0.00263842,0.0561926,21.0001,502.155,-0.174388,0.0,0.0
93,23,33.1628,34.0831,136.958,112.122,114.576,0.00248088,0.0556976,21.0027,502.095,-0.192557,0.0,0.0
124,30.75,33.4404,34.6905,141.773,112.154,113.77,0.00189113,0.0551042,21.0045,502.035,-0.127262,0.0,0.0
155,38.5,33.7732,34.7351,138.413,112.174,114.074,0.00226179,0.0546412,21.0062,501.995,-0.149402,0.0,0.0
186,46.25,34.3358,35.2057,135.601,112.204,114.264,0.00200743,0.0543663,21.0031,501.995,-0.161835,0.0,0.0
217,54,34.1576,35.1357,140.401,112.191,113.913,0.00166004,0.0539245,21.0029,501.965,-0.135505,0.0,0.0
248,61.75,34.4597,35.6862,140.24,112.218,114.137,0.00126818,0.0534251,21.0029,501.965,-0.150827,0.0,0.0
279,69.5,34.7028,35.43,139.438,112.222,114.585,0.00138942,0.0527522,21.0091,501.955,-0.185355,0.0,0.0
310,77.25,35.2076,36.1442,135.506,112.247,114.814,0.00124963,0.0522318,21.0095,501.955,-0.201038,0.0,0.0
341,85,34.7371,35.9618,136.241,112.295,114.279,0.00117157,0.0518668,21.0111,501.955,-0.155725,0.0,0.0
372,92.75,35.0152,36.4328,136.768,112.353,114.392,0.00109795,0.0516548,21.0074,501.915,-0.159976,0.0,0.0
403,100.5,35.0276,36.5666,135.15,112.413,114.627,0.00100323,0.0515291,21.007,501.885,-0.173402,0.0,0.0
434,108.25,34.9539,36.5125,134.036,112.445,115.152,0.000682579,0.0515968,21.007,501.895,-0.211561,0.0,0.0
465,116,35.773,36.6823,136.037,112.454,115.071,0.0010952,0.0511394,21.013,501.905,-0.204606,0.0,0.0
496,123.75,35.5922,36.6768,137.776,112.513,114.932,0.000976583,0.0510066,21.0133,501.885,-0.189174,0.0,0.0
527,131.5,35.4768,36.9373,138.269,112.546,114.361,0.00078475,0.0508056,21.0133,501.885,-0.142294,0.0,0.0
558,139.25,35.6314,37.0693,139.263,112.559,114.545,0.00095175,0.0504716,21.0117,501.895,-0.155509,0.0,0.0
589,147,35.9657,36.8613,139.981,112.581,114.879,0.000914499,0.0502505,21.0138,501.865,-0.179748,0.0,0.0
620,154.75,35.1777,36.3811,137.734,112.599,114.767,0.000900482,0.0499781,21.0139,501.875,-0.169582,0.0,0.0
651,162.5,35.7583,36.7649,137.209,112.608,115.334,0.00113586,0.0498856,21.0141,501.875,-0.212739,0.0,0.0
682,170.25,35.8655,37.3151,136.885,112.658,114.503,0.000704041,0.0495864,21.0149,501.845,-0.144502,0.0,0.0
713,178,35.9638,37.2083,136.097,112.657,115.011,0.000809448,0.0494329,21.0144,501.875,-0.183955,0.0,0.0
744,185.75,35.8651,37.3164,134.779,112.698,114.933,0.000560976,0.0496291,21.0148,501.835,-0.174645,0.0,0.0
775,193.5,35.9298,36.7417,136.946,112.747,114.529,0.000515927,0.0493782,21.0148,501.855,-0.139502,0.0,0.0
806,201.25,35.5513,37.2005,138.704,112.775,115.551,0.000422227,0.0491925,21.0143,501.845,-0.216212,0.0,0.0
837,209,36.0727,36.8426,138.398,112.82,114.935,0.000381834,0.0491168,21.0132,501.825,-0.165218,0.0,0.0
868,216.75,35.4625,37.1567,135.834,112.852,115.009,0.000617667,0.0491962,21.0131,501.845,-0.168384,0.0,0.0
899,224.5,35.3038,37.2063,139.845,112.876,114.786,0.000396316,0.0492602,21.0145,501.825,-0.149184,0.0,0.0
930,232.25,35.5563,37.5587,140.615,112.904,115.243,0.00024329,0.0491832,21.0147,501.835,-0.182333,0.0,0.0
961,240,35.7699,36.9937,137.596,112.938,115.264,0.000645494,0.0491287,21.0151,501.825,-0.181295,0.0,0.0
992,247.75,35.887,36.7468,139.015,112.945,115.219,0.000923294,0.0492919,21.0154,501.815,-0.177272,0.0,0.0
1023,255.5,35.6027,37.3104,139.242,112.962,114.776,0.000796974,0.0490483,21.0142,501.795,-0.141722,0.0,0.0
1054,263.25,35.3197,37.6472,138.405,112.976,114.837,0.000551101,0.0488136,21.0145,501.815,-0.145303,0.0,0.0
1085,271,36.2597,36.9396,133.861,112.967,115.534,0.000786704,0.0488081,21.015,501.815,-0.199772,0.0,0.0
1116,278.75,35.7618,37.2042,139.214,112.996,115.382,0.000601866,0.0488076,21.0154,501.805,-0.185859,0.0,0.0
1147,286.5,35.7281,37.1032,135.809,112.999,115.314,0.000730337,0.0487055,21.0162,501.805,-0.180321,0.0,0.0
1178,294.25,35.9353,37.1395,140.215,112.997,115.284,0.000566657,0.0486405,21.0155,501.795,-0.178226,0.0,0.0
1209,302,35.7386,36.8876,136.851,112.979,114.847,0.000481082,0.0486201,21.0145,501.785,-0.145876,0.0,0.0
1240,309.75,35.9067,37.0091,135.244,112.964,115.456,0.00060959,0.0489244,21.0136,501.795,-0.194035,0.0,0.0
1271,317.5,35.9691,37.6581,138.447,112.952,115.23,0.000395498,0.0490388,21.0111,501.805,-0.177639,0.0,0.0
1302,325.25,36.1989,37.3339,137.904,112.949,115.074,0.000422653,0.0492087,21.0105,501.805,-0.165804,0.0,0.0
1333,333,35.7086,37.6613,133.272,112.949,115.664,0.000319971,0.0492147,21.0108,501.805,-0.211244,0.0,0.0
1364,340.75,35.9059,37.637,136.339,112.974,115.263,0.000380357,0.0490303,21.0108,501.795,-0.178399,0.0,0.0
1395,348.5,36.4246,37.0027,138.559,112.98,114.885,0.000569485,0.0488958,21.0127,501.785,-0.148756,0.0,0.0
1426,356.25,36.1002,37.1816,138.264,113.001,115.725,0.000655327,0.0488761,21.0136,501.785,-0.211827,0.0,0.0
1457,364,35.9048,37.4954,138.212,112.985,115.577,0.000307272,0.0492684,21.0125,501.775,-0.201705,0.0,0.0
1488,371.75,35.8328,37.4518,136.224,112.979,114.675,0.00060096,0.0491443,21.0137,501.765,-0.132487,0.0,0.0
1519,379.5,36.1835,37.5686,134.73,112.969,115.398,0.000814727,0.0491985,21.0138,501.795,-0.189176,0.0,0.0
1550,387.25,36.4634,36.968,140.56,112.994,115.522,0.000386403,0.0490108,21.013,501.775,-0.196803,0.0,0.0
1581,395,35.6504,37.5825,139.187,113.004,115.241,0.000526441,0.0489815,21.0121,501.795,-0.174282,0.0,0.0
1612,402.75,35.8818,37.4962,136.975,113.023,115.632,0.000491646,0.0489125,21.0121,501.775,-0.202929,0.0,0.0
1643,410.5,36.2217,37.2685,137.039,113.031,115.08,0.000490879,0.0486971,21.0132,501.755,-0.159738,0.0,0.0
1674,418.25,36.3466,37.8063,133.78,113.022,116.423,0.000472717,0.0485902,21.0165,501.765,-0.263682,0.0,0.0
1705,426,36.5616,37.3806,135.233,113.007,115.824,0.00044567,0.0485721,21.0154,501.745,-0.218975,0.0,0.0
1736,433.75,36.0769,37.1642,139.282,112.984,114.75,0.000648932,0.0489781,21.0145,501.755,-0.137929,0.0,0.0
1767,441.5,35.9778,37.2988,138.554,112.945,115.834,0.00048309,0.0486655,21.0152,501.765,-0.224606,0.0,0.0
1798,449.25,35.7477,37.7575,137.177,112.843,114.781,0.000556353,0.0488129,21.0157,501.735,-0.151434,0.0,0.0
1829,457,36.297,37.4156,142.294,112.733,114.899,0.000663228,0.0488464,21.014,501.755,-0.16918,0.0,0.0
1860,464.75,36.1979,37.2716,136.707,112.599,114.758,0.000520514,0.0489046,21.0153,501.735,-0.168908,0.0,0.0
1891,472.5,36.0318,37.4067,137.116,112.477,114.044,0.000434614,0.0489949,21.0142,501.755,-0.123044,0.0,0.0
1922,480.25,36.2407,37.705,139.965,112.518,114.663,0.000445747,0.0490882,21.0136,501.735,-0.167958,0.0,0.0
1953,488,36.4983,37.488,139.843,112.549,114.61,0.000217489,0.0491588,21.0134,501.735,-0.161346,0.0,0.0
1984,495.75,36.2294,37.2254,135.174,112.609,114.315,0.000395023,0.049195,21.0134,501.765,-0.133718,0.0,0.0
2015,503.5,35.5773,37.4542,135.963,112.671,115.076,0.000360097,0.0492267,21.013,501.735,-0.187799,0.0,0.0
2046,511.25,35.877,37.1066,138.839,112.707,115.473,0.000470582,0.0491605,21.0128,501.735,-0.215591,0.0,0.0
2077,519,35.9112,37.5045,139.06,112.77,115.266,0.0007769,0.0492809,21.0135,501.735,-0.194672,0.0,0.0
2108,526.75,36.1888,37.6351,139.588,112.822,114.74,0.00070841,0.0494449,21.0137,501.735,-0.149892,0.0,0.0
2139,534.5,36.2638,37.0454,140.437,112.887,114.827,0.000324334,0.0494676,21.0114,501.745,-0.15159,0.0,0.0
2170,542.25,36.248,37.3201,138.696,112.946,115.381,0.000165302,0.0495938,21.0102,501.745,-0.189669,0.0,0.0
2201,550,36.0167,37.056,134.578,113.027,115.194,0.000561717,0.0495549,21.0117,501.735,-0.16893,0.0,0.0
2232,557.75,36.1437,37.3551,135.932,113.128,116.236,0.000668285,0.0496237,21.0121,501.805,-0.240966,0.0,0.0
2263,565.5,35.9614,37.176,139.025,113.19,115.288,0.000374766,0.0496753,21.0118,501.755,-0.163385,0.0,0.0
2294,573.25,36.1445,37.3784,136.525,113.246,115.677,0.000271865,0.0494968,21.0124,501.755,-0.188871,0.0,0.0
2325,581,35.9827,37.3874,138.565,113.302,115.694,0.00024733,0.0495467,21.0126,501.725,-0.185856,0.0,0.0
2356,588.75,36.0111,37.3603,137.256,113.334,115.113,0.00020081,0.0496968,21.0113,501.725,-0.138529,0.0,0.0
2387,596.5,35.7088,36.8452,136.501,113.372,115.209,0.000626194,0.0496639,21.0122,501.725,-0.142958,0.0,0.0
2418,604.25,34.0789,35.3594,136.018,113.415,116.425,0.000365539,0.0499095,21.0104,501.745,-0.232957,0.0,0.0
2449,612,34.4119,35.5409,140.809,113.449,114.942,0.000174385,0.0495924,21.0108,501.715,-0.116295,0.0,0.0
2480,619.75,34.4313,35.4705,138.106,113.478,116.469,0.000281538,0.0498372,21.0116,501.725,-0.231428,0.0,0.0
2511,627.5,34.647,35.5887,136.695,113.461,115.771,0.000284158,0.0499074,21.0119,501.715,-0.179194,0.0,0.0
2542,635.25,34.7502,35.7278,139.798,113.463,115.669,0.000567902,0.0500305,21.0093,501.725,-0.171202,0.0,0.0
2573,643,34.2017,35.1932,136.906,113.419,115.74,0.000487856,0.0501306,21.0088,501.715,-0.180157,0.0,0.0
2604,650.75,33.9574,35.9505,134.237,113.405,116.384,0.000500176,0.0502232,21.0075,501.725,-0.230559,0.0,0.0
2635,658.5,34.4546,35.3546,136.337,113.391,116.391,-8.64495e-05,0.0502118,21.007,501.705,-0.232241,0.0,0.0
2666,666.25,34.1644,35.1482,132.865,113.384,116.082,0.00038775,0.0501074,21.0088,501.715,-0.209171,0.0,0.0
2697,674,33.8744,35.459,133.283,113.351,115.427,0.000372076,0.0500534,21.0121,501.705,-0.161367,0.0,0.0
2728,681.75,34.4368,35.693,134.059,113.324,115.944,0.000462024,0.0500821,21.012,501.705,-0.203236,0.0,0.0
2759,689.5,34.2701,35.3918,139.076,113.312,115.638,0.000532279,0.0499505,21.011,501.705,-0.1807,0.0,0.0
2790,697.25,34.5096,35.0757,133.703,113.278,115.696,0.000284606,0.0500528,21.0111,501.705,-0.187899,0.0,0.0
2821,705,34.6361,35.5884,138.647,113.271,115.737,0.000394042,0.0500556,21.0116,501.705,-0.191482,0.0,0.0
2852,712.75,34.46,35.1759,136.189,113.256,114.849,,,,501.695,-0.124252,0.0,0.0
2883,720.5,34.6421,35.8591,136.433,113.255,115.23,,,,501.715,-0.153787,0.0,0.0

File: R30_Fiberglass_Insulation_Cone_HF75Scalar_220503_R2.csv
LABORATORY,FSRI
TEST IDENT,R30Insulation_HF75_2
OPERATOR,Dow
MATERIAL,R30 Fiberglass Insulation
ORIENTATION,Horizontal
HEAT FLUX,75
SURF AREA,0.01
C FACTOR,0.0417509
SPEC HOLDER DIFF,-566
SPECIMEN MASS,6.28
SCAN TIME,0.25
O2 DELAY TIME,11
CO DELAY TIME,11
CO2 DELAY TIME,8
FLOW FACTOR,1
SCAN COUNT,2885
TIME TO IGN,0
END OF TEST SCAN,2405
END OF TEST TIME,601.25
TEST STATUS,1
PRE TEST CMT,Dimensions: 105 x 97  x 61 mm
POST TEST CMT,Within the first minute of exposure the sample shriveled significantly (see post test pictures). No ignition. Test ended after 10 minutes. No mass loss after 10 minutes in replicate R1.

File: R30_Fiberglass_Insulation_Cone_HF75Scalar_220503_R3.csv
LABORATORY,FSRI
TEST IDENT,R30Insulation_HF75_3
OPERATOR,Dow
MATERIAL,R30 Fiberglass Insulation
ORIENTATION,Horizontal
HEAT FLUX,75
SURF AREA,0.01
C FACTOR,0.0417509
SPEC HOLDER DIFF,-566
SPECIMEN MASS,4.38
SCAN TIME,0.25
O2 DELAY TIME,11
CO DELAY TIME,11
CO2 DELAY TIME,8
FLOW FACTOR,1
SCAN COUNT,2884
TIME TO IGN,0
END OF TEST SCAN,2404
END OF TEST TIME,601
TEST STATUS,1
PRE TEST CMT,Dimensions: 100 x 97 x 51 mm
POST TEST CMT,Within the first minute of exposure the sample shriveled significantly (see post test pictures). No ignition. Test ended after 10 minutes. No mass loss after 10 minutes in replicate R1.

File: R30_Fiberglass_Insulation_Cone_HF75Scan_220503_R1.csv
Names,Time,Stack TC,Smoke TC,Exh Press,Smoke Comp,Smoke Meas,CO Meter,CO2 Meter,O2 Meter,Sample Mass,Ext Coeff,Start Test,Flame Verif
Chan Gain,,500,500,1,1,1,1,1,1,1,1,1.0,1.0
Offset,,0,0,0.135741,0,0,0,0,0,0,0,0.0,0.0
Gain,,1,1,25.011,14.8585,16.6522,1,1,1,1.00087,1.0138,1.0,1.0
Units,sec,C,C,Pa,%,%,%,%,%,g,/m,,
Baseline,,42.1416,43.7507,134.748,113.441,116.884,0.000746496,0.0485188,21.007,-2.05332,-0.265875,,
82,20.25,41.6636,43.4914,133.198,112.755,116.429,0.00644843,0.0723472,20.9781,498.142,-0.285114,0.0,0.0
164,40.75,42.4662,44.4089,129.535,112.324,115.952,0.00170549,0.0581507,20.9975,498.172,-0.282666,0.0,0.0
246,61.25,42.8714,44.6754,127.405,112.181,116.694,0.000860756,0.0515941,21.0078,498.162,-0.350705,0.0,0.0
328,81.75,43.2542,45.5879,131.012,112.087,116.365,0.000677029,0.0515438,21.008,498.132,-0.333131,0.0,0.0
410,102.25,43.4662,45.497,134.435,111.935,115.921,0.000727576,0.0497812,21.0079,498.072,-0.311183,0.0,0.0
492,122.75,43.7498,45.9701,137.104,111.802,115.408,0.000524231,0.0492818,21.0103,498.102,-0.282282,0.0,0.0
574,143.25,44.1679,46.2496,128.943,111.712,116.031,0.000294438,0.0491491,21.0096,498.062,-0.337381,0.0,0.0
656,163.75,44.4333,46.0203,130.773,111.615,115.358,0.000465297,0.0492669,21.0108,498.042,-0.293276,0.0,0.0
738,184.25,44.9104,46.4388,129.883,111.581,115.169,0.000399075,0.0490884,21.0098,498.042,-0.28144,0.0,0.0
820,204.75,44.8078,46.5161,131.252,111.603,115.162,0.000882836,0.0491429,21.0077,498.032,-0.279159,0.0,0.0
902,225.25,44.7494,46.6539,130.747,111.649,116.055,0.000771784,0.0490925,21.008,497.992,-0.344231,0.0,0.0
984,245.75,44.6509,46.4753,131.946,111.767,115.293,0.000426798,0.0494562,21.0096,497.992,-0.276244,0.0,0.0
1066,266.25,44.9539,47.0302,131.053,111.967,116.208,0.000647174,0.0490885,21.0089,497.982,-0.330626,0.0,0.0
1148,286.75,44.7836,47.0117,128.903,112.172,116.88,0.000793969,0.0488947,21.0087,497.982,-0.365623,0.0,0.0
1230,307.25,45.3838,47.056,131.014,112.405,115.864,0.000720683,0.0485594,21.0092,497.992,-0.269536,0.0,0.0
1312,327.75,45.4852,47.6263,131.138,112.643,117.191,0.000359725,0.0480738,21.0117,498.002,-0.351982,0.0,0.0
1394,348.25,45.6292,47.1395,132.176,112.796,116.915,0.000152942,0.0480158,21.0132,497.972,-0.318929,0.0,0.0
1476,368.75,45.4,46.5646,134.486,112.918,116.491,0.000436565,0.0482198,21.0108,497.952,-0.277018,0.0,0.0
1558,389.25,45.475,47.2423,130.786,112.94,116.789,0.00056657,0.0481203,21.0108,497.952,-0.298011,0.0,0.0
1640,409.75,45.2026,47.3738,130.537,112.951,117.559,0.000112964,0.0481819,21.0123,497.972,-0.355623,0.0,0.0
1722,430.25,45.5105,47.1795,133.927,112.985,117.783,0.0003896,0.0480367,21.013,497.972,-0.369882,0.0,0.0
1804,450.75,45.409,47.2564,133.734,112.934,116.788,0.000460689,0.0481443,21.0126,497.942,-0.298398,0.0,0.0
1886,471.25,45.0901,46.7896,134.257,112.715,117.172,0.000356186,0.04834,21.0104,497.952,-0.344868,0.0,0.0
1968,491.75,45.8291,47.5144,128.388,112.542,117.631,0.000412078,0.0481194,21.0104,497.912,-0.393305,0.0,0.0
2050,512.25,45.9033,47.5483,132.637,112.415,116.749,6.28692e-05,0.0480301,21.0132,497.912,-0.336433,0.0,0.0
2132,532.75,46.0038,47.7971,131.512,112.339,116.509,0.00070606,0.0475948,21.0119,497.932,-0.324096,0.0,0.0
2214,553.25,45.9108,47.5098,130.693,112.262,118.255,0.000379822,0.0476482,21.0117,497.902,-0.462494,0.0,0.0
2296,573.75,45.7429,47.5931,133.976,112.297,117.094,0.000265436,0.047581,21.0152,497.942,-0.372009,0.0,0.0
2378,594.25,46.2773,47.7545,132.931,112.338,116.646,0.000288875,0.047571,21.0134,497.922,-0.334671,0.0,0.0
2460,614.75,45.9513,47.9095,130.742,112.333,116.886,0.000147734,0.047461,21.0148,497.932,-0.353334,0.0,0.0
2542,635.25,44.7828,47.3347,128.971,112.304,116.155,6.61885e-05,0.0473214,21.0141,497.892,-0.299825,0.0,0.0
2624,655.75,45.0668,46.9375,131.225,112.374,116.191,0.000317273,0.0473008,21.0135,497.872,-0.297057,0.0,0.0
2706,676.25,44.9476,46.9712,133.822,112.416,116.773,0.000322332,0.0472303,21.0138,497.902,-0.338144,0.0,0.0
2788,696.75,45.2012,47.0895,131.218,112.588,116.506,0.000596686,0.0472237,21.0125,497.872,-0.304143,0.0,0.0
2870,717.25,45.1675,47.2071,134.448,112.885,116.035,0.00022718,0.0473896,21.0145,497.852,-0.244795,0.0,0.0
2952,737.75,45.4083,46.9032,131.06,113.121,117.308,0.000432131,0.0473209,21.0144,497.892,-0.323198,0.0,0.0
3034,758.25,45.4739,47.2728,132.952,113.133,116.561,0.000707887,0.0473976,21.0152,497.872,-0.265423,0.0,0.0
3116,778.75,44.8804,46.7944,129.298,112.915,116.937,0.000393698,0.0475226,21.0143,497.882,-0.311229,0.0,0.0
3198,799.25,45.2244,47.3869,132.588,112.688,116.094,0.000326375,0.0476459,21.0135,497.892,-0.26483,0.0,0.0
3280,819.75,45.3598,47.1232,133.529,112.847,116.184,0.00033087,0.0478183,21.0152,497.892,-0.259126,0.0,0.0
3362,840.25,45.4559,46.8098,130.403,113.118,117.256,0.000395763,0.0481236,21.0167,497.882,-0.319478,0.0,0.0
3444,860.75,44.7413,47.6241,134.4,113.335,117.028,0.000173105,0.0480355,21.0155,497.892,-0.28521,0.0,0.0
3526,881.25,45.3839,47.2776,135.032,113.488,117.125,0.000416456,0.0484565,21.014,497.872,-0.280526,0.0,0.0
3608,901.75,45.0628,47.1099,131.421,113.603,117.618,0.000394103,0.0485535,21.0139,497.862,-0.308854,0.0,0.0
3690,922.25,45.1583,47.4737,127.182,113.648,117.557,0.000528545,0.0487295,21.0109,497.862,-0.300729,0.0,0.0
3772,942.75,45.2809,47.4939,129.45,113.553,117.091,0.000628836,0.0488032,21.0139,497.852,-0.272899,0.0,0.0
3854,963.25,45.4825,47.7217,130.53,113.276,118.3,0.000442387,0.048669,21.0146,497.852,-0.385899,0.0,0.0
3936,983.75,46.1422,47.6586,131.152,112.852,116.338,0.000735351,0.0485513,21.013,497.882,-0.270587,0.0,0.0
4018,1004.25,46.0773,47.5299,131.944,112.468,117.25,0.000362375,0.0486901,21.0115,497.912,-0.370286,0.0,0.0
4100,1024.75,45.8812,47.7224,130.177,112.192,116.262,0.000564537,0.0484361,21.0123,497.892,-0.316901,0.0,0.0
4182,1045.25,45.9113,47.4531,133.104,111.966,114.624,0.000282619,0.0483551,21.0122,497.882,-0.208645,0.0,0.0
4264,1065.75,45.7721,47.532,130.526,111.78,116.464,0.000522333,0.0483745,21.0117,497.902,-0.365052,0.0,0.0
4346,1086.25,45.9765,47.2854,132.784,111.683,115.583,0.000388184,0.0483389,21.0122,497.872,-0.305237,0.0,0.0
4428,1106.75,44.9794,47.1763,128.337,111.772,115.909,0.000247995,0.0481856,21.0139,497.862,-0.323226,0.0,0.0
4510,1127.25,45.1132,46.8085,129.932,111.921,116.703,0.000132334,0.0482263,21.0123,497.862,-0.372097,0.0,0.0
4592,1147.75,45.1485,46.8705,133.272,112.178,116.203,0.000361287,0.0483452,21.0123,497.872,-0.313505,0.0,0.0
4674,1168.25,45.1694,47.2029,131.91,112.458,116.165,0.000251998,0.0486555,21.013,497.862,-0.288401,0.0,0.0
4756,1188.75,45.2515,47.0358,130.485,112.738,117.146,0.000379722,0.048608,21.0127,497.872,-0.341111,0.0,0.0
4838,1209.25,45.3039,47.4217,131.679,112.921,116.847,0.000449813,0.0484319,21.0133,497.841,-0.303957,0.0,0.0
4920,1229.75,45.6916,47.226,131.179,113.016,117.825,0.000476542,0.0482558,21.0128,497.841,-0.370569,0.0,0.0
5002,1250.25,45.3689,47.0566,131.607,113.065,117.341,0.000481627,0.0480262,21.0154,497.862,-0.330088,0.0,0.0
5084,1270.75,44.7982,47.4449,129.281,113.085,117.114,6.88676e-05,0.0478212,21.014,497.872,-0.311325,0.0,0.0
5166,1291.25,45.9168,47.795,132.24,113.093,117.38,-2.83356e-05,0.0476782,21.0154,497.872,-0.330841,0.0,0.0
5248,1311.75,45.4609,46.9199,131.423,113.067,118.005,0.000350731,0.0475196,21.0142,497.862,-0.380176,0.0,0.0
5330,1332.25,45.1276,47.1878,139.183,113.056,117.099,0.00030584,0.0475283,21.0146,497.862,-0.312485,0.0,0.0
5412,1352.75,45.7514,47.4179,131.083,113.033,116.707,0.000131155,0.0475574,21.0123,497.852,-0.284463,0.0,0.0
5494,1373.25,45.5898,47.4966,134.222,112.917,117.739,0.000475718,0.0474165,21.015,497.862,-0.371899,0.0,0.0
5576,1393.75,45.4714,47.6172,129.761,112.704,115.991,7.56002e-05,0.0477713,21.0146,497.822,-0.255669,0.0,0.0
5658,1414.25,45.2914,47.3975,136.732,112.41,116.858,0.000421698,0.0479987,21.0125,497.862,-0.345145,0.0,0.0
5740,1434.75,45.5553,47.2532,128.748,112.31,116.439,0.000373012,0.0486524,21.0104,497.831,-0.321042,0.0,0.0
5822,1455.25,45.3574,47.4366,131.439,112.569,115.839,0.000368327,0.0484439,21.013,497.872,-0.254682,0.0,0.0
5904,1475.75,45.36,46.748,128.823,112.87,116.207,0.000192639,0.0486063,21.0143,497.841,-0.25913,0.0,0.0
5986,1496.25,45.3972,47.5728,131.365,113.119,117.134,0.000233687,0.0489472,21.0115,497.852,-0.310155,0.0,0.0
6068,1516.75,45.2262,47.4508,127.943,113.213,118.381,0.000514487,0.0483433,21.0145,497.862,-0.396921,0.0,0.0
6150,1537.25,45.9565,47.9548,127.733,113.177,116.888,0.000332936,0.0482337,21.0138,497.841,-0.286936,0.0,0.0
6232,1557.75,45.6173,47.4766,131.115,113.002,118.011,0.000371509,0.0481366,21.0118,497.862,-0.385699,0.0,0.0
6314,1578.25,45.328,47.5645,129.525,112.726,116.834,0.000234657,0.047979,21.0136,497.852,-0.318321,0.0,0.0
6396,1598.75,45.8899,47.5962,131.016,112.889,116.686,0.000361143,0.0479731,21.014,497.852,-0.294224,0.0,0.0
6478,1619.25,45.4453,47.4058,128.034,113.146,117.603,2.0898e-05,0.0481621,21.0173,497.852,-0.343554,0.0,0.0
6560,1639.75,44.9899,47.503,126.314,113.391,117.747,0.000410522,0.0482547,21.0124,497.872,-0.335272,0.0,0.0
6642,1660.25,45.4281,47.5964,129.1,113.606,118.978,0.000589172,0.0483986,21.0162,497.831,-0.410838,0.0,0.0
6724,1680.75,45.6379,47.3446,136.765,113.714,118.049,0.000480728,0.0485721,21.0133,497.852,-0.332724,0.0,0.0
6806,1701.25,45.8797,47.7196,126.943,113.73,117.865,0.000206012,0.0484795,21.011,497.852,-0.317649,0.0,0.0
6888,1721.75,45.7944,47.2681,128.216,113.685,117.299,0.000598875,0.048804,21.0115,497.852,-0.278269,0.0,0.0
6970,1742.25,45.1893,47.2035,133.75,113.623,118.342,0.000241092,0.0481695,21.0108,497.852,-0.36184,0.0,0.0
7052,1762.75,45.8832,47.6297,128.183,113.512,118.981,0.000341185,0.0477242,21.0141,497.841,-0.418416,0.0,0.0
7134,1783.25,45.5648,47.2671,132.654,113.381,117.224,0.000340715,0.0476973,21.016,497.852,-0.296398,0.0,0.0
7216,1803.75,44.1642,45.6039,130.897,113.264,118.108,0.000513553,0.0478737,21.0153,497.862,-0.372444,0.0,0.0
7298,1824.25,44.7428,46.6158,130.804,113.178,116.44,0.000381844,0.0477779,21.0143,497.862,-0.252737,0.0,0.0
7380,1844.75,44.7952,46.1208,133.375,113.077,118.002,0.000404019,0.0473981,21.015,497.882,-0.379124,0.0,0.0
7462,1865.25,45.1113,46.7288,130.64,112.978,117.218,0.00019295,0.04796,21.0147,497.841,-0.327612,0.0,0.0
7544,1885.75,45.149,46.9623,128.687,112.904,117.202,0.000442522,0.0478347,21.015,497.852,-0.332234,0.0,0.0
7626,1906.25,44.8342,46.7755,128.462,112.757,117.34,0.000705011,0.0477637,21.0137,497.841,-0.35426,0.0,0.0
7685,1921,45.1167,47.2666,130.954,112.652,118.44,,,,497.872,-0.445518,0.0,0.0