Folder: fsri_materials_database/01_Data/Fiberglass_Insulation_R30/Cone

Note: 01_Data/README.md
# Materials and Products Database
## 01_Data

Raw data generated from each apparatus are included here in plain-text format. The data is organized first by material, next by the short name of test apparatus used, and where applicable additional filtering by test settings.

### material.json

Each material directory contains a json file of the same name as the material. This file links the data stored in the repository as well as data and graphs produced by the accompanying scripts (__02_Scripts__) to the respective landing page for the material on the front-end website.

File: R30_Fiberglass_Insulation_Cone_HF25Scalar_220502_R3.csv
LABORATORY,FSRI
TEST IDENT,R30Insulation_HF25_3
OPERATOR,Dow
MATERIAL,R30 Fiberglass Insulation
ORIENTATION,Horizontal
HEAT FLUX,25
SURF AREA,0.01
C FACTOR,0.0417509
SPEC HOLDER DIFF,-566
SPECIMEN MASS,5.12
SCAN TIME,0.25
O2 DELAY TIME,11
CO DELAY TIME,11
CO2 DELAY TIME,8
FLOW FACTOR,1
SCAN COUNT,2885
TIME TO IGN,0
END OF TEST SCAN,2405
END OF TEST TIME,601.25
TEST STATUS,1
PRE TEST CMT,Dimensions: 106 x 105 x 53 mm
POST TEST CMT,No ignition. Test ended after 10 minutes. No mass loss after 10 minutes in replicate R1.

File: R30_Fiberglass_Insulation_Cone_HF25Scan_220502_R1.csv
Names,Time,Stack TC,Smoke TC,Exh Press,Smoke Comp,Smoke Meas,CO Meter,CO2 Meter,O2 Meter,Sample Mass,Ext Coeff,Start Test,Flame Verif
Chan Gain,,500,500,1,1,1,1,1,1,1,1,1.0,1.0
Offset,,0,0,0.134537,0,0,0,0,0,0,0,0.0,0.0
Gain,,1,1,25.011,14.8585,16.6522,1,1,1,1.00087,1.0138,1.0,1.0
Units,sec,C,C,Pa,%,%,%,%,%,g,/m,,
Baseline,,21.6363,22.2037,140.163,111.2,112.254,-4.59976e-05,0.0525232,21.0112,-834.11,-0.0839077,,
84,20.75,20.7778,20.6488,142.934,111.151,112.201,0.000660974,0.0530708,21.0124,-341.266,-0.083598,0.0,0.0
168,41.75,20.5101,21.2581,138.858,111.17,112.436,0.000281898,0.0527245,21.0128,-341.356,-0.100736,0.0,0.0
252,62.75,21.0501,21.7098,135.25,111.166,112.529,0.000244434,0.0517306,21.013,-341.356,-0.108419,0.0,0.0
336,83.75,21.5098,22.3208,140.601,111.147,112.412,0.000230945,0.0511032,21.014,-341.356,-0.100584,0.0,0.0
420,104.75,21.1261,22.139,136.792,111.145,112.474,8.86827e-05,0.0510337,21.015,-341.386,-0.105745,0.0,0.0
504,125.75,21.7492,22.1767,137.941,111.173,112.484,0.000456246,0.0507607,21.0138,-341.386,-0.104263,0.0,0.0
588,146.75,22.0153,22.3502,139.891,111.202,112.626,-0.000185677,0.0505771,21.0142,-341.406,-0.113144,0.0,0.0
672,167.75,21.681,22.2874,137.883,111.194,112.401,9.79548e-05,0.0510185,21.0136,-341.426,-0.096008,0.0,0.0
756,188.75,21.9586,22.6663,138.483,111.187,112.582,0.000158014,0.0509479,21.0145,-341.416,-0.110926,0.0,0.0
840,209.75,22.3269,22.7512,134.361,111.218,112.572,0.000213575,0.0505634,21.0137,-341.426,-0.107618,0.0,0.0
924,230.75,21.7265,22.8511,139.532,111.259,112.427,0.000360409,0.0507218,21.0139,-341.426,-0.0929099,0.0,0.0
1008,251.75,22.0499,22.7092,140.546,111.297,112.829,9.80466e-05,0.0508637,21.0146,-341.436,-0.121569,0.0,0.0
1092,272.75,21.7477,22.8252,142.452,111.28,112.738,0.000114002,0.0510781,21.014,-341.456,-0.115773,0.0,0.0
1176,293.75,22.354,22.4752,139.638,111.263,112.882,0.000259588,0.0505939,21.014,-341.446,-0.128412,0.0,0.0
1260,314.75,22.2277,22.3216,136.687,111.22,112.613,0.000205889,0.0503305,21.0171,-341.446,-0.110687,0.0,0.0
1344,335.75,22.0625,22.9202,142.576,111.138,112.62,3.75178e-05,0.0504543,21.017,-341.466,-0.117854,0.0,0.0
1428,356.75,22.3582,23.0429,136.208,111.142,112.952,-1.40054e-05,0.0502928,21.016,-341.466,-0.143657,0.0,0.0
1512,377.75,22.0523,23.057,139.857,111.17,112.931,1.47531e-05,0.0503416,21.0154,-341.466,-0.139763,0.0,0.0
1596,398.75,21.9992,23.0402,138.8,111.212,112.261,0.000124248,0.0499886,21.017,-341.456,-0.0834492,0.0,0.0
1680,419.75,22.1521,23.1794,138.181,111.245,112.897,0.000391335,0.0502869,21.0154,-341.466,-0.131062,0.0,0.0
1764,440.75,21.8606,22.7079,134.747,111.292,113.049,0.000159554,0.0499773,21.0158,-341.456,-0.139294,0.0,0.0
1848,461.75,22.2025,23.0555,137.994,111.295,112.776,0.000204184,0.0500295,21.0175,-341.446,-0.117543,0.0,0.0
1932,482.75,22.1395,22.8548,140.175,111.333,112.772,1.34259e-05,0.0497149,21.0142,-341.466,-0.11422,0.0,0.0
2016,503.75,21.6778,22.9722,137.09,111.431,113.108,-2.57175e-05,0.0498965,21.0156,-341.476,-0.132809,0.0,0.0
2100,524.75,22.2666,23.2393,137.634,111.595,112.879,0.000104515,0.0500243,21.0137,-341.466,-0.101721,0.0,0.0
2184,545.75,22.2854,22.9082,136.226,111.753,113.54,-0.000164657,0.0498639,21.0133,-341.476,-0.14105,0.0,0.0
2268,566.75,22.0271,22.7364,139.822,111.902,113.928,1.34534e-05,0.0498984,21.0163,-341.486,-0.159582,0.0,0.0
2352,587.75,22.102,23.2293,138.817,112.034,113.798,-5.53781e-05,0.0497954,21.0153,-341.476,-0.138979,0.0,0.0
2436,608.75,22.1971,22.876,139.673,112.173,113.852,-0.000268834,0.0499206,21.0153,-341.476,-0.132105,0.0,0.0
2520,629.75,22.0531,22.9397,140.331,112.294,114.007,9.1794e-05,0.0501333,21.0148,-341.496,-0.134651,0.0,0.0
2604,650.75,22.2922,22.9938,134.734,112.405,114.04,-5.17581e-05,0.050679,21.0141,-341.496,-0.128433,0.0,0.0
2688,671.75,22.147,23.0456,138.946,112.455,114.18,0.000354607,0.0513418,21.0143,-341.496,-0.135304,0.0,0.0
2772,692.75,22.1846,23.324,138.757,112.475,113.869,-0.000124469,0.0509835,21.013,-341.476,-0.109581,0.0,0.0
2856,713.75,22.393,23.1263,141.057,112.438,114.33,-9.13527e-06,0.0509347,21.0138,-341.496,-0.14845,0.0,0.0
2940,734.75,22.1747,22.6672,137.617,112.431,114.365,6.62184e-05,0.0512352,21.0133,-341.496,-0.151711,0.0,0.0
3024,755.75,22.0492,23.2341,142.384,112.48,113.954,-6.27621e-06,0.0507998,21.0136,-341.496,-0.115816,0.0,0.0
3108,776.75,22.3122,22.582,136.01,112.506,114.045,0.000124251,0.0509353,21.0123,-341.506,-0.120793,0.0,0.0
3192,797.75,22.0635,23.0394,140.467,112.555,114.105,9.23773e-05,0.0507933,21.0157,-341.496,-0.121638,0.0,0.0
3276,818.75,22.823,23.0487,138.198,112.568,114.462,2.293e-05,0.0506709,21.0158,-341.496,-0.148395,0.0,0.0
3360,839.75,22.5212,22.7924,140.022,112.551,114.571,0.000205348,0.0503283,21.0157,-341.516,-0.158201,0.0,0.0
3444,860.75,22.1698,23.3319,140.492,112.483,114.095,-0.000128651,0.0504612,21.0152,-341.506,-0.126539,0.0,0.0
3528,881.75,22.4123,22.9957,136.629,112.362,114.216,-0.000102441,0.0506086,21.0136,-341.516,-0.145579,0.0,0.0
3612,902.75,21.9946,22.9916,137.662,112.368,114.09,3.82122e-05,0.0502038,21.014,-341.486,-0.135222,0.0,0.0
3696,923.75,21.9654,23.1215,141.934,112.318,114.028,4.99789e-05,0.0500462,21.016,-341.506,-0.134368,0.0,0.0
3780,944.75,21.8888,22.9799,139.454,112.241,114.274,3.12478e-05,0.0503008,21.018,-341.506,-0.159676,0.0,0.0
3864,965.75,22.2192,22.9813,137.059,112.282,113.583,0.000410173,0.0502125,21.0148,-341.516,-0.102422,0.0,0.0
3948,986.75,22.1711,23.1211,137.316,112.293,113.959,0.000123021,0.0502038,21.0153,-341.516,-0.131031,0.0,0.0
4032,1007.75,22.551,23.3068,135.179,112.303,113.655,-0.000355464,0.0499728,21.0143,-341.516,-0.106379,0.0,0.0
4116,1028.75,22.3255,23.2042,140.028,112.201,114.114,9.38445e-05,0.0500773,21.0143,-341.506,-0.150411,0.0,0.0
4200,1049.75,22.1138,22.9699,139.726,112.128,113.759,0.00014503,0.0501786,21.0153,-341.506,-0.128398,0.0,0.0
4284,1070.75,22.3383,23.1927,142.605,112.033,113.671,-0.000240038,0.0498287,21.0159,-341.506,-0.129078,0.0,0.0
4368,1091.75,21.9854,23.2808,135.15,112.01,114.023,-0.00031919,0.0501996,21.0151,-341.516,-0.158423,0.0,0.0
4452,1112.75,22.49,23.0294,140.017,111.979,113.547,3.22249e-05,0.0500226,21.0161,-341.496,-0.12362,0.0,0.0
4536,1133.75,22.0671,23.2155,143.265,111.958,113.925,0.000129117,0.0498606,21.0138,-341.506,-0.154876,0.0,0.0
4620,1154.75,22.2374,23.2585,137.291,111.957,113.587,0.000108237,0.0498645,21.0135,-341.506,-0.128565,0.0,0.0
4704,1175.75,21.7854,23.0372,140.006,111.91,113.512,-1.65472e-05,0.0498369,21.0129,-341.506,-0.126389,0.0,0.0
4788,1196.75,21.7783,22.9302,141.767,111.901,113.659,-0.000164947,0.0498856,21.014,-341.486,-0.138644,0.0,0.0
4872,1217.75,21.9434,23.0269,140.203,112.205,114.312,0.000251369,0.0499248,21.014,-341.486,-0.165481,0.0,0.0
4956,1238.75,21.7232,22.722,138.868,112.527,114.069,-0.000105402,0.050092,21.0135,-341.526,-0.121042,0.0,0.0
5040,1259.75,22.1708,23.2737,138.988,112.698,114.677,1.98924e-05,0.0500145,21.0143,-341.506,-0.154765,0.0,0.0
5124,1280.75,21.9259,23.1775,138.357,112.774,114.73,5.08931e-05,0.0497307,21.0113,-341.516,-0.152968,0.0,0.0
5208,1301.75,22.4861,23.1951,140.296,112.733,114.295,5.3701e-05,0.049556,21.0114,-341.526,-0.122365,0.0,0.0
5292,1322.75,22.1879,23.0667,139.166,112.798,115.076,-0.000143184,0.0498455,21.0131,-341.536,-0.177819,0.0,0.0
5376,1343.75,22.568,22.8543,141.558,112.843,114.687,0.000450329,0.0498398,21.014,-341.516,-0.14415,0.0,0.0
5460,1364.75,22.1577,23.1683,138.139,112.808,114.437,0.000176046,0.0497881,21.0151,-341.536,-0.127494,0.0,0.0
5544,1385.75,22.5695,22.9361,140.345,112.753,114.171,7.96792e-05,0.0498382,21.0111,-341.526,-0.111139,0.0,0.0
5628,1406.75,22.1495,23.0435,139.05,112.662,114.568,-8.54039e-05,0.0501422,21.0143,-341.506,-0.149191,0.0,0.0
5712,1427.75,22.524,22.9104,140.306,112.512,114.399,-2.28085e-05,0.050003,21.0149,-341.506,-0.147905,0.0,0.0
5796,1448.75,22.6397,23.3321,132.199,112.364,114.33,0.000448272,0.0499273,21.0106,-341.516,-0.154258,0.0,0.0
5880,1469.75,22.6646,22.654,139.233,112.402,114.37,1.9372e-05,0.0497405,21.0142,-341.496,-0.154366,0.0,0.0
5964,1490.75,22.7479,23.157,137.182,112.333,114.272,-0.000137418,0.0497179,21.0112,-341.526,-0.152152,0.0,0.0
6048,1511.75,22.8363,23.2317,133.506,112.427,115.082,0.000289018,0.0497868,21.0121,-341.516,-0.207506,0.0,0.0
6132,1532.75,22.4957,23.2624,139.58,112.638,114.699,2.85217e-05,0.0496989,21.0136,-341.506,-0.161299,0.0,0.0
6216,1553.75,22.8317,22.7605,142.003,112.735,114.622,-0.000221282,0.0497738,21.0124,-341.496,-0.147614,0.0,0.0
6300,1574.75,22.9815,23.5767,139.696,112.913,114.449,-0.000135921,0.0497031,21.012,-341.536,-0.120188,0.0,0.0
6384,1595.75,22.6299,23.2587,140.414,113.071,115.149,-8.05888e-05,0.0497648,21.012,-341.506,-0.161937,0.0,0.0
6468,1616.75,22.8712,23.1636,137.568,113.253,115.147,5.92337e-05,0.0497583,21.0143,-341.516,-0.147491,0.0,0.0
6552,1637.75,22.3619,23.3149,137.897,113.3,114.922,0.000209095,0.0498973,21.0137,-341.506,-0.126424,0.0,0.0
6636,1658.75,22.5702,23.3747,137.27,113.313,115.182,-0.000184593,0.0495813,21.013,-341.516,-0.145465,0.0,0.0
6720,1679.75,22.759,23.1105,142.499,113.303,115.142,-5.90273e-05,0.0497183,21.0167,-341.526,-0.143147,0.0,0.0
6804,1700.75,22.2306,22.8354,142.362,113.295,114.975,0.000154793,0.0497538,21.0126,-341.526,-0.13087,0.0,0.0
6888,1721.75,22.2934,23.1678,139.071,113.289,115.654,-0.000201044,0.0495092,21.0134,-341.556,-0.18373,0.0,0.0
6972,1742.75,22.6127,23.4005,139.115,113.297,114.95,0.000254252,0.0496628,21.0107,-341.526,-0.128836,0.0,0.0
7056,1763.75,23.3339,23.3233,138.934,113.266,115.328,-7.99786e-05,0.0495003,21.0141,-341.516,-0.160424,0.0,0.0
7140,1784.75,22.3448,23.3918,140.347,113.202,115.007,0.000169759,0.0495725,21.0129,-341.546,-0.140645,0.0,0.0
7224,1805.75,22.2303,23.2577,141.844,113.076,115.105,-1.69795e-05,0.0494571,21.0146,-341.516,-0.15817,0.0,0.0
7308,1826.75,22.7695,23.3528,140.286,112.986,114.583,1.84737e-05,0.0493945,21.0157,-341.516,-0.124744,0.0,0.0
7392,1847.75,21.6298,22.2268,138.921,112.906,114.715,-4.71589e-05,0.0493358,21.0108,-341.526,-0.141347,0.0,0.0
7476,1868.75,21.6636,22.3258,138.036,112.795,114.729,0.000161587,0.0493794,21.0126,-341.526,-0.151245,0.0,0.0
7560,1889.75,21.9909,22.2803,137.496,112.698,114.695,0.000233974,0.0492515,21.0133,-341.516,-0.15622,0.0,0.0
7644,1910.75,21.8344,22.3541,139.316,112.833,114.932,0.00024455,0.0494038,21.0131,-341.526,-0.16387,0.0,0.0
7728,1931.75,21.558,22.2657,141.38,112.941,114.828,-2.70068e-05,0.0494185,21.0103,-341.516,-0.147379,0.0,0.0
7798,1949.25,21.4116,22.23,140.603,113.042,115.149,,,,-341.516,-0.16422,0.0,0.0

File: R30_Fiberglass_Insulation_Cone_HF25Scan_220502_R3.csv
Names,Time,Stack TC,Smoke TC,Exh Press,Smoke Comp,Smoke Meas,CO Meter,CO2 Meter,O2 Meter,Sample Mass,Ext Coeff,Start Test,Flame Verif
Chan Gain,,500,500,1,1,1,1,1,1,1,1,1.0,1.0
Offset,,0,0,0.135741,0,0,0,0,0,0,0,0.0,0.0
Gain,,1,1,25.011,14.8585,16.6522,1,1,1,1.00087,1.0138,1.0,1.0
Units,sec,C,C,Pa,%,%,%,%,%,g,/m,,
Baseline,,17.6702,17.863,147.731,112.22,112.571,0.000921216,0.0525884,21.0073,-0.00483753,-0.0277502,,
31,7.5,16.2056,16.7096,141.142,113.106,113.25,0.000714072,0.0610522,20.9981,502.786,-0.0112662,0.0,0.0
62,15.25,16.554,16.6849,147.358,113.248,113.43,0.0010925,0.0583646,21.0033,502.706,-0.0143089,0.0,0.0
93,23,16.4696,16.3569,149.075,113.371,113.833,0.00104038,0.0527818,21.0114,502.656,-0.036199,0.0,0.0
124,30.75,16.6562,16.8023,151.522,113.48,113.926,0.000734529,0.0507544,21.0129,502.606,-0.034933,0.0,0.0
155,38.5,17.3166,17.0031,145.924,113.562,113.855,0.000800885,0.0503094,21.0131,502.586,-0.0228725,0.0,0.0
186,46.25,16.9065,17.0161,149.522,113.629,113.92,0.00109594,0.050045,21.0142,502.556,-0.0226982,0.0,0.0
217,54,17.4646,17.8678,148.325,113.597,114.152,0.000901116,0.0498742,21.0123,502.536,-0.04329,0.0,0.0
248,61.75,17.1926,17.5198,148.495,113.549,114.086,0.000705323,0.0500174,21.0142,502.526,-0.0419404,0.0,0.0
279,69.5,17.5959,17.9565,150.471,113.517,114.196,0.000950464,0.0497711,21.0138,502.506,-0.0530584,0.0,0.0
310,77.25,17.7101,18.1512,145.547,113.495,114.262,0.000857685,0.0496566,21.0126,502.496,-0.0599067,0.0,0.0
341,85,18.1984,17.8775,146.007,113.427,113.997,0.000947266,0.0496355,21.0129,502.506,-0.0445674,0.0,0.0
372,92.75,17.7331,18.2928,149.784,113.326,113.739,0.000791378,0.0497222,21.0137,502.486,-0.0323375,0.0,0.0
403,100.5,17.7772,17.9201,147.405,113.182,113.767,0.000797915,0.0492326,21.0156,502.486,-0.0458493,0.0,0.0
434,108.25,17.7898,18.7569,144.804,113.089,113.662,0.000877384,0.0490166,21.0162,502.486,-0.0450011,0.0,0.0
465,116,18.2384,18.2353,145.047,113.016,113.599,0.000999781,0.0490188,21.0153,502.476,-0.0457763,0.0,0.0
496,123.75,18.5057,18.3719,150.226,112.975,113.587,0.000847734,0.0489905,21.0172,502.466,-0.048033,0.0,0.0
527,131.5,18.423,18.7149,151.886,112.932,113.459,0.000786844,0.0488931,21.0171,502.455,-0.041468,0.0,0.0
558,139.25,17.9774,18.6737,148.349,112.897,113.592,0.000484368,0.0488472,21.0165,502.466,-0.0545686,0.0,0.0
589,147,18.2572,18.7421,147.893,112.852,113.542,0.000395903,0.0492658,21.016,502.455,-0.0541697,0.0,0.0
620,154.75,18.4256,19.0533,147.033,112.789,113.479,0.000666794,0.0490967,21.0157,502.455,-0.0542764,0.0,0.0
651,162.5,18.0599,18.434,149.536,112.728,113.393,0.000724188,0.048501,21.0174,502.455,-0.0523321,0.0,0.0
682,170.25,19.0732,19.02,146.681,112.664,113.235,0.000817501,0.0487025,21.015,502.466,-0.0450133,0.0,0.0
713,178,18.1433,18.8411,145.491,112.631,113.104,0.000903931,0.048719,21.0147,502.445,-0.0372481,0.0,0.0
744,185.75,18.5874,18.8123,144.745,112.768,113.412,0.000905359,0.0481591,21.0147,502.435,-0.0506629,0.0,0.0
775,193.5,19.1945,19.3905,145.291,112.929,113.915,0.000731537,0.0480018,21.0147,502.445,-0.077265,0.0,0.0
806,201.25,18.8163,19.3665,147.804,113.021,113.723,0.00070083,0.048096,21.0169,502.435,-0.0550849,0.0,0.0
837,209,18.4034,18.9552,141.756,113.112,113.635,0.000743804,0.0484709,21.0182,502.435,-0.0410745,0.0,0.0
868,216.75,18.3965,19.1231,147.196,113.152,113.931,0.000423942,0.0484935,21.0166,502.425,-0.0609826,0.0,0.0
899,224.5,18.3174,18.7659,147.181,113.181,113.745,0.000436744,0.0487408,21.0179,502.425,-0.0441333,0.0,0.0
930,232.25,19.3692,19.7551,149.674,113.184,114.058,0.00048237,0.0487652,21.0159,502.435,-0.0684353,0.0,0.0
961,240,18.7725,19.6493,148.617,113.182,113.75,0.000457778,0.0486339,21.0158,502.425,-0.0444945,0.0,0.0
992,247.75,18.5654,19.5486,146.365,113.191,113.641,0.000411734,0.0484648,21.0152,502.415,-0.0353113,0.0,0.0
1023,255.5,19.0831,19.4037,143.782,113.197,113.697,0.000628562,0.0484161,21.0153,502.425,-0.0391896,0.0,0.0
1054,263.25,18.9579,19.9409,147.717,113.191,113.796,0.000631527,0.0484589,21.015,502.415,-0.047361,0.0,0.0
1085,271,19.6394,19.5589,144.427,113.193,114.013,0.000676738,0.0482983,21.015,502.405,-0.0641998,0.0,0.0
1116,278.75,19.0983,19.8123,144.652,113.189,114.014,0.000428638,0.048614,21.0148,502.415,-0.0645998,0.0,0.0
1147,286.5,19.1995,19.1038,146.067,113.198,113.726,0.000533845,0.0489121,21.0156,502.405,-0.0414201,0.0,0.0
1178,294.25,19.2496,19.7008,142.049,113.177,114.049,0.000213828,0.0488363,21.0156,502.395,-0.0682964,0.0,0.0
1209,302,19.0345,19.4919,148.573,113.097,113.503,0.00049177,0.0490654,21.0134,502.405,-0.0318295,0.0,0.0
1240,309.75,18.9208,19.8035,146.753,112.995,113.699,0.000662877,0.0490665,21.0133,502.385,-0.0552518,0.0,0.0
1271,317.5,19.0846,19.9734,146.125,112.836,113.533,0.000623753,0.0487774,21.0142,502.405,-0.0547041,0.0,0.0
1302,325.25,19.2141,20.2273,142.748,112.643,113.275,0.000403676,0.0485767,21.0166,502.405,-0.0497364,0.0,0.0
1333,333,18.508,19.2923,153.428,112.703,113.316,0.000396647,0.0487265,21.0169,502.415,-0.0482392,0.0,0.0
1364,340.75,19.2059,19.3092,143.943,112.779,113.446,0.000686061,0.048946,21.0157,502.415,-0.0524382,0.0,0.0
1395,348.5,18.997,19.8934,144.254,112.866,113.434,0.000816349,0.0487031,21.0153,502.395,-0.0446159,0.0,0.0
1426,356.25,19.4874,19.984,150.688,112.934,113.548,0.00066373,0.0485593,21.0153,502.395,-0.0482216,0.0,0.0
1457,364,19.3979,19.9813,143.482,112.992,113.558,0.000717454,0.0485773,21.0152,502.395,-0.0444444,0.0,0.0
1488,371.75,19.3668,20.1036,147.612,113.11,113.692,0.0006819,0.0483952,21.0168,502.395,-0.0456351,0.0,0.0
1519,379.5,19.0232,19.5307,144.222,113.226,113.773,0.000781752,0.0479826,21.0169,502.375,-0.0428666,0.0,0.0
1550,387.25,18.8277,19.7956,146.959,113.337,113.961,0.000433332,0.04795,21.0162,502.375,-0.0488655,0.0,0.0
1581,395,19.0852,19.9785,151.06,113.405,114.128,0.000558021,0.0479689,21.0159,502.365,-0.0564963,0.0,0.0
1612,402.75,18.9576,20.3172,143.127,113.468,114.15,0.000552273,0.0478376,21.0159,502.385,-0.0532935,0.0,0.0
1643,410.5,19.135,19.7746,144.242,113.505,113.94,0.000128548,0.0479262,21.0186,502.385,-0.0340097,0.0,0.0
1674,418.25,19.1843,20.1536,144.644,113.526,114.218,0.000387075,0.0478518,21.0202,502.365,-0.0540849,0.0,0.0
1705,426,19.4669,19.985,143.977,113.531,114.155,0.000495177,0.0477063,21.0205,502.375,-0.0487866,0.0,0.0
1736,433.75,19.3515,19.8483,141.959,113.548,114.224,0.000586234,0.0477149,21.0196,502.375,-0.05278,0.0,0.0
1767,441.5,19.5763,20.234,141.629,113.514,114.231,0.000476532,0.0476419,21.0191,502.365,-0.055997,0.0,0.0
1798,449.25,19.4782,20.4184,147.163,113.493,113.984,0.000600277,0.0478344,21.0181,502.365,-0.0383878,0.0,0.0
1829,457,19.5255,20.0222,147.062,113.471,114.136,0.000642778,0.0479145,21.0192,502.365,-0.0519722,0.0,0.0
1860,464.75,19.3516,20.2006,144.383,113.414,113.893,0.000387051,0.0477453,21.0179,502.365,-0.037543,0.0,0.0
1891,472.5,19.1731,19.8871,148.179,113.351,113.871,0.00068792,0.0477164,21.0179,502.355,-0.0406655,0.0,0.0
1922,480.25,19.5429,20.3494,148.204,113.27,113.874,0.000845735,0.0478346,21.0192,502.355,-0.0473135,0.0,0.0
1953,488,19.1988,20.1361,144.231,113.174,113.866,0.000811999,0.047799,21.0195,502.365,-0.0541937,0.0,0.0
1984,495.75,19.2383,20.083,143.763,113.085,113.421,0.000715706,0.0481661,21.0186,502.355,-0.0264194,0.0,0.0
2015,503.5,19.4068,20.4428,144.673,113.028,113.498,0.000607631,0.0482567,21.0187,502.365,-0.0369287,0.0,0.0
2046,511.25,19.6662,20.4939,146.301,112.955,113.375,0.000552444,0.0483457,21.0187,502.365,-0.0330329,0.0,0.0
2077,519,19.884,19.6409,144.36,112.912,113.661,0.000472275,0.0482445,21.0179,502.365,-0.0588389,0.0,0.0
2108,526.75,19.9074,20.3478,145.028,112.838,113.409,0.000391714,0.0484973,21.0179,502.355,-0.0448828,0.0,0.0
2139,534.5,19.5793,20.2839,144.987,112.817,113.405,0.000312367,0.0487021,21.0157,502.355,-0.0462441,0.0,0.0
2170,542.25,19.2394,20.0536,146.08,112.791,113.547,0.00031473,0.0485627,21.0156,502.365,-0.0594286,0.0,0.0
2201,550,19.7471,20.0235,145.755,112.785,113.435,0.00073441,0.0487068,21.0172,502.345,-0.0510568,0.0,0.0
2232,557.75,19.111,19.5926,146.129,112.788,113.542,0.000300909,0.0485277,21.0175,502.345,-0.059285,0.0,0.0
2263,565.5,19.3389,20.124,145.141,112.818,113.367,0.00043874,0.0486885,21.0162,502.335,-0.043183,0.0,0.0
2294,573.25,19.6044,20.3182,147.611,112.865,113.084,0.000695165,0.0489234,21.0147,502.335,-0.0171981,0.0,0.0
2325,581,19.8834,20.5591,149.798,112.878,113.656,0.000379501,0.0490743,21.0154,502.335,-0.0611198,0.0,0.0
2356,588.75,19.5953,19.5604,149.605,112.916,113.816,0.000700198,0.0492419,21.0148,502.345,-0.0705962,0.0,0.0
2387,596.5,19.6723,19.8424,146.327,112.923,113.527,0.000678981,0.0489923,21.0134,502.335,-0.0474388,0.0,0.0
2418,604.25,18.9436,19.7501,145.342,112.947,113.334,0.000395309,0.0489695,21.0122,502.315,-0.0304146,0.0,0.0
2449,612,19.4199,18.993,147.111,112.963,113.52,0.000675547,0.049103,21.0138,502.355,-0.0437077,0.0,0.0
2480,619.75,18.9133,19.829,143.306,112.973,113.421,0.000567723,0.0490713,21.0159,502.335,-0.0351964,0.0,0.0
2511,627.5,19.2191,20.3259,144.611,112.998,113.429,0.000731702,0.0488555,21.0178,502.345,-0.0338661,0.0,0.0
2542,635.25,19.3275,19.6358,146.105,113.006,113.406,0.000495423,0.0487085,21.0165,502.355,-0.0313555,0.0,0.0
2573,643,19.5769,20.0355,144.175,112.98,113.602,0.000505376,0.0483348,21.0181,502.345,-0.048794,0.0,0.0
2604,650.75,19.7642,19.7854,146.717,112.957,113.419,0.000266234,0.0483823,21.0169,502.335,-0.0363177,0.0,0.0
2635,658.5,19.6373,20.3098,144.786,112.947,113.38,0.000377997,0.0484769,21.0161,502.325,-0.0340028,0.0,0.0
2666,666.25,19.5617,20.1188,145.17,112.921,113.342,0.000556685,0.0483903,21.0177,502.325,-0.0331196,0.0,0.0
2697,674,19.3333,19.9572,142.819,112.918,113.666,0.00056663,0.0485193,21.0178,502.335,-0.0587002,0.0,0.0
2728,681.75,19.0511,20.0973,146.321,112.89,113.45,0.000721862,0.0488968,21.0158,502.315,-0.0439974,0.0,0.0
2759,689.5,19.3831,20.1558,142.45,112.856,113.351,0.000361166,0.0489272,21.0154,502.325,-0.0388696,0.0,0.0
2790,697.25,19.2975,19.8685,145.673,112.854,113.549,0.000482692,0.048636,21.0149,502.335,-0.0545836,0.0,0.0
2821,705,19.5293,19.9863,148.057,112.83,113.272,0.0004183,0.0486276,21.015,502.325,-0.0348356,0.0,0.0
2852,712.75,19.6127,19.9831,142.835,112.836,113.171,,0.0486538,,502.325,-0.0263163,0.0,0.0
2883,720.5,19.3926,19.9666,140.847,112.767,113.285,,,,502.335,-0.0407662,0.0,0.0
2885,721,19.6823,20.4413,142.927,112.747,113.226,,,,502.335,-0.0376713,0.0,0.0

File: R30_Fiberglass_Insulation_Cone_HF50Scalar_220503_R1.csv
LABORATORY,FSRI
TEST IDENT,R30Insulation_HF50_1
OPERATOR,Dow
MATERIAL,R30 Fiberglass Insulation
ORIENTATION,Horizontal
HEAT FLUX,50
SURF AREA,0.01
C FACTOR,0.0417509
SPEC HOLDER DIFF,-566
SPECIMEN MASS,4.2
SCAN TIME,0.25
O2 DELAY TIME,11
CO DELAY TIME,11
CO2 DELAY TIME,8
FLOW FACTOR,1
SCAN COUNT,8167
TIME TO IGN,0
END OF TEST SCAN,7687
END OF TEST TIME,1921.75
TEST STATUS,1
PRE TEST CMT,Dimensions: 108 x 99 x 51 mm
POST TEST CMT,No ignition. Test ended after 30 minutes.