Folder: fsri_materials_database/01_Data/Fiberglass_Insulation_R30/Cone (part 2)

File: R30_Fiberglass_Insulation_Cone_HF50Scan_220503_R1.csv
Names,Time,Stack TC,Smoke TC,Exh Press,Smoke Comp,Smoke Meas,CO Meter,CO2 Meter,O2 Meter,Sample Mass,Ext Coeff,Start Test,Flame Verif
Chan Gain,,500,500,1,1,1,1,1,1,1,1,1.0,1.0
Offset,,0,0,0.135741,0,0,0,0,0,0,0,0.0,0.0
Gain,,1,1,25.011,14.8585,16.6522,1,1,1,1.00087,1.0138,1.0,1.0
Units,sec,C,C,Pa,%,%,%,%,%,g,/m,,
Baseline,,30.0213,31.0712,140.506,112.623,114.142,0.000827177,0.0498059,21.0127,-0.668329,-0.119138,,
87,21.5,29.683,30.3315,141.278,112.848,114.462,0.0019957,0.0533791,21.0102,499.403,-0.126284,0.0,0.0
174,43.25,30.1445,31.3052,143.403,112.953,115.412,0.00154788,0.0518427,21.0124,499.373,-0.191561,0.0,0.0
261,65,31.2388,32.0066,139.337,113.119,115.062,0.00111239,0.050997,21.0117,499.323,-0.151448,0.0,0.0
348,86.75,31.6936,33.0406,138.75,113.07,114.776,0.000956999,0.0500502,21.0145,499.313,-0.133154,0.0,0.0
435,108.5,31.7267,33.5989,138.966,112.602,115.311,0.000705378,0.0499817,21.0147,499.283,-0.211477,0.0,0.0
522,130.25,32.3792,33.568,138.127,112.711,115.46,0.000640618,0.0493541,21.0141,499.273,-0.214287,0.0,0.0
609,152,32.4203,33.8506,137.583,112.904,114.647,0.000608808,0.0490565,21.0168,499.243,-0.136211,0.0,0.0
696,173.75,32.4108,33.7253,139.449,113.088,114.888,0.00069436,0.049487,21.0148,499.253,-0.140462,0.0,0.0
783,195.5,32.9218,33.8582,137.539,113.223,115.147,0.000663868,0.0487597,21.0156,499.213,-0.149842,0.0,0.0
870,217.25,33.1188,33.8435,141.342,113.322,115.3,0.000587589,0.0483782,21.0169,499.193,-0.153925,0.0,0.0
957,239,32.947,34.2716,138.595,113.437,115.127,0.000566067,0.0484963,21.0174,499.183,-0.131516,0.0,0.0
1044,260.75,33.0719,34.0187,143.398,113.459,115.618,0.000733228,0.0484504,21.0173,499.213,-0.167688,0.0,0.0
1131,282.5,32.993,34.5139,137.025,113.474,115.527,0.000437977,0.0479569,21.0151,499.153,-0.159406,0.0,0.0
1218,304.25,33.2013,34.3729,137.707,113.482,115.642,0.00028872,0.0477726,21.0193,499.183,-0.167639,0.0,0.0
1305,326,33.8122,34.6655,139.616,113.446,114.955,0.000608338,0.0476911,21.0172,499.133,-0.117491,0.0,0.0
1392,347.75,32.9825,33.8662,142.906,113.377,115.314,0.000416744,0.0478344,21.0172,499.153,-0.150608,0.0,0.0
1479,369.5,33.7592,35.0051,140.478,113.252,115.908,0.000504284,0.0481076,21.0177,499.143,-0.206162,0.0,0.0
1566,391.25,33.6235,34.8414,139.049,112.976,115.031,0.000518072,0.0478877,21.0155,499.143,-0.160284,0.0,0.0
1653,413,33.7584,34.9805,142.287,112.401,114.46,0.00052898,0.0479747,21.016,499.123,-0.16139,0.0,0.0
1740,434.75,33.7183,35.2134,141.272,111.798,113.605,0.000629693,0.0480454,21.0175,499.123,-0.142612,0.0,0.0
1827,456.5,33.9284,35.2883,139.856,111.392,113.347,0.000460834,0.0480366,21.0186,499.093,-0.154721,0.0,0.0
1914,478.25,33.9378,34.653,137.216,111.255,113.657,-2.96316e-05,0.04812,21.0171,499.083,-0.189985,0.0,0.0
2001,500,33.5166,35.5302,138.415,111.338,112.929,0.000620066,0.0479902,21.0185,499.073,-0.126156,0.0,0.0
2088,521.75,33.5779,35.1899,140.54,111.726,113.502,0.000127128,0.0480257,21.0161,499.073,-0.14027,0.0,0.0
2175,543.5,34.3021,35.8369,138.499,112.234,114.433,0.000580929,0.0480076,21.017,499.073,-0.172548,0.0,0.0
2262,565.25,33.8347,35.6503,139.61,112.566,114.298,0.00087445,0.0481325,21.0181,499.063,-0.135815,0.0,0.0
2349,587,34.266,35.8908,135.234,112.712,114.931,0.000409999,0.0481085,21.0182,499.053,-0.173414,0.0,0.0
2436,608.75,34.6496,35.6658,139.639,112.731,114.373,0.00038159,0.0482267,21.0192,499.053,-0.128596,0.0,0.0
2523,630.5,34.7286,35.7132,134.087,112.694,115.507,0.000397188,0.0487975,21.0174,499.063,-0.219325,0.0,0.0
2610,652.25,34.9334,36.1336,135.418,112.635,114.933,0.000487434,0.0490558,21.0144,499.053,-0.179581,0.0,0.0
2697,674,34.2175,36.0489,139.656,112.496,113.882,0.00023808,0.0489035,21.0164,499.043,-0.108928,0.0,0.0
2784,695.75,34.7094,36.0402,140.546,112.312,114.061,0.000243082,0.0489137,21.0174,499.053,-0.137411,0.0,0.0
2871,717.5,34.4951,35.5697,138.227,112.142,114.009,0.000470388,0.0489924,21.016,499.053,-0.146847,0.0,0.0
2958,739.25,34.59,35.807,138.572,112.827,115.241,0.000737699,0.0492904,21.0145,499.053,-0.188286,0.0,0.0
3045,761,34.5496,35.8534,140.477,113.113,114.878,0.000449348,0.0491263,21.016,499.033,-0.137753,0.0,0.0
3132,782.75,35.3057,35.9275,139.378,112.946,115.212,0.000598178,0.048887,21.0173,499.053,-0.176616,0.0,0.0
3219,804.5,34.3619,35.3736,140.53,112.532,114.782,0.000452219,0.0487369,21.0156,499.053,-0.1761,0.0,0.0
3306,826.25,34.735,36.0804,135.572,112.784,115.113,0.000685428,0.0489745,21.0159,499.033,-0.181754,0.0,0.0
3393,848,34.9336,35.9511,135.936,113.139,115.213,0.000318962,0.0492959,21.0149,499.043,-0.161572,0.0,0.0
3480,869.75,33.6613,35.631,144.665,113.407,114.988,0.000272472,0.0499011,21.0162,499.023,-0.12314,0.0,0.0
3567,891.5,34.8192,35.5368,138.874,113.451,115.162,0.000383963,0.0497902,21.0144,499.023,-0.133123,0.0,0.0
3654,913.25,34.9981,35.8821,138.276,113.312,115.001,0.000458636,0.04955,21.0142,499.023,-0.131596,0.0,0.0
3741,935,34.4089,36.1198,139.584,113.091,114.648,0.000398038,0.0491251,21.0161,499.023,-0.121551,0.0,0.0
3828,956.75,34.1913,35.9104,142.078,112.778,114.258,-1.17308e-05,0.0491875,21.0164,499.013,-0.115977,0.0,0.0
3915,978.5,34.6186,35.8025,139.572,112.378,113.738,0.000358146,0.0489725,21.0153,499.033,-0.106939,0.0,0.0
4002,1000.25,34.7495,35.3069,138.938,111.866,113.804,0.000198272,0.0489198,21.014,499.013,-0.15278,0.0,0.0
4089,1022,34.6376,36.6031,142.063,111.439,113.357,2.1043e-06,0.0486352,21.0146,499.013,-0.151751,0.0,0.0
4176,1043.75,34.3966,35.9883,139.56,111.279,113.191,0.000320751,0.0482001,21.0159,499.053,-0.151487,0.0,0.0
4263,1065.5,34.5725,35.8941,139.095,111.345,112.951,0.000307807,0.0481406,21.0167,499.043,-0.127369,0.0,0.0
4350,1087.25,34.9126,36.0559,136.185,111.524,112.95,0.000507756,0.0480002,21.0141,499.013,-0.112996,0.0,0.0
4437,1109,34.3344,36.0006,142.905,111.63,112.946,0.000973219,0.0481873,21.0174,499.023,-0.104218,0.0,0.0
4524,1130.75,34.7776,36.0018,138.181,111.687,112.915,8.62077e-05,0.0480127,21.0176,499.023,-0.0972667,0.0,0.0
4611,1152.5,34.8594,35.7584,136.792,111.836,113.795,0.000487394,0.0478917,21.0201,498.982,-0.154408,0.0,0.0
4698,1174.25,34.7274,36.013,138.835,112.093,113.648,0.000352938,0.0480774,21.0186,499.013,-0.122543,0.0,0.0
4785,1196,34.712,35.9093,138.96,112.261,113.912,0.000611319,0.0479718,21.0163,499.013,-0.129821,0.0,0.0
4872,1217.75,35.1306,36.2152,140.118,112.544,114.296,0.000421259,0.0478333,21.0153,499.033,-0.137413,0.0,0.0
4959,1239.5,34.178,36.258,141.917,112.705,114.79,0.000306812,0.0476478,21.0196,499.003,-0.162977,0.0,0.0
5046,1261.25,34.7809,35.9274,138.856,112.719,114.109,0.000466366,0.0481064,21.0177,499.013,-0.108994,0.0,0.0
5133,1283,35.3556,35.9505,137.471,112.702,114.478,0.000187099,0.0480528,21.0175,499.003,-0.13906,0.0,0.0
5220,1304.75,35.0681,36.7309,136.28,112.704,114.422,0.000356572,0.0479037,21.0189,498.992,-0.134499,0.0,0.0
5307,1326.5,34.6326,36.1612,140.308,112.586,114.211,0.000326598,0.0481044,21.019,499.003,-0.127437,0.0,0.0
5394,1348.25,35.3369,36.6832,140.105,112.46,113.894,0.000353261,0.0477666,21.0176,499.003,-0.112709,0.0,0.0
5481,1370,35.1375,35.9078,135.07,112.338,113.573,0.000339489,0.0477633,21.018,498.982,-0.097286,0.0,0.0
5568,1391.75,35.2474,36.7422,139.847,112.233,113.847,0.000419914,0.0476619,21.0173,498.982,-0.126929,0.0,0.0
5655,1413.5,35.2503,36.6225,141.457,112.14,113.967,0.000526002,0.04806,21.0159,498.992,-0.143736,0.0,0.0
5742,1435.25,34.9944,36.2574,136.379,112.056,113.965,0.000670053,0.0479886,21.0183,498.992,-0.150193,0.0,0.0
5829,1457,35.1564,36.7321,136.693,112.417,113.77,0.000562659,0.0481202,21.0171,498.992,-0.106357,0.0,0.0
5916,1478.75,35.1186,36.8514,139.083,112.836,114.789,0.000273721,0.0479752,21.0226,498.992,-0.15264,0.0,0.0
6003,1500.5,35.1923,36.4313,138.073,113.035,114.872,0.000375245,0.0478986,21.0202,498.972,-0.143344,0.0,0.0
6090,1522.25,35.0065,36.3999,137.851,113.028,115.338,0.000357565,0.0481128,21.0208,498.982,-0.179879,0.0,0.0
6177,1544,34.9653,36.6192,139.605,112.826,114.651,0.000217431,0.04771,21.0184,498.972,-0.142671,0.0,0.0
6264,1565.75,35.4208,36.6342,138.879,112.508,114.45,0.000638743,0.0477298,21.0209,498.972,-0.152217,0.0,0.0
6351,1587.5,35.062,35.9175,139.051,112.764,114.673,0.000259176,0.0479231,21.0204,498.962,-0.149267,0.0,0.0
6438,1609.25,35.4109,36.9416,138.657,112.993,114.772,0.000393776,0.0479827,21.0184,498.992,-0.138944,0.0,0.0
6525,1631,35.5787,36.5958,139.212,113.199,114.914,0.000152398,0.047714,21.0185,499.013,-0.1337,0.0,0.0
6612,1652.75,35.0157,36.4913,134.804,113.435,115,0.000381003,0.047752,21.019,498.952,-0.121839,0.0,0.0
6699,1674.5,35.9974,36.2969,143.126,113.439,115.464,0.00047966,0.0476191,21.0189,498.972,-0.157362,0.0,0.0
6786,1696.25,35.6561,36.8512,133.588,113.321,115.22,0.000474953,0.047718,21.0199,498.972,-0.147766,0.0,0.0
6873,1718,35.4173,36.6022,139.062,113.182,114.981,4.89983e-05,0.0479572,21.0191,498.962,-0.140208,0.0,0.0
6960,1739.75,35.1965,36.5208,140.124,112.937,114.175,0.000283752,0.0478049,21.0191,498.982,-0.0969864,0.0,0.0
7047,1761.5,34.7652,36.4718,136.032,112.658,114.133,0.000495538,0.0478744,21.0182,498.982,-0.115687,0.0,0.0
7134,1783.25,35.1856,36.3168,141.853,112.364,114.552,0.000348146,0.0479332,21.0198,498.962,-0.17144,0.0,0.0
7221,1805,35.0818,36.5051,136.717,112.138,113.627,0.0005312,0.0479239,21.0162,498.962,-0.117308,0.0,0.0
7308,1826.75,35.64,36.6031,143.764,111.978,113.717,0.000245087,0.0481308,21.0171,498.962,-0.137087,0.0,0.0
7395,1848.5,35.417,36.6964,142.525,111.826,114.015,0.000240294,0.0481371,21.0165,498.952,-0.172418,0.0,0.0
7482,1870.25,35.4703,36.9262,138.486,111.677,113.625,0.000440769,0.0481034,21.0179,498.962,-0.1538,0.0,0.0
7569,1892,35.4326,36.8197,138.635,111.497,112.893,0.000407483,0.0479391,21.0189,498.942,-0.110686,0.0,0.0
7656,1913.75,35.3717,36.7724,136.846,111.366,112.972,0.00060051,0.0479321,21.0182,498.962,-0.127272,0.0,0.0
7743,1935.5,33.7649,35.0472,134.106,111.288,112.506,0.000376485,0.0478708,21.0152,498.932,-0.0967828,0.0,0.0
7830,1957.25,34.0466,34.5876,140.762,111.303,112.602,0.000274597,0.0477556,21.0178,498.952,-0.103175,0.0,0.0
7917,1979,33.622,34.9374,138.989,111.43,113.173,0.000244669,0.0476227,21.0185,498.972,-0.13807,0.0,0.0
8004,2000.75,34.2809,35.6273,142.283,111.526,113.074,0.000708181,0.0476669,21.0184,498.962,-0.122576,0.0,0.0
8091,2022.5,34.1907,35.2302,134.184,111.6,113.519,0.000503996,0.0475016,21.0188,498.952,-0.151627,0.0,0.0
8167,2041.5,33.6571,35.1284,138.802,111.718,113.614,,,,498.942,-0.149678,0.0,0.0

File: R30_Fiberglass_Insulation_Cone_HF50Scan_220503_R2.csv
Names,Time,Stack TC,Smoke TC,Exh Press,Smoke Comp,Smoke Meas,CO Meter,CO2 Meter,O2 Meter,Sample Mass,Ext Coeff,Start Test,Flame Verif
Chan Gain,,500,500,1,1,1,1,1,1,1,1,1.0,1.0
Offset,,0,0,0.135741,0,0,0,0,0,0,0,0.0,0.0
Gain,,1,1,25.011,14.8585,16.6522,1,1,1,1.00087,1.0138,1.0,1.0
Units,sec,C,C,Pa,%,%,%,%,%,g,/m,,
Baseline,,33.9619,35.0184,139.653,112.844,114.422,0.000672378,0.0496805,21.0105,-1.09278,-0.123501,,
31,7.5,31.6535,33.0528,135.313,113.043,114.948,0.00158962,0.0568753,20.9998,493.508,-0.148637,0.0,0.0
62,15.25,32.4979,33.3677,141.882,113.035,115.43,0.00202564,0.0557763,21.0023,493.378,-0.186472,0.0,0.0
93,23,32.576,33.4487,137.801,113.033,115.027,0.00196563,0.0549754,21.0034,493.338,-0.155549,0.0,0.0
124,30.75,33.0788,34.4492,141.41,113.037,115.003,0.00163216,0.0545004,21.0051,493.318,-0.153345,0.0,0.0
155,38.5,33.4424,34.826,139.15,113.029,115.104,0.00160609,0.0538487,21.0041,493.288,-0.161804,0.0,0.0
186,46.25,33.9783,35.0433,137.738,113.026,115.144,0.00186045,0.0534118,21.006,493.268,-0.16508,0.0,0.0
217,54,33.9618,35.0089,138.035,113.006,114.803,0.00147289,0.0530227,21.0073,493.298,-0.140311,0.0,0.0
248,61.75,34.0608,35.2518,139.274,112.975,114.963,0.0011799,0.0529498,21.0064,493.278,-0.155126,0.0,0.0
279,69.5,34.7577,35.5838,141.568,112.949,114.68,0.00139947,0.0527156,21.0057,493.278,-0.135237,0.0,0.0
310,77.25,34.7463,36.1223,136.532,112.93,115.109,0.00110388,0.0523118,21.0067,493.268,-0.169935,0.0,0.0
341,85,34.9747,35.922,139.498,112.883,114.521,0.00141989,0.0522696,21.01,493.248,-0.128108,0.0,0.0
372,92.75,34.7956,35.809,142.416,112.863,115.287,0.00103632,0.0521761,21.0083,493.238,-0.189031,0.0,0.0
403,100.5,34.9534,35.4571,138.674,112.851,114.778,0.000866946,0.0517768,21.0093,493.217,-0.150555,0.0,0.0
434,108.25,35.1004,35.7809,137.038,112.81,114.802,0.000904971,0.0512675,21.0109,493.227,-0.155661,0.0,0.0
465,116,35.2394,36.3347,139.021,112.777,115.01,0.000946387,0.0507279,21.011,493.227,-0.174357,0.0,0.0
496,123.75,35.0379,36.1949,140.056,112.76,114.906,0.00108095,0.0501861,21.0115,493.217,-0.167696,0.0,0.0
527,131.5,35.1168,36.9775,136.996,112.764,115.028,0.000776366,0.0498923,21.0125,493.227,-0.176769,0.0,0.0
558,139.25,35.5798,36.0398,139.499,112.73,114.965,0.000753173,0.0501066,21.0125,493.207,-0.174581,0.0,0.0
589,147,35.1031,36.4264,139.461,112.725,114.842,0.00080661,0.0497931,21.0125,493.207,-0.165493,0.0,0.0
620,154.75,35.1405,36.9219,142.03,112.689,114.772,0.000643423,0.0498304,21.0104,493.207,-0.162812,0.0,0.0
651,162.5,35.1472,36.2966,136.984,112.603,115.422,0.00046218,0.0496371,21.0102,493.207,-0.219909,0.0,0.0
682,170.25,34.9403,36.6906,136.853,112.577,114.307,0.000860984,0.0494801,21.0096,493.187,-0.135624,0.0,0.0
713,178,35.7318,37.041,139.605,112.543,114.527,0.000535799,0.0494604,21.0114,493.197,-0.155418,0.0,0.0
744,185.75,35.0324,36.9323,135.18,112.555,114.151,0.000511191,0.0492144,21.0117,493.187,-0.125161,0.0,0.0
775,193.5,35.3826,36.8703,136.601,112.58,114.439,0.000533255,0.048986,21.0145,493.187,-0.145611,0.0,0.0
806,201.25,35.0738,37.2821,142.714,112.574,114.381,0.000708269,0.0490277,21.0145,493.157,-0.141609,0.0,0.0
837,209,35.5003,36.8696,136.803,112.564,114.499,0.000589518,0.0492635,21.0145,493.157,-0.151599,0.0,0.0
868,216.75,35.5318,37.0912,137.698,112.538,114.625,0.000542045,0.0489819,21.015,493.157,-0.163385,0.0,0.0
899,224.5,35.6972,36.6171,136.073,112.522,114.935,0.000198044,0.0486316,21.0161,493.167,-0.188657,0.0,0.0
930,232.25,35.5121,36.3692,139.778,112.539,114.926,0.000560743,0.0485677,21.0161,493.147,-0.186587,0.0,0.0
961,240,35.4245,36.7235,133.601,112.561,114.568,0.00037972,0.048608,21.0143,493.127,-0.15718,0.0,0.0
992,247.75,35.4585,36.8728,137.166,112.574,115.474,0.000862865,0.0483385,21.0145,493.127,-0.226158,0.0,0.0
1023,255.5,35.7867,37.1257,137.982,112.569,115.067,0.00069056,0.0485271,21.0154,493.157,-0.195148,0.0,0.0
1054,263.25,35.7771,36.619,138.039,112.498,114.602,0.000546695,0.0485873,21.0148,493.137,-0.164765,0.0,0.0
1085,271,35.9059,36.61,135.633,112.471,114.654,0.000700042,0.0486185,21.0139,493.127,-0.170937,0.0,0.0
1116,278.75,36.0975,37.0874,138.259,112.488,114.409,0.000704316,0.0485606,21.0139,493.127,-0.150555,0.0,0.0
1147,286.5,35.3846,36.8394,142.568,112.499,114.481,0.000441893,0.0484707,21.0138,493.117,-0.155306,0.0,0.0
1178,294.25,35.8787,37.2086,137.464,112.52,114.608,0.000632891,0.0483303,21.0138,493.127,-0.163517,0.0,0.0
1209,302,35.3075,36.8448,134.812,112.525,115.093,0.000596864,0.0483379,21.0138,493.127,-0.200626,0.0,0.0
1240,309.75,35.7661,37.3567,139.868,112.56,114.495,0.00093035,0.0481235,21.0146,493.117,-0.15157,0.0,0.0
1271,317.5,35.8322,36.8643,136.837,112.613,114.338,0.00106777,0.0484688,21.0151,493.117,-0.135174,0.0,0.0
1302,325.25,35.3316,36.7477,137.161,112.676,115.178,0.000417853,0.0484658,21.0151,493.117,-0.195331,0.0,0.0
1333,333,36.0202,37.0911,137.324,112.717,115.093,0.000667375,0.0483075,21.0147,493.107,-0.185481,0.0,0.0
1364,340.75,35.8182,37.0091,139.143,112.769,114.727,0.000355499,0.0483921,21.0145,493.107,-0.153125,0.0,0.0
1395,348.5,35.6899,36.7387,137.593,112.856,115.358,0.000457834,0.0484236,21.0145,493.087,-0.195014,0.0,0.0
1426,356.25,35.9025,37.023,139.198,112.945,115.203,0.000325529,0.0484717,21.0141,493.107,-0.176017,0.0,0.0
1457,364,35.733,37.2173,137.302,113.004,114.826,0.000346237,0.0486964,21.0138,493.087,-0.142264,0.0,0.0
1488,371.75,35.6071,37.3656,141.025,113.074,115.129,0.000485499,0.0486655,21.0138,493.087,-0.160157,0.0,0.0
1519,379.5,35.6877,36.9506,137.708,113.129,114.948,0.000718367,0.0486397,21.0162,493.087,-0.141897,0.0,0.0
1550,387.25,35.6733,37.2207,139.616,113.234,115.157,0.000442499,0.0485117,21.0154,493.077,-0.149736,0.0,0.0
1581,395,35.9894,37.4406,137.853,113.283,115.234,0.000758364,0.0485826,21.0173,493.097,-0.151889,0.0,0.0
1612,402.75,36.1266,37.377,140.102,113.369,115.273,0.00068168,0.0485509,21.0159,493.087,-0.148074,0.0,0.0
1643,410.5,35.602,37.0132,140.477,113.413,115.674,0.000584917,0.048451,21.0151,493.077,-0.175542,0.0,0.0
1674,418.25,35.6469,37.4249,140.775,113.456,115.41,0.000640921,0.0482666,21.0141,493.097,-0.151865,0.0,0.0
1705,426,36.149,37.1735,137.962,113.45,116.295,0.000822713,0.0481874,21.0141,493.067,-0.220203,0.0,0.0
1736,433.75,36.0594,37.494,139.161,113.434,115.906,0.000459773,0.0483501,21.0117,493.097,-0.191779,0.0,0.0
1767,441.5,35.9852,36.7986,145.261,113.421,115.753,0.000510596,0.0485007,21.0128,493.077,-0.180991,0.0,0.0
1798,449.25,35.8856,37.6556,136.314,113.418,115.157,0.000412545,0.0484423,21.0159,493.097,-0.135363,0.0,0.0
1829,457,36.103,37.6843,138.908,113.415,115.369,0.000336831,0.0482752,21.0167,493.097,-0.151927,0.0,0.0
1860,464.75,35.9946,37.1494,137.294,113.401,115.341,0.000643167,0.0486421,21.0161,493.077,-0.150835,0.0,0.0
1891,472.5,35.996,36.6971,142.939,113.343,115.467,0.000518755,0.0486982,21.0158,493.077,-0.16514,0.0,0.0
1922,480.25,35.8175,37.0114,136.57,113.293,116.36,0.00064471,0.0485115,21.015,493.067,-0.237593,0.0,0.0
1953,488,36.196,36.9284,140.972,113.241,115.166,0.00052761,0.0485159,21.0172,493.057,-0.149911,0.0,0.0
1984,495.75,36.0962,37.1595,137.879,113.205,115.491,0.000227909,0.0484966,21.0174,493.047,-0.177765,0.0,0.0
2015,503.5,35.6677,37.7269,138.553,113.15,115.016,0.00029696,0.0486668,21.0174,493.077,-0.145449,0.0,0.0
2046,511.25,35.6422,37.1478,138.202,113.072,115.242,0.000530653,0.0484971,21.0166,493.077,-0.169049,0.0,0.0
2077,519,35.695,37.3936,138.318,112.982,115.432,0.000326045,0.0485236,21.0152,493.067,-0.190765,0.0,0.0
2108,526.75,36.3218,37.2443,138.066,112.878,114.899,0.000668829,0.048767,21.0151,493.067,-0.157816,0.0,0.0
2139,534.5,36.3185,37.1376,137.521,112.766,114.967,0.000533511,0.0486129,21.0151,493.047,-0.171913,0.0,0.0
2170,542.25,36.031,37.6064,136.495,112.669,114.602,0.000594262,0.0486437,21.0145,493.067,-0.151337,0.0,0.0
2201,550,36.381,37.3797,135.27,112.605,114.717,0.000501806,0.0488074,21.0151,493.057,-0.165256,0.0,0.0
2232,557.75,36.1764,37.7606,139.808,112.527,114.521,0.000753908,0.0487976,21.0151,493.067,-0.156159,0.0,0.0
2263,565.5,35.8814,37.1695,137.845,112.41,114.454,0.000431514,0.0486397,21.0178,493.057,-0.160313,0.0,0.0
2294,573.25,36.1392,37.472,133.592,112.28,114.567,0.000705078,0.0486567,21.0159,493.057,-0.179265,0.0,0.0
2325,581,36.3863,37.4016,136.588,112.154,113.679,0.000770573,0.0486866,21.0158,493.047,-0.120108,0.0,0.0
2356,588.75,36.6718,37.3411,139.989,112.052,114.074,0.00061714,0.0486399,21.0135,493.037,-0.159002,0.0,0.0
2387,596.5,36.3932,37.2677,138.663,111.958,113.966,0.000432048,0.0487081,21.0128,493.037,-0.158088,0.0,0.0
2418,604.25,34.699,35.819,138.146,111.84,113.564,0.000447717,0.0487544,21.0117,493.057,-0.135996,0.0,0.0
2449,612,34.3168,35.7546,137.45,111.701,113.696,0.000194015,0.0488697,21.0148,493.037,-0.157416,0.0,0.0
2480,619.75,34.5138,36.1248,139.481,111.607,113.674,0.000287721,0.0487402,21.0154,493.047,-0.163215,0.0,0.0
2511,627.5,34.6043,35.877,138.267,111.516,113.955,0.000404152,0.0488175,21.0154,493.057,-0.192406,0.0,0.0
2542,635.25,34.1057,35.7412,139.279,111.452,113.375,0.000668294,0.0489082,21.0149,493.057,-0.152134,0.0,0.0
2573,643,34.3282,35.8182,138.594,111.407,113.446,0.000527129,0.0491691,21.0128,493.037,-0.161298,0.0,0.0
2604,650.75,34.345,35.8769,137.164,111.374,113.457,2.10522e-05,0.0492484,21.0125,493.057,-0.164814,0.0,0.0
2635,658.5,34.6277,35.7448,137.38,111.353,112.923,0.000508293,0.0495596,21.012,493.057,-0.124516,0.0,0.0
2666,666.25,34.8891,35.6019,137.608,111.345,113.049,0.000784247,0.0494361,21.0118,493.057,-0.135016,0.0,0.0
2697,674,33.9073,35.5643,140.089,111.349,114.025,0.000386396,0.0494605,21.0105,493.047,-0.211191,0.0,0.0
2728,681.75,34.573,35.5704,137.884,111.377,113.504,0.000183484,0.0495918,21.0118,493.047,-0.168228,0.0,0.0
2759,689.5,34.2188,35.6597,135.746,111.407,113.358,0.000364,0.0496758,21.0118,493.027,-0.154404,0.0,0.0
2790,697.25,34.5416,35.6603,138.18,111.464,113.551,0.000338144,0.0493342,21.0118,493.027,-0.164941,0.0,0.0
2821,705,34.2162,36.1136,138.098,111.532,113.308,0.000455019,0.0496444,21.0114,493.027,-0.140472,0.0,0.0
2852,712.75,33.9441,35.1712,136.958,111.635,113.616,,0.049548,,493.027,-0.156446,0.0,0.0
2883,720.5,34.5269,35.4764,135.771,111.668,113.324,,,,493.007,-0.130908,0.0,0.0
2887,721.5,34.3587,36.0133,134.051,111.677,113.526,,,,493.017,-0.14604,0.0,0.0