Folder: fsri_materials_database/01_Data/MDF/Cone

Note: 01_Data/README.md
# Materials and Products Database
## 01_Data

Raw data generated from each apparatus are included here in plain-text format. The data is organized first by material, next by the short name of test apparatus used, and where applicable additional filtering by test settings.

### material.json

Each material directory contains a json file of the same name as the material. This file links the data stored in the repository as well as data and graphs produced by the accompanying scripts (__02_Scripts__) to the respective landing page for the material on the front-end website.

File: MDF_Cone_HF25Scalar_210323_R1.csv
LABORATORY,FSRI
TEST IDENT,MDF-HF25-1
OPERATOR,Dow
MATERIAL,3/4 inch MDF
ORIENTATION,Horizontal
HEAT FLUX,25
SURF AREA,0.01
C FACTOR,0.0386052
SPEC HOLDER DIFF,-86.9
SPECIMEN MASS,141.7
SCAN TIME,0.25
O2 DELAY TIME,11
CO DELAY TIME,11
CO2 DELAY TIME,8
FLOW FACTOR,1
SCAN COUNT,6410
TIME TO IGN,136.75
END OF TEST SCAN,5930
END OF TEST TIME,1482.5
TEST STATUS,1
PRE TEST CMT,"Nominal thickness: 3/4 inches"

File: MDF_Cone_HF25Scan_210324_R2.csv
Names,Time,Stack TC,Smoke TC,Exh Press,Smoke Comp,Smoke Meas,CO Meter,CO2 Meter,O2 Meter,Sample Mass,Ext Coeff,Start Test,Flame Verif
Chan Gain,,500,500,1,1,1,1,1,1,1,1,1,1
Offset,,0,0,0.194005,0,0,0,0,0,0,0,0,0
Gain,,1,1,25.011,13.5067,16.616,1,1,1,1.00091,1.04608,1,1
Units,sec,C,C,Pa,%,%,%,%,%,g,/m,,
Baseline,,17.904,19.2563,169.927,99.2989,98.8393,5.70218E-06,0.0523285,20.944,-0.190089,0.042572,,
65,16,16.357,17.9438,169.842,99.7252,99.2374,0.000226326,0.0594565,20.9384,621.276,0.0449901,0,0
130,32.25,15.0261,16.7851,166.171,100.371,99.8358,3.49118E-05,0.0533795,20.9434,621.115,0.04903204,0,0
195,48.5,15.4114,17.0604,169.413,100.434,99.7856,-0.000188579,0.0519335,20.9454,620.945,0.0594486,0,0
260,64.75,15.9101,17.0199,172.595,100.069,99.3353,-0.000192463,0.0524024,20.9442,620.795,0.0675222,0,0
325,81,16.1807,17.3055,170.818,100.545,99.6441,-0.000415393,0.0525102,20.947,620.695,0.0825545,0,0
390,97.25,16.1003,18.0907,172.502,100.698,99.5062,-6.80477E-06,0.0527738,20.9451,620.505,0.10921,0,0
455,113.5,16.0412,16.976,167.078,100.338,98.8601,1.1151E-05,0.0543345,20.9436,620.335,0.136204,0,0
520,129.75,15.9321,17.582,169.381,99.6472,97.6974,0.0004427,0.0560927,20.9408,620.114,0.181334,0,0
585,146,16.5607,18.0684,171.307,98.9585,96.3739,0.001598566,0.0651087,20.9316,619.794,0.242842,0,0
650,162.25,30.0857,38.9337,152.753,98.6629,98.4393,0.002517158,0.404562,20.4794,617.802,0.0208257,0,0
715,178.5,38.5993,51.2353,153.595,98.8492,96.412,0.003317846,0.484451,20.455,615.24,0.229088,0,0
780,194.75,39.4498,51.7037,155.673,99.458,97.1569,0.003435215,0.442149,20.5209,612.828,0.214805,0,0
845,211,39.155,48.8277,154.376,99.9782,97.1472,0.003563226,0.392342,20.5795,610.716,0.263583,0,0
910,227.25,38.1566,46.2872,153.965,100.122,97.0925,0.003125869,0.351864,20.6244,608.814,0.281913,0,0
975,243.5,36.9132,44.2597,155.864,99.9675,97.384,0.002513571,0.322065,20.6545,607.003,0.240259,0,0
1040,259.75,36.3298,42.8316,159.481,99.7779,98.1178,0.002467202,0.299207,20.6812,605.331,0.15396,0,0
1105,276,35.9142,41.0615,155.473,100.605,99.4793,0.002363777,0.285655,20.6941,603.73,0.103234,0,0
1170,292.25,35.295,40.343,155.094,100.536,99.8672,0.001941116,0.273786,20.704,602.148,0.0612025,0,0
1235,308.5,35.1895,41.2186,156.429,100.155,100.394,0.00202551,0.266615,20.7105,600.597,-0.0218313,0,0
1300,324.75,35.1697,39.8839,157.045,100.575,100.747,0.0020588,0.253732,20.7234,599.045,-0.0157528,0,0
1365,341,34.8069,39.2587,162.074,100.86,101.021,0.002318827,0.249038,20.7289,597.474,-0.0146346,0,0
1430,357.25,34.3581,39.0206,167.772,100.705,101.086,0.002101647,0.241168,20.7398,595.993,-0.03467685,0,0
1495,373.5,34.5085,39.4775,155.371,100.108,100.344,0.002158149,0.240356,20.741,594.491,-0.0216696,0,0
1560,389.75,34.1351,38.128,159.949,99.369,99.7257,0.002114878,0.2321,20.7481,593.08,-0.0328796,0,0
1625,406,33.9586,38.0694,158.447,98.8938,99.1588,0.001628099,0.229141,20.7521,591.679,-0.0245598,0,0
1690,422.25,33.6846,37.7083,156.767,98.9387,99.1923,0.001523128,0.225153,20.7561,590.377,-0.0234883,0,0
1755,438.5,33.9021,37.6101,162.365,99.2965,99.7019,0.001400992,0.223308,20.7576,589.016,-0.0373888,0,0
1820,454.75,33.4698,37.3898,161.875,99.7787,100.112,0.001166877,0.22034,20.7626,587.725,-0.0305613,0,0
1885,471,33.116,37.3525,154.947,100.198,101.048,0.001610832,0.21912,20.7597,586.464,-0.0775293,0,0
1950,487.25,33.0001,36.5946,155.157,100.286,100.733,0.001640646,0.215625,20.7631,585.173,-0.0408141,0,0
2015,503.5,32.9836,36.612,164.136,100.144,100.274,0.00157737,0.21422,20.766,583.962,-0.011936,0,0
2080,519.75,33.1008,36.263,158.356,99.9894,100.219,0.001668414,0.211277,20.7712,582.771,-0.0210128,0,0
2145,536,32.8828,36.3432,163.689,99.9766,100.341,0.001368288,0.209539,20.7713,581.539,-0.0334153,0,0
2210,552.25,32.3353,35.8917,160.859,100.609,100.814,0.0016221,0.209536,20.7714,580.378,-0.0186806,0,0
2275,568.5,32.1532,35.3946,161.452,100.824,100.847,0.001811687,0.205986,20.7747,579.217,-0.002160117,0,0
2340,584.75,31.7448,35.4752,165.473,100.278,100.469,0.001809984,0.202369,20.7778,578.086,-0.0174327,0,0
2405,601,32.2643,35.776,161.871,100.75,101.287,0.00209242,0.200344,20.78,577.065,-0.0487478,0,0
2470,617.25,31.771,35.5027,158.641,101.001,101.354,0.002057189,0.196388,20.7838,575.934,-0.0320206,0,0
2535,633.5,32.2457,35.0647,157.282,100.254,100.688,0.002983779,0.190796,20.7916,574.963,-0.039644,0,0
2600,649.75,31.5287,34.8976,163.235,99.1394,99.5127,0.003202589,0.190071,20.7921,573.872,-0.0344891,0,0
2665,666,31.5172,34.5612,156.611,99.397,99.6806,0.003214178,0.188391,20.7932,572.871,-0.0261393,0,0
2730,682.25,32.0015,33.8266,158.273,100.354,100.704,0.003926672,0.187783,20.7941,571.871,-0.0319591,0,0
2795,698.5,31.6596,33.8255,165.805,100.199,100.286,0.003456567,0.186443,20.7947,570.84,-0.007943355,0,0
2860,714.75,30.973,34.1459,160.169,100.965,101.41,0.003485605,0.188381,20.795,569.919,-0.0404114,0,0
2925,731,31.0658,33.4952,159.609,100.789,101.083,0.0039454,0.181792,20.8013,568.948,-0.0267334,0,0
2990,747.25,31.2803,33.2746,162,100.855,100.931,0.004318841,0.180491,20.8036,567.987,-0.006881982,0,0
3055,763.5,30.7803,33.3168,160.997,99.2742,99.4377,0.004355974,0.179096,20.8054,567.056,-0.0150986,0,0
3120,779.75,30.3565,33.7965,157.198,100.485,100.722,0.00412972,0.178178,20.8069,566.125,-0.0216455,0,0
3185,796,30.4375,32.5894,162.858,100.197,100.558,0.004784722,0.175963,20.8081,565.225,-0.0330146,0,0
3250,812.25,30.3789,32.7739,162.633,100.61,100.554,0.004535945,0.177317,20.8057,564.314,0.005139789,0,0
3315,828.5,30.1118,33.2813,157.35,101.202,101.54,0.004418552,0.177797,20.806,563.423,-0.0305887,0,0
3380,844.75,29.9057,33.2672,160.319,99.4556,99.6344,0.004569455,0.179918,20.8029,562.512,-0.0164886,0,0
3445,861,30.5449,33.4719,162.367,100.827,101.23,0.004084487,0.182057,20.8005,561.661,-0.0365459,0,0
3510,877.25,30.3585,34.1222,160.036,100.781,101.219,0.003587443,0.186102,20.8007,560.71,-0.039783,0,0
3575,893.5,30.7076,33.9368,156.197,100.888,101.585,0.00361438,0.189962,20.7932,559.84,-0.0632352,0,0
3640,909.75,31.2923,34.3371,155.704,101.474,101.763,0.003098325,0.194248,20.789,558.909,-0.0260669,0,0
3705,926,31.3289,34.2443,158.309,99.9688,100.523,0.002677852,0.1963,20.7889,558.008,-0.0507198,0,0
3770,942.25,31.5355,35.0153,159.75,99.9539,100.433,0.002466727,0.205926,20.7771,557.047,-0.0438384,0,0
3835,958.5,31.6215,36.0838,162.976,100.95,101.322,0.002777328,0.208981,20.7748,556.146,-0.0337359,0,0
3900,974.75,32.4151,35.5345,161.573,100.791,101.25,0.002591578,0.21049,20.7715,555.165,-0.0417234,0,0
3965,991,33.0178,36.3269,159.366,100.764,101.354,0.00211604,0.219964,20.7572,554.174,-0.0535872,0,0
4030,1007.25,33.3034,35.7878,158.64,101.412,101.928,0.002112824,0.223912,20.7557,553.103,-0.0465827,0,0
4095,1023.5,33.4877,37.8349,158.37,100.905,101.161,0.001785189,0.231871,20.7476,551.992,-0.0232053,0,0
4160,1039.75,33.9154,39.074,155.113,101.379,102.244,0.001769721,0.240187,20.7361,550.861,-0.078008,0,0
4225,1056,34.8288,39.2975,159.15,101.695,102.292,0.00116897,0.252658,20.7217,549.65,-0.0536686,0,0
4290,1072.25,36.002,41.0781,162.733,101.692,101.899,0.001360016,0.267717,20.706,548.309,-0.01869153,0,0
4355,1088.5,37.0617,42.2982,158.852,101.489,102.344,0.001576854,0.286809,20.6835,546.898,-0.07701356,0,0
4420,1104.75,37.8585,44.3081,153.885,101.085,101.674,0.001543981,0.309768,20.6552,545.336,-0.0533077,0,0
[...]
4680,1169.75,44.8016,52.101,148.406,99.8682,96.702,0.003621554,0.404921,20.5435,537.649,0.295627,0,0
4745,1186,46.2808,55.117,148.777,99.8554,97.1761,0.004135223,0.431226,20.5097,535.427,0.249573,0,0
4810,1202.25,48.421,56.6932,152.454,99.8599,96.4875,0.004372709,0.452831,20.4844,533.055,0.315245,0,0
4875,1218.5,49.5241,58.5313,147.354,99.8888,96.6883,0.004542602,0.469266,20.4651,530.703,0.298819,0,0
4940,1234.75,50.9818,59.9495,148.858,99.8826,95.5509,0.004775026,0.476531,20.4521,528.261,0.406833,0,0
5005,1251,52.9433,62.1476,142.976,99.9238,94.3243,0.005848965,0.50198,20.4156,525.708,0.52918,0,0
5070,1267.25,53.4171,63.327,149.88,99.9275,94.7756,0.006696159,0.502359,20.4177,523.176,0.485721,0,0
5135,1283.5,52.4518,59.8719,150.809,99.9308,95.2122,0.005645187,0.435343,20.5048,521.024,0.443851,0,0
5200,1299.75,47.1768,52.4904,155.045,99.9267,97.0047,0.002543174,0.308747,20.6502,519.603,0.272322,0,0
5265,1316,43.0759,46.2215,155.103,99.89,98.1964,0.003370625,0.239523,20.7096,518.672,0.156917,0,0
5330,1332.25,40.4933,42.1604,158.45,99.8599,100.107,0.006101078,0.210313,20.7432,517.961,-0.02267785,0,0
5395,1348.5,37.9993,39.3033,163.404,99.8583,100.812,0.008006767,0.1888,20.7681,517.351,-0.08721184,0,0
5460,1364.75,35.536,36.1732,164.333,99.9193,100.616,0.009146526,0.172373,20.7878,516.78,-0.0637744,0,0
5525,1381,33.7003,34.2052,154.88,100.071,100.24,0.0101151,0.168628,20.7918,516.32,-0.0154389,0,0
5590,1397.25,33.5154,32.6217,160.467,100.329,101.193,0.009474228,0.163825,20.7989,515.84,-0.0787014,0,0
5655,1413.5,31.9397,32.666,161.334,100.651,101.061,0.009400628,0.164244,20.7988,515.399,-0.037296,0,0
5720,1429.75,31.2727,30.5695,157.671,101.015,101.339,0.009759826,0.161528,20.8045,514.999,-0.0293788,0,0
5785,1446,29.6774,31.1717,162.964,101.319,101.551,0.009777038,0.155483,20.8107,514.608,-0.0209975,0,0
5850,1462.25,28.3999,29.1889,161.535,101.551,101.654,0.0138046,0.138407,20.8337,514.258,-0.00925505,0,0
5915,1478.5,26.7777,27.2102,168.142,101.69,101.689,0.0143037,0.136806,20.8336,513.878,0.000130171,0,0
5980,1494.75,25.7024,26.7359,165.282,101.769,101.824,0.0138845,0.13477,20.8389,513.557,-0.004894771,0,0
6045,1511,25.959,26.2714,160.269,101.702,101.678,0.0124933,0.130813,20.8453,513.267,0.002132815,0,0
6110,1527.25,25.5123,26.0995,165.842,101.524,101.519,0.0129547,0.1308202,20.8422,512.947,0.000432072,0,0
6175,1543.5,25.3249,25.272,163.388,101.281,101.216,0.0130395,0.135125,20.8409,512.697,0.005866782,0,0
6240,1559.75,24.4476,24.9946,165.94,101.02,100.662,0.0131936,0.13066,20.8464,512.396,0.0325736,0,0
6305,1576,22.7554,22.4119,163.623,101.289,100.928,,0.0702349,,-0.370337,0.0327622,0,0
6345,1586,21.7859,21.6147,165.904,101.439,101.223,,,,-0.350319,0.019636,0,0
,,,,,,,,,,,,,
,,,,,,,,,,,,,
,,,,,,,,,,,,,
,,,,,,,,,,,,,
,,,,,,,,,,,,,
,,,,,,,,,,,,,
,,,,,,,,,,,,,
,,,,,,,,,,,,,
,,,,,,,,,,,,,
,,,,,,,,,,,,,
,,,,,,,,,,,,,
,,,,,,,,,,,,,
,,,,,,,,,,,,,
,,,,,,,,,,,,,
,,,,,,,,,,,,,
,,,,,,,,,,,,,
,,,,,,,,,,,,,
,,,,,,,,,,,,,
,,,,,,,,,,,,,
,,,,,,,,,,,,,
,,,,,,,,,,,,,
,,,,,,,,,,,,,
,,,,,,,,,,,,,
,,,,,,,,,,,,,
,,,,,,,,,,,,,
,,,,,,,,,,,,,
,,,,,,,,,,,,,
,,,,,,,,,,,,,
,,,,,,,,,,,,,
,,,,,,,,,,,,,
,,,,,,,,,,,,,
,,,,,,,,,,,,,
,,,,,,,,,,,,,
,,,,,,,,,,,,,
,,,,,,,,,,,,,
,,,,,,,,,,,,,
,,,,,,,,,,,,,
,,,,,,,,,,,,,
,,,,,,,,,,,,,
,,,,,,,,,,,,,
,,,,,,,,,,,,,
,,,,,,,,,,,,,
,,,,,,,,,,,,,
,,,,,,,,,,,,,
,,,,,,,,,,,,,
,,,,,,,,,,,,,
,,,,,,,,,,,,,
,,,,,,,,,,,,,
,,,,,,,,,,,,,
,,,,,,,,,,,,,
,,,,,,,,,,,,,
,,,,,,,,,,,,,
,,,,,,,,,,,,,
,,,,,,,,,,,,,
,,,,,,,,,,,,,
,,,,,,,,,,,,,
,,,,,,,,,,,,,
,,,,,,,,,,,,,
,,,,,,,,,,,,,
,,,,,,,,,,,,,
,,,,,,,,,,,,,
,,,,,,,,,,,,,
,,,,,,,,,,,,,
,,,,,,,,,,,,,
,,,,,,,,,,,,,

File: MDF_Cone_HF25Scan_210324_R3.csv
Names,Time,Stack TC,Smoke TC,Exh Press,Smoke Comp,Smoke Meas,CO Meter,CO2 Meter,O2 Meter,Sample Mass,Ext Coeff,Start Test,Flame Verif
Chan Gain,,500,500,1,1,1,1,1,1,1,1,1,1
Offset,,0,0,0.194005,0,0,0,0,0,0,0,0,0
Gain,,1,1,25.011,13.5067,16.616,1,1,1,1.00091,1.04608,1,1
Units,sec,C,C,Pa,%,%,%,%,%,g,/m,,
Baseline,,18.7675,20.1148,169.135,101.243,100.73,0.000450767,0.053871,20.9406,-0.566599,0.04655521,,
63,15.5,17.0761,18.1608,172.237,100.877,100.327,0.000251559,0.0603472,20.9368,615.58,0.0501385,0,0
126,31.25,16.9566,19.2303,164.715,100.62,100.033,0.00064525,0.0551508,20.9415,615.42,0.0537356,0,0
189,47,17.9383,18.9753,166.787,100.655,99.9189,0.000442864,0.054125,20.9414,615.27,0.06739299,0,0
252,62.75,18.0212,19.3666,173.031,100.703,99.783,0.000420985,0.0541898,20.9413,615.14,0.0842021,0,0
315,78.5,17.6876,18.8221,167.156,100.787,99.5072,0.000222694,0.0545254,20.9421,614.97,0.117265,0,0
378,94.25,18.2328,19.1587,173.425,100.913,99.4478,0.000409719,0.05511298,20.9429,614.81,0.134213,0,0
441,110,17.8681,19.0525,168.741,101.031,98.9453,0.000488358,0.0597909,20.936,614.589,0.191449,0,0
504,125.75,18.1983,19.823,168.606,101.107,98.6259,0.001244639,0.0647415,20.932,614.279,0.227971,0,0
567,141.5,22.8385,27.8314,156.289,101.134,100.552,0.002305527,0.238285,20.6939,613.338,0.052946,0,1
630,157.25,37.0939,48.8213,155.52,101.115,100.984,0.003296682,0.48079,20.4454,610.926,0.011921,0,0
693,173,40.4923,52.7558,157.744,101.077,100.49,0.003490491,0.458859,20.4876,608.624,0.0534213,0,0
756,188.75,40.9316,51.5311,150.46,101.027,97.059,0.003526734,0.408089,20.5483,606.512,0.3677,0,0
819,204.5,40.0193,49.0808,153.249,101.005,97.5874,0.003188774,0.368708,20.5963,604.63,0.315898,0,0
882,220.25,38.3231,46.6157,154.751,100.996,98.0706,0.003011364,0.335024,20.6333,602.889,0.269671,0,0
945,236,38.6334,44.8864,157.522,101.024,98.6822,0.002515811,0.308577,20.6634,601.277,0.215176,0,0
1008,251.75,37.0159,42.9309,160.688,101.061,99.7044,0.002213149,0.289444,20.6853,599.746,0.123977,0,0
1071,267.5,36.8575,42.1057,156.064,101.112,100.284,0.001805173,0.277151,20.6991,598.275,0.0754673,0,0
1134,283.25,36.361,41.4725,152.369,101.133,100.711,0.0018909,0.269469,20.7061,596.843,0.0383063,0,0
1197,299,36.0559,40.8761,162.971,101.13,101.036,0.001611137,0.263037,20.7154,595.452,0.008559981,0,0
1260,314.75,36.4459,40.9175,158.993,101.109,100.992,0.00166847,0.256155,20.7212,594.041,0.0106143,0,0
1323,330.5,36.0594,40.598,155.239,101.032,101.08,0.001760337,0.250117,20.7265,592.659,-0.004388049,0,0
1386,346.25,35.4264,39.8409,160.794,100.962,101.354,0.001961906,0.238294,20.739,591.238,-0.0355877,0,0
1449,362,35.5923,39.8363,156.739,100.905,101.041,0.001990825,0.233619,20.7461,589.847,-0.0123352,0,0
1512,377.75,35.0276,39.3722,155.701,100.837,100.84,0.002277724,0.231557,20.7458,588.396,-0.000229717,0,0
1575,393.5,34.7378,38.9299,160.775,100.782,101.206,0.001765259,0.225842,20.7522,587.104,-0.0385965,0,0
1638,409.25,34.8676,38.4176,158.975,100.716,101.017,0.002317676,0.222102,20.7561,585.793,-0.0273538,0,0
1701,425,34.7072,38.5891,161.646,100.666,101.008,0.002146034,0.218458,20.759,584.532,-0.0311534,0,0
1764,440.75,34.7729,37.048,157.583,100.634,100.847,0.001860016,0.215424,20.7623,583.301,-0.0193492,0,0
1827,456.5,33.7926,38.0659,158.637,100.613,101.098,0.002219809,0.212575,20.7652,582.12,-0.0441148,0,0
1890,472.25,33.7028,37.4793,159.24,100.716,101.357,0.002099623,0.210437,20.7686,580.939,-0.0582476,0,0
1953,488,33.1899,36.7604,154.974,100.918,101.125,0.002059287,0.207246,20.7708,579.798,-0.018777,0,0
2016,503.75,33.5354,36.93,160.415,101.08,101.614,0.002397375,0.205452,20.7736,578.637,-0.0483085,0,0
2079,519.5,32.965,36.5825,161.259,101.246,101.343,0.002023832,0.20343,20.775,577.496,-0.008794074,0,0
2142,535.25,33.0719,35.955,159.949,101.392,101.926,0.002298742,0.203065,20.7715,576.425,-0.0481902,0,0
2205,551,32.7911,35.7375,155.845,101.496,102.053,0.00222319,0.200521,20.7766,575.304,-0.05024625,0,0
2268,566.75,32.4365,35.9213,162.21,101.541,101.782,0.002524888,0.199218,20.7773,574.223,-0.0217217,0,0
2331,582.5,32.3502,35.4852,154.435,101.532,102.002,0.002927257,0.198034,20.7779,573.222,-0.0423613,0,0
2394,598.25,32.5459,35.2059,159.177,101.472,101.583,0.00345167,0.196792,20.7773,572.151,-0.0100818,0,0
2457,614,32.3332,35.2631,165.083,101.374,101.732,0.002909509,0.196253,20.7807,571.11,-0.0323307,0,0
2520,629.75,31.9198,34.8615,159.04,101.212,101.364,0.003124216,0.193989,20.7825,570.119,-0.0137856,0,0
2583,645.5,31.8293,34.6783,155.047,101.07,101.37,0.003238642,0.192721,20.7835,569.118,-0.0271547,0,0
2646,661.25,31.6912,34.7818,158.821,100.964,101.194,0.003621697,0.19159,20.7853,568.117,-0.020873,0,0
2709,677,31.2054,34.537,158.408,101.026,101.064,0.003634539,0.188887,20.7899,567.146,-0.003448006,0,0
2772,692.75,31.0038,33.6,160.311,101.12,101.175,0.003824951,0.187467,20.7887,566.205,-0.005031032,0,0
2835,708.5,30.9749,33.6029,157.473,101.263,101.391,0.004267054,0.186927,20.7912,565.265,-0.0115855,0,0
2898,724.25,30.855,33.9779,159.124,101.41,101.454,0.003926291,0.186683,20.7925,564.324,-0.003949204,0,0
2961,740,30.422,33.4427,159.71,101.523,101.74,0.00455413,0.186756,20.7901,563.363,-0.019649,0,0
3024,755.75,30.8915,33.0474,160.752,101.632,101.756,0.004216581,0.185436,20.7915,562.452,-0.0111167,0,0
3087,771.5,30.7448,33.4106,161.577,101.712,101.909,0.004100161,0.184841,20.7931,561.501,-0.0177352,0,0
3150,787.25,30.7142,33.5572,162.779,101.742,102.051,0.003741364,0.184761,20.793,560.61,-0.0278426,0,0
3213,803,30.9029,33.4112,159.429,101.742,101.657,0.003829759,0.186801,20.7913,559.729,0.007661607,0,0
3276,818.75,31.2552,33.8721,155.288,101.682,101.781,0.003654946,0.189068,20.7864,558.839,-0.00894627,0,0
3339,834.5,30.8594,33.6811,160.295,101.57,101.699,0.003320222,0.190655,20.7835,557.918,-0.01165228,0,0
3402,850.25,29.8494,34.203,159.323,101.434,101.602,0.002732055,0.192957,20.7828,556.997,-0.015206,0,0
3465,866,30.9832,34.3109,163.176,101.261,101.633,0.002583499,0.196951,20.7773,556.066,-0.0337194,0,0
3528,881.75,31.1456,34.8638,161.965,101.059,101.261,0.002715252,0.200491,20.7752,555.155,-0.0182909,0,0
3591,897.5,31.4456,34.8241,160.056,100.84,100.899,0.002300862,0.203823,20.7714,554.255,-0.005318338,0,0
3654,913.25,31.808,35.5178,161.68,100.671,100.9,0.002187234,0.207022,20.7679,553.264,-0.0208862,0,0
3717,929,32.3504,35.5468,161.775,100.506,100.743,0.001790044,0.212491,20.7626,552.303,-0.0216203,0,0
3780,944.75,32.5498,36.1883,158.555,100.389,100.545,0.001704717,0.217235,20.7562,551.362,-0.0142451,0,0
3843,960.5,32.8005,37.2391,159.621,100.273,100.387,0.002176919,0.222662,20.7505,550.321,-0.0103884,0,0
3906,976.25,33.3472,37.1937,157.421,100.162,100.719,0.001926017,0.229703,20.7419,549.31,-0.0508881,0,0
3969,992,33.8318,37.9394,161.959,100.055,100.122,0.001551849,0.236453,20.7349,548.199,-0.00612886,0,0
4032,1007.75,34.0903,38.7908,155.759,99.9708,100.549,0.001545014,0.244437,20.7263,547.108,-0.052937,0,0
4095,1023.5,34.9893,39.7173,160.839,99.8731,100.025,0.001512319,0.255739,20.7138,545.917,-0.0139806,0,0
4158,1039.25,34.733,40.4979,153.968,99.8439,100.07,0.001643299,0.26837,20.7014,544.666,-0.0207163,0,0
4221,1055,36.3864,41.6473,153.098,99.796,99.8124,0.001779637,0.281442,20.6879,543.295,-0.001506942,0,0
4284,1070.75,38.0528,43.6836,156.412,99.7796,99.5553,0.001578266,0.299916,20.6655,541.873,0.0206423,0,0
[...]
,,,,,,,,,,,,,
,,,,,,,,,,,,,
,,,,,,,,,,,,,
,,,,,,,,,,,,,
,,,,,,,,,,,,,
,,,,,,,,,,,,,
,,,,,,,,,,,,,
,,,,,,,,,,,,,
,,,,,,,,,,,,,
,,,,,,,,,,,,,
,,,,,,,,,,,,,
,,,,,,,,,,,,,
,,,,,,,,,,,,,
,,,,,,,,,,,,,
,,,,,,,,,,,,,
,,,,,,,,,,,,,
,,,,,,,,,,,,,
,,,,,,,,,,,,,
,,,,,,,,,,,,,
,,,,,,,,,,,,,
,,,,,,,,,,,,,
,,,,,,,,,,,,,
,,,,,,,,,,,,,
,,,,,,,,,,,,,
,,,,,,,,,,,,,
,,,,,,,,,,,,,
,,,,,,,,,,,,,
,,,,,,,,,,,,,
,,,,,,,,,,,,,
,,,,,,,,,,,,,
,,,,,,,,,,,,,
,,,,,,,,,,,,,
,,,,,,,,,,,,,
,,,,,,,,,,,,,
,,,,,,,,,,,,,
,,,,,,,,,,,,,
,,,,,,,,,,,,,
,,,,,,,,,,,,,
,,,,,,,,,,,,,
,,,,,,,,,,,,,
,,,,,,,,,,,,,
,,,,,,,,,,,,,
,,,,,,,,,,,,,
,,,,,,,,,,,,,
,,,,,,,,,,,,,
,,,,,,,,,,,,,
,,,,,,,,,,,,,
,,,,,,,,,,,,,
,,,,,,,,,,,,,
,,,,,,,,,,,,,
,,,,,,,,,,,,,
,,,,,,,,,,,,,
,,,,,,,,,,,,,
,,,,,,,,,,,,,
,,,,,,,,,,,,,
,,,,,,,,,,,,,
,,,,,,,,,,,,,
,,,,,,,,,,,,,
,,,,,,,,,,,,,
,,,,,,,,,,,,,
,,,,,,,,,,,,,
,,,,,,,,,,,,,
,,,,,,,,,,,,,
,,,,,,,,,,,,,
,,,,,,,,,,,,,
,,,,,,,,,,,,,
,,,,,,,,,,,,,
,,,,,,,,,,,,,
,,,,,,,,,,,,,
,,,,,,,,,,,,,
,,,,,,,,,,,,,
,,,,,,,,,,,,,
,,,,,,,,,,,,,
,,,,,,,,,,,,,
,,,,,,,,,,,,,
,,,,,,,,,,,,,
,,,,,,,,,,,,,
,,,,,,,,,,,,,
,,,,,,,,,,,,,
,,,,,,,,,,,,,
,,,,,,,,,,,,,
,,,,,,,,,,,,,
,,,,,,,,,,,,,
,,,,,,,,,,,,,
,,,,,,,,,,,,,
,,,,,,,,,,,,,
,,,,,,,,,,,,,
,,,,,,,,,,,,,
,,,,,,,,,,,,,
,,,,,,,,,,,,,
,,,,,,,,,,,,,
,,,,,,,,,,,,,
,,,,,,,,,,,,,
,,,,,,,,,,,,,
,,,,,,,,,,,,,
,,,,,,,,,,,,,
,,,,,,,,,,,,,
,,,,,,,,,,,,,
,,,,,,,,,,,,,
,,,,,,,,,,,,,
,,,,,,,,,,,,,
,,,,,,,,,,,,,
,,,,,,,,,,,,,
,,,,,,,,,,,,,
,,,,,,,,,,,,,
,,,,,,,,,,,,,
,,,,,,,,,,,,,
,,,,,,,,,,,,,
,,,,,,,,,,,,,
,,,,,,,,,,,,,
,,,,,,,,,,,,,
,,,,,,,,,,,,,
,,,,,,,,,,,,,
,,,,,,,,,,,,,
,,,,,,,,,,,,,
,,,,,,,,,,,,,
,,,,,,,,,,,,,
,,,,,,,,,,,,,
,,,,,,,,,,,,,
,,,,,,,,,,,,,
,,,,,,,,,,,,,
,,,,,,,,,,,,,
,,,,,,,,,,,,,
,,,,,,,,,,,,,
,,,,,,,,,,,,,
,,,,,,,,,,,,,
,,,,,,,,,,,,,
,,,,,,,,,,,,,
,,,,,,,,,,,,,
,,,,,,,,,,,,,
,,,,,,,,,,,,,
,,,,,,,,,,,,,
,,,,,,,,,,,,,
,,,,,,,,,,,,,
,,,,,,,,,,,,,
,,,,,,,,,,,,,
,,,,,,,,,,,,,
,,,,,,,,,,,,,
,,,,,,,,,,,,,
,,,,,,,,,,,,,
,,,,,,,,,,,,,
,,,,,,,,,,,,,
,,,,,,,,,,,,,
,,,,,,,,,,,,,
,,,,,,,,,,,,,
,,,,,,,,,,,,,
,,,,,,,,,,,,,
,,,,,,,,,,,,,
,,,,,,,,,,,,,
,,,,,,,,,,,,,
,,,,,,,,,,,,,
,,,,,,,,,,,,,
,,,,,,,,,,,,,
,,,,,,,,,,,,,
,,,,,,,,,,,,,
,,,,,,,,,,,,,
,,,,,,,,,,,,,
,,,,,,,,,,,,,
,,,,,,,,,,,,,
,,,,,,,,,,,,,
,,,,,,,,,,,,,
,,,,,,,,,,,,,
,,,,,,,,,,,,,
,,,,,,,,,,,,,
,,,,,,,,,,,,,
,,,,,,,,,,,,,
,,,,,,,,,,,,,
,,,,,,,,,,,,,
,,,,,,,,,,,,,
,,,,,,,,,,,,,
,,,,,,,,,,,,,
,,,,,,,,,,,,,
,,,,,,,,,,,,,
,,,,,,,,,,,,,
,,,,,,,,,,,,,
,,,,,,,,,,,,,
,,,,,,,,,,,,,
,,,,,,,,,,,,,
,,,,,,,,,,,,,
,,,,,,,,,,,,,
,,,,,,,,,,,,,
,,,,,,,,,,,,,
,,,,,,,,,,,,,
,,,,,,,,,,,,,
,,,,,,,,,,,,,
,,,,,,,,,,,,,
,,,,,,,,,,,,,
,,,,,,,,,,,,,
,,,,,,,,,,,,,
,,,,,,,,,,,,,
,,,,,,,,,,,,,
,,,,,,,,,,,,,
,,,,,,,,,,,,,
,,,,,,,,,,,,,
,,,,,,,,,,,,,
,,,,,,,,,,,,,
,,,,,,,,,,,,,
,,,,,,,,,,,,,
,,,,,,,,,,,,,
,,,,,,,,,,,,,
,,,,,,,,,,,,,
,,,,,,,,,,,,,
,,,,,,,,,,,,,
,,,,,,,,,,,,,
,,,,,,,,,,,,,
,,,,,,,,,,,,,
,,,,,,,,,,,,,
,,,,,,,,,,,,,
,,,,,,,,,,,,,
,,,,,,,,,,,,,
,,,,,,,,,,,,,
,,,,,,,,,,,,,
,,,,,,,,,,,,,
,,,,,,,,,,,,,
,,,,,,,,,,,,,
,,,,,,,,,,,,,
,,,,,,,,,,,,,
,,,,,,,,,,,,,
,,,,,,,,,,,,,
,,,,,,,,,,,,,
,,,,,,,,,,,,,
,,,,,,,,,,,,,
,,,,,,,,,,,,,
,,,,,,,,,,,,,
,,,,,,,,,,,,,
,,,,,,,,,,,,,
,,,,,,,,,,,,,
,,,,,,,,,,,,,
,,,,,,,,,,,,,
,,,,,,,,,,,,,
,,,,,,,,,,,,,
,,,,,,,,,,,,,
,,,,,,,,,,,,,
,,,,,,,,,,,,,
,,,,,,,,,,,,,
,,,,,,,,,,,,,
,,,,,,,,,,,,,
,,,,,,,,,,,,,
,,,,,,,,,,,,,
,,,,,,,,,,,,,
,,,,,,,,,,,,,
,,,,,,,,,,,,,
,,,,,,,,,,,,,
,,,,,,,,,,,,,
,,,,,,,,,,,,,
,,,,,,,,,,,,,
,,,,,,,,,,,,,
,,,,,,,,,,,,,
,,,,,,,,,,,,,
,,,,,,,,,,,,,
,,,,,,,,,,,,,
,,,,,,,,,,,,,
,,,,,,,,,,,,,
,,,,,,,,,,,,,
,,,,,,,,,,,,,
,,,,,,,,,,,,,
,,,,,,,,,,,,,
,,,,,,,,,,,,,
,,,,,,,,,,,,,
,,,,,,,,,,,,,
,,,,,,,,,,,,,

File: MDF_Cone_HF50Scalar_210326_R1.csv
LABORATORY,FSRI
TEST IDENT,MDF_HF50_1
OPERATOR,Morrissey
MATERIAL,3/4 inch MDF
ORIENTATION,Horizontal
HEAT FLUX,50
SURF AREA,0.01
C FACTOR,0.0386052
SPEC HOLDER DIFF,-97.54
SPECIMEN MASS,143.02
SCAN TIME,0.25
O2 DELAY TIME,11
CO DELAY TIME,11
CO2 DELAY TIME,8
FLOW FACTOR,1
SCAN COUNT,4615
TIME TO IGN,31
END OF TEST SCAN,4135
END OF TEST TIME,1033.75
TEST STATUS,1
PRE TEST CMT,without frame or grid

File: MDF_Cone_HF50Scalar_210326_R2.csv
LABORATORY,FSRI
TEST IDENT,MDF_HF50_2
OPERATOR,Morrissey
MATERIAL,3/4 inch MDF
ORIENTATION,Horizontal
HEAT FLUX,50
SURF AREA,0.01
C FACTOR,0.0386052
SPEC HOLDER DIFF,-90.22
SPECIMEN MASS,140.53
SCAN TIME,0.25
O2 DELAY TIME,11
CO DELAY TIME,11
CO2 DELAY TIME,8
FLOW FACTOR,1
SCAN COUNT,4635
TIME TO IGN,31.75
END OF TEST SCAN,4155
END OF TEST TIME,1038.75
TEST STATUS,1
PRE TEST CMT,test w/o frame or grid

File: MDF_Cone_HF50Scalar_210326_R3.csv
LABORATORY,FSRI
TEST IDENT,MDF_HF50_3
OPERATOR,Morrissey
MATERIAL,3/4 inch MDF
ORIENTATION,Horizontal
HEAT FLUX,50
SURF AREA,0.01
C FACTOR,0.0386052
SPEC HOLDER DIFF,-86.89
SPECIMEN MASS,143.88
SCAN TIME,0.25
O2 DELAY TIME,11
CO DELAY TIME,11
CO2 DELAY TIME,8
FLOW FACTOR,1
SCAN COUNT,4723
TIME TO IGN,30.25
END OF TEST SCAN,4243
END OF TEST TIME,1060.75
TEST STATUS,1
PRE TEST CMT,"Nominal thickness: 3/4 inches"