Folder: fsri_materials_database/01_Data/MDF/Cone (part 3)

File: MDF_Cone_HF75scan_210325_R3.csv
Names,Time,Stack TC,Smoke TC,Exh Press,Smoke Comp,Smoke Meas,CO Meter,CO2 Meter,O2 Meter,Sample Mass,Ext Coeff,Start Test,Flame Verif
Chan Gain,,500,500,1,1,1,1,1,1,1,1,1,1
Offset,,0,0,0.138348,0,0,0,0,0,0,0,0,0
Gain,,1,1,25.011,13.5067,16.616,1,1,1,1.00091,1.04608,1,1
Units,sec,C,C,Pa,%,%,%,%,%,g,/m,,
Baseline,,40.2923,43.8867,156.915,101.485,101.59,0.000308488,0.0837256,20.8398,-2.88617,-0.009448687,,
43,10.5,38.1708,42.2262,155.014,101.357,100.292,0.000700865,0.0850305,20.8427,617.492,0.0969636,0,0
86,21.25,46.4868,57.1186,133.448,101.331,97.3744,0.003840317,0.340752,20.4012,615.951,0.365519,0,0
129,32,63.6959,84.2919,134.946,101.299,90.7104,0.007210687,0.797441,19.8966,613.158,1.01312,0,0
172,42.75,72.1538,96.1597,133.503,101.281,88.0928,0.009548132,0.876135,19.8882,610.296,1.28016,0,0
215,53.5,75.7933,99.1938,128.112,101.273,88.3169,0.0101318,0.81309,19.9871,607.793,1.25613,0,0
258,64.25,76.3629,97.911,132.441,101.271,90.0075,0.00947401,0.732279,20.0925,605.411,1.08191,0,0
301,75,75.425,94.963,135.505,101.304,91.3036,0.009025241,0.671524,20.1665,603.189,0.953708,0,0
344,85.75,74.7199,92.9489,136.88,101.303,92.7199,0.007795685,0.620847,20.2225,601.107,0.812425,0,0
387,96.5,74.3234,91.1977,137.93,101.307,93.3228,0.006981073,0.586205,20.2608,599.225,0.75325,0,0
430,107.25,73.8746,89.7551,133.612,101.292,95.8988,0.006982998,0.554473,20.291,597.234,0.502052,0,0
473,118,73.6013,88.5009,138.403,101.328,94.7421,0.006105715,0.538015,20.3067,595.402,0.616649,0,0
516,128.75,73.7655,87.7147,131.81,101.372,95.7908,0.006005961,0.527208,20.3168,593.58,0.519672,0,0
559,139.5,73.6612,86.9553,142.698,101.43,96.8906,0.005780981,0.519511,20.3252,591.769,0.420098,0,0
602,150.25,74.0979,87.4175,139.01,101.5,96.6123,0.005775495,0.516206,20.3274,590.007,0.452912,0,0
645,161,74.6316,87.9975,136.149,101.534,97.3602,0.005345581,0.51524,20.3247,588.195,0.385165,0,0
688,171.75,75.3441,88.0486,133.707,101.587,97.242,0.004940939,0.510397,20.3268,586.364,0.401075,0,0
731,182.5,75.2202,87.9758,136.444,101.605,98.0412,0.004731503,0.499819,20.3438,584.602,0.327609,0,0
774,193.25,75.1539,87.5817,138.931,101.606,98.8333,0.004317314,0.481376,20.3701,582.811,0.253924,0,0
817,204,74.9476,86.9595,139.113,101.564,99.8053,0.004055323,0.476786,20.3691,581.069,0.160242,0,0
860,214.75,74.7787,86.7771,134.4,101.516,99.5198,0.003829263,0.468122,20.3788,579.437,0.182243,0,0
903,225.5,74.6534,85.6445,141.998,101.455,100.174,0.003524091,0.458121,20.3886,577.836,0.116574,0,0
946,236.25,74.3561,85.0151,139.038,101.389,99.7333,0.003366918,0.448372,20.3992,576.295,0.15106,0,0
989,247,74.2744,84.3565,140.539,101.299,99.5036,0.003214178,0.440284,20.4087,574.773,0.164083,0,0
1032,257.75,74.0322,84.0789,142.128,101.249,101.007,0.003027655,0.430054,20.4212,573.292,0.0219596,0,0
1075,268.5,73.3814,83.7756,141.577,101.208,100.128,0.002773512,0.421514,20.4284,571.801,0.0984799,0,0
1118,279.25,72.874,82.3451,140.071,101.118,100.264,0.002810692,0.413046,20.4379,570.449,0.0778462,0,0
1161,290,72.3702,81.9628,142.865,101.01,100.866,0.002749627,0.404215,20.4482,569.088,0.0131106,0,0
1204,300.75,71.6558,80.5809,134.839,100.963,99.782,0.002323298,0.396035,20.4627,567.777,0.107927,0,0
1247,311.5,71.4384,79.938,139.491,100.949,100.555,0.002496704,0.388605,20.4733,566.416,0.0358147,0,0
1290,322.25,70.9444,79.6803,143.741,101.136,100.355,0.002212628,0.382368,20.4827,565.205,0.07114283,0,0
1333,333,70.4612,78.7937,139.221,101.357,101.648,0.002370626,0.37646,20.4907,563.903,-0.0262271,0,0
1376,343.75,70.4221,78.0713,140.943,101.519,101.367,0.002350986,0.369989,20.4998,562.672,0.0137835,0,0
1419,354.5,69.7338,77.2028,140.353,101.636,101.362,0.002152094,0.364605,20.5066,561.461,0.0247353,0,0
1462,365.25,69.1486,77.096,142.177,101.72,101.378,0.002440516,0.36201,20.5088,560.24,0.0309003,0,0
1505,376,68.3712,76.781,140.055,101.777,102.321,0.001874275,0.358535,20.5111,559.089,-0.04899082,0,0
1548,386.75,68.9415,76.5048,141.361,101.788,101.138,0.002005712,0.356065,20.517,557.998,0.0587693,0,0
1591,397.5,68.7359,76.2935,147.218,101.798,101.909,0.002162676,0.358329,20.5129,556.867,-0.009967363,0,0
1634,408.25,68.725,76.0348,141.528,101.801,102.218,0.002360975,0.357153,20.5186,555.646,-0.0375168,0,0
1677,419,67.7267,75.2865,142.744,101.786,101.757,0.002377799,0.357757,20.5191,554.445,0.002580097,0,0
1720,429.75,68.6893,76.3115,140.99,101.766,101.533,0.00179932,0.358442,20.5189,553.264,0.0210298,0,0
1763,440.5,68.5414,76.1607,141.012,101.758,100.886,0.002031466,0.363477,20.5125,552.023,0.0789785,0,0
1806,451.25,67.8907,75.657,144.7,101.71,100.449,0.002238023,0.363787,20.5116,550.891,0.114434,0,0
1849,462,67.8638,75.8809,138.206,101.663,100.466,0.002485037,0.370141,20.5026,549.64,0.108664,0,0
1892,472.75,68.2294,76.5233,138.672,101.609,99.8119,0.002393552,0.371637,20.4989,548.449,0.163731,0,0
1935,483.5,68.1021,76.1469,140.529,101.507,99.57,0.00285333,0.37779,20.4933,547.158,0.176832,0,0
1978,494.25,68.21,76.1227,146.674,101.393,98.4651,0.002683689,0.381678,20.4885,545.987,0.268864,0,0
2021,505,68.4671,76.4501,140.842,101.315,99.2988,0.002787837,0.389633,20.4818,544.676,0.184413,0,0
2064,515.75,68.7205,77.4805,139.837,101.359,98.6583,0.002818889,0.394813,20.4728,543.495,0.247856,0,0
2107,526.5,69.3858,77.7056,141.258,101.394,98.6943,0.002916404,0.402042,20.4636,542.164,0.247642,0,0
2150,537.25,69.6699,78.1773,141.497,101.436,98.5275,0.003463468,0.405663,20.4607,540.812,0.266933,0,0
2193,548,69.7699,78.3901,137.144,101.458,98.2116,0.003056764,0.410243,20.4535,539.501,0.298452,0,0
2236,558.75,69.4285,78.4154,143.151,101.416,98.386,0.003606826,0.412347,20.4482,538.15,0.27829,0,0
2279,569.5,70.0877,78.8398,140.051,101.461,97.1112,0.003528539,0.421664,20.4353,536.829,0.402064,0,0
2322,580.25,70.1859,79.6712,138.135,101.529,97.8323,0.003583443,0.424928,20.4313,535.477,0.340369,0,0
2365,591,71.3394,79.3976,144.991,101.59,97.7816,0.003451183,0.428564,20.4263,534.096,0.3506,0,0
2408,601.75,70.5845,79.7515,139.396,101.643,96.8465,0.003809964,0.428537,20.431,532.715,0.443535,0,0
2451,612.5,70.4943,79.2448,139.875,101.678,97.2983,0.003841873,0.423793,20.4382,531.424,0.403989,0,0
2494,623.25,69.8847,79.5901,142.815,101.729,98.0037,0.003784883,0.427143,20.4342,530.032,0.342358,0,0
2537,634,70.5826,79.4974,141.151,101.738,96.6848,0.003900356,0.427972,20.4299,528.631,0.467504,0,0
2580,644.75,70.5873,79.9626,140.075,101.773,97.1695,0.003580519,0.429557,20.4278,527.3,0.424771,0,0
2623,655.5,71.1784,80.3674,135.071,101.79,97.2086,0.003549189,0.434951,20.4194,525.949,0.422607,0,0
2666,666.25,71.5859,80.8366,142.052,101.808,97.2806,0.00475318,0.43941,20.4122,524.568,0.417411,0,0
2709,677,71.7011,81.5752,139.244,101.813,95.7609,0.004622052,0.44347,20.4037,523.216,0.562374,0,0
2752,687.75,71.7242,81.2595,135.627,101.829,95.0662,0.004596101,0.443548,20.4061,521.785,0.630559,0,0
2795,698.5,72.209,81.8046,141.181,101.868,96.4241,0.004999802,0.449161,20.3995,520.384,0.503977,0,0
2838,709.25,72.3127,81.7338,136.169,101.919,95.1595,0.005144204,0.452508,20.394,519.002,0.629726,0,0
2881,720,72.4054,82.4398,140.553,101.934,94.878,0.005119835,0.457477,20.3865,517.551,0.658277,0,0
2924,730.75,73.022,83.3605,140.278,101.956,94.5905,0.005178913,0.460834,20.3782,516.16,0.688019,0,0
2967,741.5,73.7283,83.6579,137.965,101.999,94.3446,0.005180385,0.463856,20.3716,514.729,0.715802,0,0
[...]
,,,,,,,,,,,,,
,,,,,,,,,,,,,
,,,,,,,,,,,,,
,,,,,,,,,,,,,
,,,,,,,,,,,,,
,,,,,,,,,,,,,
,,,,,,,,,,,,,
,,,,,,,,,,,,,
,,,,,,,,,,,,,
,,,,,,,,,,,,,
,,,,,,,,,,,,,
,,,,,,,,,,,,,
,,,,,,,,,,,,,
,,,,,,,,,,,,,
,,,,,,,,,,,,,
,,,,,,,,,,,,,
,,,,,,,,,,,,,
,,,,,,,,,,,,,
,,,,,,,,,,,,,
,,,,,,,,,,,,,
,,,,,,,,,,,,,
,,,,,,,,,,,,,
,,,,,,,,,,,,,
,,,,,,,,,,,,,
,,,,,,,,,,,,,
,,,,,,,,,,,,,
,,,,,,,,,,,,,
,,,,,,,,,,,,,
,,,,,,,,,,,,,
,,,,,,,,,,,,,
,,,,,,,,,,,,,
,,,,,,,,,,,,,
,,,,,,,,,,,,,
,,,,,,,,,,,,,
,,,,,,,,,,,,,
,,,,,,,,,,,,,
,,,,,,,,,,,,,
,,,,,,,,,,,,,
,,,,,,,,,,,,,
,,,,,,,,,,,,,
,,,,,,,,,,,,,
,,,,,,,,,,,,,
,,,,,,,,,,,,,
,,,,,,,,,,,,,
,,,,,,,,,,,,,
,,,,,,,,,,,,,
,,,,,,,,,,,,,
,,,,,,,,,,,,,
,,,,,,,,,,,,,
,,,,,,,,,,,,,
,,,,,,,,,,,,,
,,,,,,,,,,,,,
,,,,,,,,,,,,,
,,,,,,,,,,,,,
,,,,,,,,,,,,,
,,,,,,,,,,,,,
,,,,,,,,,,,,,
,,,,,,,,,,,,,
,,,,,,,,,,,,,
,,,,,,,,,,,,,
,,,,,,,,,,,,,
,,,,,,,,,,,,,
,,,,,,,,,,,,,
,,,,,,,,,,,,,
,,,,,,,,,,,,,
,,,,,,,,,,,,,
,,,,,,,,,,,,,
,,,,,,,,,,,,,
,,,,,,,,,,,,,
,,,,,,,,,,,,,
,,,,,,,,,,,,,
,,,,,,,,,,,,,
,,,,,,,,,,,,,
,,,,,,,,,,,,,
,,,,,,,,,,,,,
,,,,,,,,,,,,,
,,,,,,,,,,,,,
,,,,,,,,,,,,,
,,,,,,,,,,,,,
,,,,,,,,,,,,,
,,,,,,,,,,,,,
,,,,,,,,,,,,,
,,,,,,,,,,,,,
,,,,,,,,,,,,,
,,,,,,,,,,,,,
,,,,,,,,,,,,,
,,,,,,,,,,,,,
,,,,,,,,,,,,,
,,,,,,,,,,,,,
,,,,,,,,,,,,,
,,,,,,,,,,,,,
,,,,,,,,,,,,,
,,,,,,,,,,,,,
,,,,,,,,,,,,,
,,,,,,,,,,,,,
,,,,,,,,,,,,,
,,,,,,,,,,,,,
,,,,,,,,,,,,,
,,,,,,,,,,,,,
,,,,,,,,,,,,,
,,,,,,,,,,,,,
,,,,,,,,,,,,,
,,,,,,,,,,,,,
,,,,,,,,,,,,,
,,,,,,,,,,,,,
,,,,,,,,,,,,,
,,,,,,,,,,,,,
,,,,,,,,,,,,,
,,,,,,,,,,,,,
,,,,,,,,,,,,,
,,,,,,,,,,,,,
,,,,,,,,,,,,,
,,,,,,,,,,,,,
,,,,,,,,,,,,,
,,,,,,,,,,,,,
,,,,,,,,,,,,,
,,,,,,,,,,,,,
,,,,,,,,,,,,,
,,,,,,,,,,,,,
,,,,,,,,,,,,,
,,,,,,,,,,,,,
,,,,,,,,,,,,,
,,,,,,,,,,,,,
,,,,,,,,,,,,,
,,,,,,,,,,,,,
,,,,,,,,,,,,,
,,,,,,,,,,,,,
,,,,,,,,,,,,,
,,,,,,,,,,,,,
,,,,,,,,,,,,,
,,,,,,,,,,,,,
,,,,,,,,,,,,,
,,,,,,,,,,,,,
,,,,,,,,,,,,,
,,,,,,,,,,,,,
,,,,,,,,,,,,,
,,,,,,,,,,,,,
,,,,,,,,,,,,,
,,,,,,,,,,,,,
,,,,,,,,,,,,,
,,,,,,,,,,,,,
,,,,,,,,,,,,,
,,,,,,,,,,,,,
,,,,,,,,,,,,,
,,,,,,,,,,,,,
,,,,,,,,,,,,,
,,,,,,,,,,,,,
,,,,,,,,,,,,,
,,,,,,,,,,,,,
,,,,,,,,,,,,,
,,,,,,,,,,,,,
,,,,,,,,,,,,,
,,,,,,,,,,,,,
,,,,,,,,,,,,,
,,,,,,,,,,,,,
,,,,,,,,,,,,,
,,,,,,,,,,,,,
,,,,,,,,,,,,,
,,,,,,,,,,,,,
,,,,,,,,,,,,,
,,,,,,,,,,,,,
,,,,,,,,,,,,,
,,,,,,,,,,,,,
,,,,,,,,,,,,,
,,,,,,,,,,,,,
,,,,,,,,,,,,,
,,,,,,,,,,,,,
,,,,,,,,,,,,,
,,,,,,,,,,,,,
,,,,,,,,,,,,,
,,,,,,,,,,,,,
,,,,,,,,,,,,,
,,,,,,,,,,,,,
,,,,,,,,,,,,,
,,,,,,,,,,,,,
,,,,,,,,,,,,,
,,,,,,,,,,,,,
,,,,,,,,,,,,,
,,,,,,,,,,,,,
,,,,,,,,,,,,,
,,,,,,,,,,,,,
,,,,,,,,,,,,,
,,,,,,,,,,,,,
,,,,,,,,,,,,,
,,,,,,,,,,,,,
,,,,,,,,,,,,,
,,,,,,,,,,,,,
,,,,,,,,,,,,,
,,,,,,,,,,,,,
,,,,,,,,,,,,,
,,,,,,,,,,,,,
,,,,,,,,,,,,,
,,,,,,,,,,,,,
,,,,,,,,,,,,,
,,,,,,,,,,,,,
,,,,,,,,,,,,,
,,,,,,,,,,,,,
,,,,,,,,,,,,,
,,,,,,,,,,,,,
,,,,,,,,,,,,,
,,,,,,,,,,,,,
,,,,,,,,,,,,,
,,,,,,,,,,,,,
,,,,,,,,,,,,,
,,,,,,,,,,,,,
,,,,,,,,,,,,,
,,,,,,,,,,,,,
,,,,,,,,,,,,,
,,,,,,,,,,,,,
,,,,,,,,,,,,,
,,,,,,,,,,,,,
,,,,,,,,,,,,,
,,,,,,,,,,,,,
,,,,,,,,,,,,,
,,,,,,,,,,,,,
,,,,,,,,,,,,,
,,,,,,,,,,,,,
,,,,,,,,,,,,,
,,,,,,,,,,,,,
,,,,,,,,,,,,,
,,,,,,,,,,,,,
,,,,,,,,,,,,,
,,,,,,,,,,,,,
,,,,,,,,,,,,,
,,,,,,,,,,,,,
,,,,,,,,,,,,,
,,,,,,,,,,,,,
,,,,,,,,,,,,,
,,,,,,,,,,,,,
,,,,,,,,,,,,,
,,,,,,,,,,,,,
,,,,,,,,,,,,,
,,,,,,,,,,,,,
,,,,,,,,,,,,,
,,,,,,,,,,,,,
,,,,,,,,,,,,,
,,,,,,,,,,,,,
,,,,,,,,,,,,,
,,,,,,,,,,,,,
,,,,,,,,,,,,,
,,,,,,,,,,,,,
,,,,,,,,,,,,,
,,,,,,,,,,,,,
,,,,,,,,,,,,,
,,,,,,,,,,,,,
,,,,,,,,,,,,,
,,,,,,,,,,,,,
,,,,,,,,,,,,,
,,,,,,,,,,,,,
,,,,,,,,,,,,,
,,,,,,,,,,,,,
,,,,,,,,,,,,,
,,,,,,,,,,,,,
,,,,,,,,,,,,,
,,,,,,,,,,,,,
,,,,,,,,,,,,,
,,,,,,,,,,,,,
,,,,,,,,,,,,,
,,,,,,,,,,,,,
,,,,,,,,,,,,,
,,,,,,,,,,,,,