Folder: fsri_materials_database/01_Data/MDF/Cone (part 2)

File: MDF_Cone_HF50Scan_210326_R3.csv
Names,Time,Stack TC,Smoke TC,Exh Press,Smoke Comp,Smoke Meas,CO Meter,CO2 Meter,O2 Meter,Sample Mass,Ext Coeff,Start Test,Flame Verif
Chan Gain,,500,500,1,1,1,1,1,1,1,1,1,1
Offset,,0,0,0.138348,0,0,0,0,0,0,0,0,0
Gain,,1,1,25.011,13.5067,16.616,1,1,1,1.00091,1.04608,1,1
Units,sec,C,C,Pa,%,%,%,%,%,g,/m,,
Baseline,,31.6303,33.8686,159.053,100.408,97.2257,-0.001018408,0.0636411,20.9277,0.000750681,0.29553,,
48,11.75,29.0031,31.4468,160.265,100.474,96.8191,-0.000902099,0.0684934,20.9232,623.908,0.340023,0,0
96,23.75,29.7038,31.7343,158.262,100.449,95.5748,-0.000686416,0.06528677,20.9257,623.688,0.456428,0,0
144,35.75,34.3673,41.0412,134.896,100.421,96.6878,0.001662421,0.326831,20.5697,622.527,0.347622,0,1
192,47.75,50.0852,63.9826,134.487,100.404,94.5814,0.003885166,0.672499,20.1872,620.024,0.548233,0,0
240,59.75,56.7853,73.8179,138.562,100.415,90.2814,0.005023807,0.673163,20.2066,617.562,0.976137,0,0
288,71.75,59.9747,76.8282,139.001,100.411,89.7094,0.005232363,0.6185,20.2793,615.25,1.03416,0,0
336,83.75,60.901,76.0947,137.909,100.421,89.0081,0.005037657,0.560911,20.3547,613.108,1.10704,0,0
384,95.75,60.9828,74.4257,141.264,100.438,91.2149,0.004550472,0.516496,20.4068,611.106,0.883887,0,0
432,107.75,60.2905,72.7162,142.547,100.465,92.0343,0.004234574,0.475465,20.4549,609.215,0.804268,0,0
480,119.75,58.9786,71.2748,140.284,100.495,92.7336,0.003628889,0.449568,20.4867,607.473,0.737523,0,0
528,131.75,58.7749,69.9982,141.699,100.532,93.9582,0.003238993,0.427835,20.5086,605.741,0.620565,0,0
576,143.75,57.9897,68.3016,137.492,100.548,95.1894,0.002849871,0.410318,20.5293,604.09,0.502573,0,0
624,155.75,58.4487,68.137,143.082,100.573,94.4333,0.002588945,0.4013969,20.5368,602.438,0.578003,0,0
672,167.75,58.4425,67.2636,139.083,100.537,94.9688,0.002604419,0.392644,20.5467,600.897,0.522845,0,0
720,179.75,57.907,66.6138,138.13,100.495,95.3937,0.002260145,0.388494,20.5486,599.316,0.478041,0,0
768,191.75,57.8017,66.4443,140.232,100.452,95.66,0.002527948,0.383069,20.5526,597.704,0.448554,0,0
816,203.75,58.1908,66.8675,144.221,100.408,95.8263,0.002074182,0.384559,20.5509,596.093,0.428546,0,0
864,215.75,58.1289,66.4505,148.524,100.361,96.0453,0.001893487,0.369839,20.5698,594.521,0.403335,0,0
912,227.75,58.2435,66.0644,142.315,100.352,96.2832,0.001379142,0.355611,20.5848,592.97,0.379775,0,0
960,239.75,57.8805,65.2444,139.756,100.34,96.7056,0.001344333,0.349985,20.5884,591.458,0.338553,0,0
1008,251.75,57.7034,65.0429,144.269,100.333,97.7867,0.001105506,0.342628,20.6034,589.957,0.235861,0,0
1056,263.75,57.0076,64.7485,140.387,100.329,97.6345,0.001269229,0.336808,20.6085,588.566,0.249808,0,0
1104,275.75,57.0189,64.2458,141.077,100.334,97.13,0.000793886,0.332435,20.6129,587.164,0.297765,0,0
1152,287.75,56.801,63.8934,141.967,100.344,97.8734,0.000721348,0.32731,20.6175,585.763,0.228746,0,0
1200,299.75,56.5469,63.5798,143.9,100.352,97.3257,0.000476115,0.322153,20.6208,584.392,0.280988,0,0
1248,311.75,56.1746,63.7125,144.192,100.381,97.6147,0.001011211,0.315182,20.6297,583.091,0.256378,0,0
1296,323.75,56.6113,62.4363,145.969,100.416,97.9337,0.000500887,0.307933,20.6388,581.84,0.229722,0,0
1344,335.75,54.9044,62.1144,147.41,100.446,99.1887,0.000457718,0.302391,20.6445,580.548,0.115589,0,0
1392,347.75,55.5617,61.4953,150.012,100.488,98.5944,0.000339557,0.296234,20.6518,579.327,0.174573,0,0
1440,359.75,55.2335,60.4651,144.526,100.567,98.2663,0.000608558,0.292073,20.6551,578.106,0.212383,0,0
1488,371.75,54.6398,61.1186,145.469,100.625,98.7795,0.000130766,0.286916,20.6644,576.965,0.169851,0,0
1536,383.75,54.1029,59.8862,147.529,100.67,98.5914,-0.000117628,0.281491,20.6675,575.814,0.19144,0,0
1584,395.75,54.3442,59.1587,146.142,100.754,98.9403,-8.49552E-06,0.279122,20.6706,574.693,0.166727,0,0
1632,407.75,53.7455,59.081,148.993,100.852,98.5336,0.000178664,0.272727,20.6785,573.612,0.213452,0,0
1680,419.75,53.6646,58.3263,147.578,100.991,99.1324,0.00030646,0.270415,20.6833,572.491,0.170443,0,0
1728,431.75,53.6699,58.4346,146.937,101.115,99.3738,4.21604E-05,0.267437,20.6854,571.45,0.159357,0,0
1776,443.75,52.8965,57.8885,145.599,101.222,100.258,0.000102072,0.263653,20.6908,570.439,0.0878248,0,0
1824,455.75,52.6243,58.0588,147.645,101.205,98.9154,-7.18042E-05,0.264731,20.6929,569.358,0.2099711,0,0
1872,467.75,52.0113,57.6317,147.414,101.254,99.5178,-8.3095E-05,0.26278,20.6964,568.357,0.158666,0,0
1920,479.75,52.265,57.6005,147.052,101.316,99.1542,-0.000115755,0.260694,20.6958,567.296,0.197927,0,0
1968,491.75,51.7346,57.2116,142.596,101.365,100.071,-5.10523E-05,0.260964,20.6957,566.296,0.117914,0,0
2016,503.75,51.8429,57.0014,149.656,101.4,100.449,-0.000130947,0.260956,20.7,565.285,0.0864726,0,0
2064,515.75,52.0701,56.7537,143.126,101.438,99.4037,4.75168E-05,0.261461,20.6986,564.324,0.185911,0,0
2112,527.75,52.4334,57.4006,144.974,101.496,99.6923,-0.000105991,0.263969,20.6935,563.293,0.164496,0,0
2160,539.75,51.8512,56.7891,143.245,101.531,99.6826,0.000192628,0.265719,20.6925,562.252,0.16855,0,0
2208,551.75,52.3326,57.206,151.94,101.532,99.8586,-0.000171398,0.268233,20.6879,561.231,0.152516,0,0
2256,563.75,51.983,57.3245,148.622,101.559,99.2425,3.1136E-05,0.272844,20.6826,560.26,0.211765,0,0
2304,575.75,52.6028,56.8555,146.399,101.573,100.975,0.000104951,0.274213,20.6835,559.139,0.05417816,0,0
2352,587.75,52.271,57.3747,146.388,101.585,99.245,0.000678953,0.280461,20.6798,558.098,0.213801,0,0
2400,599.75,52.654,57.9363,146.555,101.609,98.9179,0.000106909,0.288521,20.6691,557.037,0.246325,0,0
2448,611.75,52.9095,58.5474,143.226,101.62,99.606,0.000596843,0.294184,20.663,555.876,0.183646,0,0
2496,623.75,53.3423,58.9187,148.892,101.622,98.1735,0.000490517,0.301537,20.6507,554.755,0.316758,0,0
2544,635.75,53.7941,59.5914,145.897,101.638,98.2025,0.000954844,0.311879,20.6384,553.624,0.315544,0,0
2592,647.75,53.8759,60.1143,140.488,101.66,97.8997,0.000916124,0.320392,20.6309,552.373,0.345884,0,0
2640,659.75,54.5866,61.3331,149.057,101.677,97.5711,0.001235193,0.331909,20.6168,551.162,0.378223,0,0
2688,671.75,55.023,61.996,144.59,101.662,97.0473,0.001536867,0.341178,20.6057,549.901,0.426278,0,0
2736,683.75,55.3367,62.81,142.864,101.649,96.1569,0.001316024,0.350264,20.5949,548.569,0.509669,0,0
2784,695.75,56.4645,63.7461,142.828,101.632,96.0088,0.001963964,0.360342,20.58,547.268,0.522284,0,0
2832,707.75,56.8647,64.5373,147.132,101.618,95.6828,0.001923436,0.372189,20.5648,545.867,0.552272,0,0
2880,719.75,57.0882,65.1758,150.495,101.612,95.4313,0.002133662,0.380104,20.555,544.446,0.575828,0,0
2928,731.75,58.4387,66.1155,147.037,101.627,94.3167,0.002299841,0.386733,20.5462,542.994,0.684968,0,0
2976,743.75,58.3087,66.3249,142.17,101.616,95.8445,0.002711255,0.39314,20.5366,541.523,0.536549,0,0
3024,755.75,58.5402,66.8597,142.044,101.62,94.6494,0.002767794,0.400703,20.5264,540.072,0.652029,0,0
3072,767.75,59.5574,67.6098,141.793,101.604,93.1758,0.003060058,0.408184,20.5148,538.53,0.794637,0,0
3120,779.75,60.7413,68.5339,144.795,101.564,93.3604,0.003422978,0.423928,20.494,536.959,0.772829,0,0
3168,791.75,60.8852,69.8044,142.212,101.525,92.8933,0.004218865,0.430621,20.4866,535.317,0.815307,0,0
3216,803.75,62.3417,69.924,141.951,101.475,91.2529,0.004021765,0.443291,20.4693,533.666,0.974286,0,0
3264,815.75,62.8212,71.3619,142.716,101.465,91.9948,0.004831502,0.451269,20.4585,531.974,0.899095,0,0
3312,827.75,63.5284,72.6295,136.414,101.444,92.8964,0.005759911,0.462592,20.4439,530.263,0.807664,0,0
3360,839.75,64.1057,73.2453,143.663,101.437,92.8893,0.005862508,0.468716,20.4331,528.581,0.807769,0,0
3408,851.75,64.968,74.6558,138.088,101.437,91.6069,0.005862878,0.477198,20.4214,526.79,0.935297,0,0
3456,863.75,65.9562,75.6192,137.822,101.416,90.6064,0.006049678,0.487574,20.4049,525.038,1.0342,0,0
3504,875.75,66.6934,76.6445,136.895,101.411,90.3757,0.006657899,0.488828,20.3996,523.296,1.05715,0,0
3552,887.75,66.6035,76.5678,139.031,101.392,90.2504,0.006596118,0.476557,20.4113,521.575,1.06819,0,0
3600,899.75,65.8946,74.9286,141.171,101.354,90.5131,0.004441121,0.441394,20.4546,520.083,1.03802,0,0
3648,911.75,64.6639,72.5309,141.991,101.281,93.3193,0.002340008,0.380329,20.5315,518.812,0.751283,0,0
3696,923.75,61.1999,67.2317,148.357,101.2,95.2741,0.001149462,0.281349,20.6453,517.941,0.553731,0,0
3744,935.75,58.1202,61.847,147.674,101.109,96.9251,0.000864057,0.213238,20.7228,517.451,0.387813,0,0
3792,947.75,54.5555,57.4933,151.811,101.035,98.8576,0.001098326,0.179822,20.7628,517.121,0.199888,0,0
3840,959.75,52.3829,54.2756,148.302,101.023,98.6887,0.001472149,0.165418,20.7815,516.81,0.214526,0,0
3888,971.75,50.4562,52.0159,152.617,101.031,99.0244,0.001521073,0.155504,20.7946,516.59,0.18404,0,0
3936,983.75,49.1181,50.8507,152.578,101.006,98.6629,0.001740052,0.150577,20.8017,516.32,0.215358,0,0
3984,995.75,47.3542,49.0371,159.092,100.995,98.6979,0.001858242,0.144499,20.811,516.13,0.211131,0,0
4032,1007.75,47.0397,47.8979,153.194,101.057,98.7998,0.002590242,0.140432,20.8162,515.94,0.207313,0,0
4080,1019.75,46.2283,47.0529,153.716,101.125,98.71,0.002895117,0.138096,20.8229,515.79,0.221752,0,0
4128,1031.75,45.1373,45.9523,146.807,101.219,98.4981,0.003258382,0.142877,20.817,515.619,0.250075,0,0
4176,1043.75,43.9976,45.6389,154.454,101.352,98.7455,0.003933792,0.151905,20.8037,515.389,0.239112,0,0
4224,1055.75,43.6926,44.559,147.831,101.445,98.9687,0.00395852,0.146426,20.8097,515.269,0.226796,0,0
4272,1067.75,42.1122,43.6377,152.384,101.526,99.0143,0.00407633,0.139369,20.7481,515.139,0.22987,0,0
4320,1079.75,41.7005,43.0258,159.122,101.566,98.7095,0.003987488,0.135771,20.1727,514.959,0.261732,0,0
4368,1091.75,40.8569,42.0538,154.355,101.596,98.6309,0.004113278,0.135737,20.7881,514.849,0.271797,0,0
4416,1103.75,40.9839,42.0393,159.075,101.62,98.5346,0.004257404,0.136032,20.794,514.608,0.282924,0,0
4464,1115.75,40.2197,42.0913,150.727,101.648,98.8961,0.004254242,0.136002,20.7931,514.488,0.251885,0,0
4512,1127.75,39.8968,42.3135,157.494,101.681,99.0716,0.004214373,0.136212,20.7917,514.358,0.238522,0,0
4560,1139.75,40.2491,41.7784,154.302,101.739,98.7283,0.004443037,0.136594,20.7937,514.228,0.275616,0,0
4608,1151.75,39.6687,41.1065,157.277,101.777,99.2333,0.004333057,0.136695,20.7928,514.068,0.232214,0,0
4656,1163.75,39.3757,40.8988,155.195,101.832,98.6654,0.004433928,0.136991,20.7946,513.918,0.28986,0,0
4704,1175.75,38.7163,41.0223,155.214,101.889,98.7166,,,,513.798,0.290259,0,0
4723,1180.5,38.7337,40.6211,157.266,101.888,98.8677,,,,513.728,0.276075,0,0

File: MDF_Cone_HF75Scalar_210325_R1.csv
LABORATORY,FSRI
TEST IDENT,MDF_HF75_1
OPERATOR,Morrissey
MATERIAL,3/4 in MDF
ORIENTATION,Horizontal
HEAT FLUX,75
SURF AREA,0.01
C FACTOR,0.0386052
SPEC HOLDER DIFF,-97.45
SPECIMEN MASS,143.59
SCAN TIME,0.25
O2 DELAY TIME,11
CO DELAY TIME,11
CO2 DELAY TIME,8
FLOW FACTOR,1
SCAN COUNT,6026
TIME TO IGN,16.25
END OF TEST SCAN,5546
END OF TEST TIME,1386.5
TEST STATUS,1
PRE TEST CMT,Test w/o retainer grid or frame

File: MDF_Cone_HF75Scalar_210325_R2.csv
LABORATORY,FSRI
TEST IDENT,MDF_HF75_2
OPERATOR,Morrissey
MATERIAL,3/4 in MDF
ORIENTATION,Horizontal
HEAT FLUX,75
SURF AREA,0.01
C FACTOR,0.0386052
SPEC HOLDER DIFF,-98.41
SPECIMEN MASS,141.07
SCAN TIME,0.25
O2 DELAY TIME,11
CO DELAY TIME,11
CO2 DELAY TIME,8
FLOW FACTOR,1
SCAN COUNT,4959
TIME TO IGN,13.75
END OF TEST SCAN,4479
END OF TEST TIME,1119.75
TEST STATUS,1
PRE TEST CMT,"Nominal thickness: 3/4 inches"
POST TEST CMT,Sample foil pan was manually adjusted several times in response to popping and fragmenting of the sample that caused some small pieces of material to fall.

File: MDF_Cone_HF75Scan_210325_R1.csv
Names,Time,Stack TC,Smoke TC,Exh Press,Smoke Comp,Smoke Meas,CO Meter,CO2 Meter,O2 Meter,Sample Mass,Ext Coeff,Start Test,Flame Verif
Chan Gain,,500,500,1,1,1,1,1,1,1,1,1,1
Offset,,0,0,0.138348,0,0,0,0,0,0,0,0,0
Gain,,1,1,25.011,13.5067,16.616,1,1,1,1.00091,1.04608,1,1
Units,sec,C,C,Pa,%,%,%,%,%,g,/m,,
Baseline,,30.8264,34.6272,160.947,101.447,101.358,0.000472199,0.08382488,20.8489,-1.15146,0.008094464,,
61,15,31.4721,35.9808,161.016,101.636,98.5534,0.000504719,0.093607,20.8302,611.246,0.282666,0,0
122,30.25,54.5496,73.9508,134.187,101.669,93.2676,0.006693294,0.637084,19.9555,607.803,0.791481,0,0
183,45.5,67.5276,91.5875,130.939,101.665,88.0502,0.009511205,0.846879,19.9314,603.81,1.3193,0,0
244,60.75,69.7464,92.156,141.001,101.643,90.9467,0.009237356,0.765525,20.0862,600.276,1.02037,0,0
305,76,69.0361,87.7712,139.008,101.552,91.3422,0.007929238,0.662046,20.2032,597.184,0.972321,0,0
366,91.25,67.8843,84.4197,143.772,101.407,95.1914,0.006822008,0.600062,20.2578,594.261,0.580438,0,0
427,106.5,67.5644,82.9519,141.309,101.155,95.0023,0.006175245,0.55102,20.3159,591.578,0.575872,0,0
488,121.75,67.2229,81.1489,143.169,100.9,96.9342,0.00569336,0.52468,20.3334,588.966,0.367963,0,0
549,137,67.7371,82.429,137.428,100.593,94.9648,0.00527875,0.51648,20.3366,586.374,0.528353,0,0
610,152.25,68.6861,81.7494,139.013,100.278,95.8314,0.005403274,0.510697,20.3357,583.801,0.416224,0,0
671,167.5,69.6168,82.3707,137.514,100.007,97.7354,0.004638422,0.502151,20.3564,581.099,0.210801,0,0
732,182.75,69.6102,82.4917,134.228,99.8138,97.3217,0.004390226,0.487249,20.3701,578.507,0.232015,0,0
793,198,69.7614,82.4184,143.37,99.7334,97.8784,0.004061569,0.485863,20.3739,575.944,0.172275,0,0
854,213.25,69.6326,80.9427,141.783,99.7268,97.7258,0.004049453,0.465875,20.391,573.542,0.185989,0,0
915,228.5,69.5795,80.7312,138.101,99.8789,97.777,0.003630113,0.454421,20.4061,571.25,0.195166,0,0
976,243.75,69.652,80.0071,137.665,100.059,97.671,0.003894142,0.439716,20.4229,568.988,0.22165,0,0
1037,259,68.5221,78.8496,141.152,100.266,99.0838,0.003475809,0.4287844,20.4288,566.926,0.108872,0,0
1098,274.25,68.4188,78.9721,136.492,100.565,99.0559,0.003279987,0.41433,20.4489,564.794,0.138725,0,0
1159,289.5,67.9533,77.5903,144.076,100.821,100.554,0.002778738,0.403943,20.4652,562.822,0.0242848,0,0
1220,304.75,67.426,76.5354,144.611,100.98,100.542,0.002133919,0.391615,20.4791,560.901,0.0399107,0,0
1281,320,67.0212,76.1676,144.147,101.059,101.01,0.002303513,0.382048,20.4874,558.999,0.004445539,0,0
1342,335.25,66.7539,74.6834,143.896,101.085,101.128,0.002460291,0.375491,20.4939,557.217,-0.00396945,0,0
1403,350.5,66.4352,74.4559,148.442,100.982,101.102,0.002294041,0.369052,20.5019,555.416,-0.0108615,0,0
1464,365.75,65.7077,73.4183,142.706,100.8,101.193,0.002033343,0.363531,20.5133,553.734,-0.0357118,0,0
1525,381,64.9234,73.3931,142.982,100.598,101.112,0.001915874,0.359085,20.5188,552.033,-0.046757,0,0
1586,396.25,64.7752,72.4121,145.638,100.509,100.745,0.002079697,0.355736,20.5228,550.351,-0.0215868,0,0
1647,411.5,65.5108,72.9211,142.571,100.989,101.552,0.002208091,0.356693,20.5226,548.599,-0.0510019,0,0
1708,426.75,64.6806,72.6549,151.687,101.389,100.977,0.002092922,0.357546,20.5201,546.908,0.0374076,0,0
1769,442,64.9811,73.3599,144.812,101.464,101.096,0.002218692,0.362802,20.5127,545.196,0.0333344,0,0
1830,457.25,65.5541,72.6813,141.808,101.328,100.876,0.002230718,0.370045,20.5048,543.515,0.0410597,0,0
1891,472.5,64.9584,73.3255,139.545,100.951,100.208,0.001983551,0.375753,20.4986,541.713,0.0677535,0,0
1952,487.75,65.7871,74.0593,137.446,101.167,99.964,0.002238799,0.384247,20.4877,539.901,0.109765,0,0
2013,503,66.6442,75.0651,147.539,101.363,99.9377,0.002793932,0.390087,20.4814,538.05,0.129964,0,0
2074,518.25,66.3884,74.8741,143.93,101.548,99.0457,0.002841555,0.396058,20.4731,536.238,0.228932,0,0
2135,533.5,66.3032,74.9957,140.58,101.728,99.3642,0.002877746,0.401016,20.4684,534.346,0.215776,0,0
2196,548.75,67.2205,76.0823,140.525,101.766,98.6309,0.00350556,0.405366,20.4622,532.455,0.28716,0,0
2257,564,67.3568,75.9062,138.93,101.658,98.5686,0.003184213,0.406522,20.4607,530.573,0.283147,0,0
2318,579.25,67.5262,75.9889,147.379,101.412,98.6299,0.003348065,0.407417,20.4616,528.721,0.255273,0,0
2379,594.5,67.6565,76.0912,146.167,101.054,98.7136,0.003311079,0.405948,20.4616,526.93,0.214986,0,0
2440,609.75,66.7975,75.881,140.535,100.635,97.4165,0.003504457,0.405,20.4622,525.068,0.298291,0,0
2501,625,67.6811,76.434,143.787,100.263,97.128,0.00335454,0.409078,20.4567,523.256,0.29147,0,0
2562,640.25,68.1204,76.9112,136.504,100.015,96.3552,0.003407762,0.416188,20.4484,521.425,0.342109,0,0
2623,655.5,67.9617,77.2644,144.363,99.9152,95.5707,0.004079126,0.421323,20.4368,519.573,0.407926,0,0
2684,670.75,68.7688,78.1942,143.779,99.9572,96.1179,0.00409066,0.42984,20.4229,517.681,0.359402,0,0
2745,686,69.5015,78.4941,142.643,100.076,94.6326,0.004557599,0.438975,20.413,515.759,0.513155,0,0
2806,701.25,70.0048,79.2657,138.793,100.294,94.4769,0.004903198,0.447205,20.3951,513.768,0.548271,0,0
2867,716.5,70.3654,80.0312,138.439,100.559,94.9526,0.005002466,0.45537,20.3902,511.806,0.52637,0,0
2928,731.75,71.1762,81.178,141.763,100.85,95.7335,0.00501798,0.470517,20.3625,509.824,0.477768,0,0
2989,747,71.3358,81.7382,138.982,101.072,94.8395,0.005263664,0.473361,20.3619,507.822,0.584013,0,0
3050,762.25,71.5983,81.3362,137.152,101.239,94.373,0.005046695,0.467196,20.3704,505.921,0.644443,0,0
3111,777.5,70.1528,79.135,140.773,101.249,96.8318,0.003651158,0.426037,20.4312,504.269,0.409323,0,0
3172,792.75,67.6406,74.7468,142.247,101.19,99.1248,0.002360921,0.352623,20.5293,503.138,0.189256,0,0
3233,808,63.3809,68.3193,148.602,101.043,101.972,0.001694277,0.25068,20.6482,502.517,-0.0839867,0,0
3294,823.25,59.5839,63.0884,150.292,100.851,102.241,0.001841236,0.192242,20.7032,502.217,-0.125615,0,0
3355,838.5,57.1862,60.0603,151.001,100.7,102.684,0.002152862,0.17468,20.7216,501.877,-0.178951,0,0
3416,853.75,55.2014,57.7426,150.985,100.679,101.691,0.002403504,0.165776,20.7338,501.627,-0.0917473,0,0
3477,869,54.3394,56.4957,151.385,101.109,102.073,0.002348798,0.161993,20.7351,501.386,-0.0871285,0,0
3538,884.25,53.526,55.7129,152.567,101.435,102.315,0.002602311,0.167391,20.7259,501.146,-0.0793414,0,0
3599,899.5,52.3446,54.3958,154.5,101.582,102.743,0.002947625,0.159197,20.7364,501.026,-0.104306,0,0
3660,914.75,51.5608,54.1336,152.487,101.584,103.053,0.003196513,0.164829,20.7273,500.736,-0.131748,0,0
3721,930,50.3708,53.3382,151.811,101.474,102.233,0.003569029,0.161884,20.7359,500.516,-0.06843,0,0
3782,945.25,49.5696,52.7214,153.552,101.213,102.19,0.003161718,0.15717,20.7397,500.285,-0.0881025,0,0
3843,960.5,49.4932,52.4282,153.126,101.122,102.51,0.003781054,0.157453,20.7399,500.115,-0.125097,0,0
3904,975.75,48.8136,51.9065,153.561,101.241,102.132,0.003592483,0.155833,20.7423,499.945,-0.0804526,0,0
3965,991,48.5678,51.6878,150.772,101.39,102.061,0.00386676,0.155263,20.7425,499.755,-0.0605486,0,0
4026,1006.25,47.9411,51.4108,153.797,101.58,102.547,0.004326021,0.160546,20.7362,499.545,-0.0869032,0,0
4087,1021.5,48.0399,51.6677,152.438,101.727,102.306,0.004213318,0.160419,20.7368,499.415,-0.0521239,0,0
4148,1036.75,47.9493,51.0927,152.648,101.847,102.43,0.004423863,0.16297,20.7353,499.224,-0.0523643,0,0
4209,1052,47.8579,51.1833,150.722,101.902,102.552,0.004611434,0.161456,20.7391,498.984,-0.0583587,0,0
4270,1067.25,47.8916,51.4296,153.005,101.901,102.961,0.00502709,0.162237,20.7394,498.864,-0.0950211,0,0
4331,1082.5,46.7711,50.4804,157.817,101.816,102.375,0.005257987,0.160535,20.7412,498.674,-0.0502347,0,0
4392,1097.75,46.2266,50.3735,149.92,101.732,102.671,0.005957732,0.156629,20.7461,498.524,-0.0842842,0,0
4453,1113,46.2259,49.7266,152.842,101.553,101.933,0.005959837,0.15201,20.749,498.294,-0.0342097,0,0
4514,1128.25,45.8351,49.8975,154.21,101.339,101.815,0.006285038,0.151329,20.7523,498.133,-0.0430097,0,0
4575,1143.5,45.4953,49.2226,150.656,101.126,101.797,0.006784587,0.150897,20.753,498.013,-0.0607171,0,0
4636,1158.75,45.6963,48.6464,155.996,100.954,101.484,0.006595829,0.150498,20.7528,497.803,-0.0480825,0,0
4697,1174,45.6532,49.0401,155.129,100.821,101.528,0.00661726,0.150732,20.7538,497.643,-0.06413345,0,0
4758,1189.25,44.9805,48.7481,157.211,100.7,101.366,0.00750655,0.150128,20.7544,497.473,-0.0605007,0,0
4819,1204.5,45.4229,48.8237,154.136,100.637,101.139,0.007218329,0.149863,20.7559,497.313,-0.0456988,0,0
4880,1219.75,45.1379,48.9968,154.642,100.457,101.162,0.008174793,0.149507,20.7545,497.133,-0.0642172,0,0
4941,1235,44.551,48.7948,153.652,100.338,100.651,0.008113008,0.154553,20.7429,497.012,-0.0285388,0,0
5002,1250.25,44.3686,48.5391,154.368,100.204,100.579,0.00830093,0.158719,20.7408,496.842,-0.0343156,0,0
5063,1265.5,44.3318,48.3839,153.349,100.17,100.827,0.008254225,0.15186,20.7542,496.712,-0.059959,0,0
5124,1280.75,44.5231,48.4341,155.076,100.115,100.848,0.009012396,0.153075,20.7525,496.522,-0.0669671,0,0
5185,1296,43.9289,48.348,155.508,100.104,100.731,0.008669248,0.148344,20.7577,496.332,-0.0572855,0,0
5246,1311.25,43.926,47.5055,158.673,100.078,100.585,0.009020936,0.146755,20.7613,496.182,-0.0463062,0,0
5307,1326.5,43.4373,47.8404,149.018,100.075,100.654,0.009313322,0.147225,20.7609,496.112,-0.0529359,0,0
5368,1341.75,43.8587,48.2649,154.784,100.078,100.425,0.009175635,0.148306,20.7619,495.881,-0.0318449,0,0
5429,1357,43.8093,47.5504,153.816,100.093,100.819,0.009550443,0.146757,20.761,495.691,-0.0663302,0,0
5490,1372.25,43.7182,48.1856,154.664,100.139,100.828,0.009443047,0.148809,20.7593,495.571,-0.0629681,0,0
5551,1387.5,43.48069,48.0644,155.743,100.158,100.5,0.009517537,0.149225,20.7574,495.361,-0.0312023,0,0
5612,1402.75,43.2028,47.467,154.699,100.187,100.751,0.009754076,0.14661,20.7604,495.251,-0.0515321,0,0
5673,1418,43.7473,47.5263,159.001,100.19,100.54,0.0100636,0.146574,20.7558,495.091,-0.0319898,0,0
5734,1433.25,43.2822,47.1233,149.656,100.218,100.787,0.009626052,0.146776,20.7565,494.921,-0.0519419,0,0
5795,1448.5,42.9386,47.0341,156.479,100.217,101.004,0.0100316,0.147005,20.7574,494.76,-0.0717472,0,0
5856,1463.75,43.0347,46.6098,154.377,100.24,100.787,0.009835996,0.145946,20.758,494.58,-0.0499801,0,0
5917,1479,42.9924,47.7276,158.2,100.298,101.361,0.0104436,0.145479,20.7589,494.46,-0.0967283,0,0
5978,1494.25,42.7283,47.2986,151.533,100.364,100.845,0.0109335,0.145222,20.7607,494.31,-0.0439378,0,0
6026,1506.25,42.6833,46.9529,155.1,100.433,100.865,,,,494.2,-0.0394072,0,0