Folder: fsri_materials_database/01_Data/MDF/HFM

Note: 01_Data/README.md
# Materials and Products Database
## 01_Data

Raw data generated from each apparatus are included here in plain-text format. The data is organized first by material, next by the short name of test apparatus used, and where applicable additional filtering by test settings.

### material.json

Each material directory contains a json file of the same name as the material. This file links the data stored in the repository as well as data and graphs produced by the accompanying scripts (__02_Scripts__) to the respective landing page for the material on the front-end website.

File: MDF_Density_Dry_210312_R2.csv
Length,20.48
Width,20.24
Thickness,1.91
Volume,0.000791724
Mass,555.32
Sample Density [kg/m3],701.406

File: MDF_Density_Dry_210312_R3.csv
Length,20.48
Width,20.24
Thickness,1.91
Volume,0.000791724
Mass,556.43
Sample Density [kg/m3],702.808

File: MDF_Density_Dry_R1.csv
,MDF_DRY_1
Length,20.48
Width,20.24
Thickness,1.91
Volume,0.000791724
Mass,555.5
Sample Density [kg/m3],701.633

File: MDF_Density_Wet_210302_R2.csv
Length,20.32
Width,20.4
Thickness,1.906
Volume,0.00079009
Mass,580.382
Sample Density [kg/m3],734.577

File: MDF_Density_Wet_R1.csv
,MDF_WET_1
Length,20.36
Width,20.24
Thickness,1.904
Volume,0.000784613
Mass,580.9
Sample Density [kg/m3],740.365

File: MDF_Density_Wet_R3.csv
,MDF_WET_3
Length,20.48
Width,20.24
Thickness,1.91
Volume,0.000791724
Mass,582.183
Sample Density [kg/m3],735.336