Folder: fsri_materials_database/01_Data/MDF/MCC (part 2)

File: MDF_MCC_30K_min_210308_R3.txt
Sample ID:	C:\MCC\MCC Cal\Test\MDF_30_3.txt
Sample Weight (mg):	5.97
Heating Rate (C/s):	0.5
Combustor Temp (C):	900
N2 Flow Rate (cc/min):	80
O2 Flow Rate (cc/min):	20
Calibration File:	C:\MCC\MCC Cal\Coeff1 JN10440_30_210304.txt.txt
T Correction Coefficients:	0	1.024463	0
Time Shift (s):	14
*
Time (s)	Temperature (C)	N2 flow rate (cc/min)	O2 flow rate (cc/min)	Flow Rate (cc/min)	Oxygen (%)	HRR (W/g)	Heating rate (C/s)
0.000	108.867	79.993	19.991	99.602	20.359	0.066	-0.026
7.500	108.826	79.993	19.991	99.607	20.358	0.138	0.007
15.000	108.828	79.993	19.992	99.634	20.353	0.371	0.009
22.501	108.811	79.995	19.991	99.671	20.355	0.311	-0.007
30.000	109.083	79.994	19.992	99.792	20.333	1.428	0.062
37.501	109.751	79.994	19.991	99.798	20.325	1.876	0.099
45.000	110.755	79.996	19.992	99.833	20.323	1.977	0.157
52.500	112.150	79.994	19.992	99.858	20.312	2.558	0.198
60.000	113.968	79.992	19.991	99.906	20.306	2.854	0.260
67.500	116.085	79.993	19.992	99.917	20.300	3.158	0.285
75.000	118.572	79.994	19.992	99.932	20.299	3.216	0.340
82.501	121.475	79.994	19.993	99.943	20.297	3.327	0.448
90.000	124.554	79.993	19.992	99.950	20.292	3.593	0.418
97.500	127.884	79.996	19.991	99.953	20.295	3.430	0.460
105.001	131.451	79.995	19.990	99.951	20.296	3.379	0.506
112.500	135.194	79.995	19.991	99.951	20.296	3.358	0.477
120.001	139.025	79.994	19.991	99.927	20.292	3.570	0.545
127.500	142.935	79.994	19.990	99.922	20.291	3.626	0.547
135.000	146.829	79.992	19.990	99.922	20.297	3.317	0.537
142.500	150.702	79.991	19.992	99.919	20.301	3.115	0.530
150.000	154.654	79.994	19.992	99.916	20.305	2.927	0.549
157.500	158.562	79.995	19.991	99.913	20.306	2.846	0.530
165.000	162.411	79.994	19.992	99.909	20.303	3.018	0.543
172.501	166.229	79.994	19.992	99.908	20.304	2.964	0.475
180.000	170.000	79.994	19.991	99.896	20.301	3.088	0.507
187.500	173.681	79.995	19.990	99.911	20.302	3.079	0.463
195.000	177.312	79.994	19.991	99.889	20.297	3.332	0.470
202.500	180.968	79.992	19.991	99.911	20.298	3.272	0.472
210.000	184.625	79.992	19.990	99.909	20.296	3.391	0.484
217.500	188.280	79.994	19.990	99.912	20.295	3.413	0.489
225.000	191.895	79.992	19.991	99.900	20.291	3.607	0.493
232.500	195.482	79.994	19.991	99.906	20.291	3.615	0.466
240.000	199.112	79.995	19.992	99.911	20.293	3.533	0.479
247.500	202.807	79.993	19.992	99.917	20.286	3.877	0.502
255.000	206.500	79.993	19.993	99.918	20.281	4.148	0.487
262.500	210.223	79.995	19.992	99.913	20.271	4.678	0.501
270.000	213.924	79.994	19.991	99.917	20.262	5.128	0.478
277.500	217.565	79.994	19.990	99.926	20.262	5.128	0.477
285.000	221.326	79.993	19.991	99.939	20.255	5.515	0.503
292.500	225.159	79.995	19.991	99.917	20.246	5.970	0.525
300.000	228.983	79.994	19.992	99.922	20.240	6.302	0.480
307.500	232.803	79.994	19.992	99.934	20.233	6.656	0.507
315.000	236.551	79.993	19.992	99.926	20.223	7.192	0.524
322.500	240.367	79.993	19.993	99.940	20.208	7.951	0.502
330.000	244.160	79.996	19.992	99.951	20.199	8.421	0.528
337.500	247.913	79.993	19.992	99.958	20.184	9.249	0.478
345.000	251.742	79.996	19.992	99.967	20.167	10.115	0.478
352.500	255.514	79.993	19.992	99.951	20.148	11.104	0.506
360.000	259.250	79.992	19.990	99.977	20.126	12.283	0.496
367.500	263.049	79.994	19.991	99.994	20.099	13.653	0.528
375.000	266.801	79.995	19.991	100.000	20.075	14.926	0.494
382.500	270.665	79.992	19.991	100.014	20.046	16.436	0.517
390.000	274.442	79.994	19.991	100.011	20.016	18.026	0.526
397.500	278.247	79.994	19.991	100.036	19.986	19.562	0.508
405.000	281.935	79.996	19.991	100.037	19.959	20.978	0.496
412.500	285.646	79.995	19.992	100.037	19.935	22.248	0.489
420.000	289.404	79.995	19.991	100.067	19.910	23.574	0.490
427.500	293.204	79.996	19.991	100.049	19.885	24.867	0.482
435.000	296.933	79.992	19.993	100.059	19.856	26.370	0.492
442.500	300.715	79.992	19.992	100.072	19.828	27.846	0.542
450.000	304.422	79.993	19.992	100.084	19.801	29.253	0.481
457.500	308.303	79.994	19.990	100.089	19.770	30.904	0.572
465.000	312.050	79.994	19.990	100.093	19.735	32.746	0.511
472.500	315.896	79.994	19.990	100.109	19.703	34.377	0.504
480.000	319.590	80.016	19.997	100.124	19.667	36.301	0.500
487.500	323.360	79.997	19.995	100.128	19.626	38.449	0.500
495.000	327.169	79.994	19.992	100.131	19.580	40.876	0.505
502.501	330.945	79.995	19.991	100.148	19.528	43.584	0.467
510.000	334.751	79.996	19.990	100.173	19.476	46.330	0.485
517.500	338.513	79.992	19.991	100.194	19.406	50.013	0.504
525.000	342.325	79.991	19.992	100.231	19.334	53.773	0.489
532.500	346.079	79.994	19.992	100.252	19.259	57.747	0.507
540.000	349.858	79.994	19.990	100.274	19.178	61.973	0.508
547.500	353.711	79.994	19.990	100.307	19.100	66.063	0.503
555.000	357.495	79.993	19.992	100.313	19.035	69.487	0.494
562.500	361.223	79.995	19.991	100.304	18.997	71.420	0.480
570.000	365.027	79.995	19.991	100.269	19.002	71.121	0.480
577.500	368.865	79.994	19.992	100.205	19.074	67.274	0.549
585.000	372.727	79.995	19.992	100.100	19.228	59.164	0.568
592.500	376.552	79.995	19.992	99.998	19.453	47.372	0.489
600.000	380.374	79.993	19.992	99.917	19.699	34.526	0.516
607.500	384.259	79.993	19.992	99.885	19.915	23.249	0.519
615.000	388.103	79.991	19.992	99.893	20.053	16.041	0.476
622.500	391.976	79.993	19.992	99.896	20.119	12.596	0.506
630.000	395.888	79.992	19.991	99.901	20.151	10.917	0.543
637.500	399.669	79.993	19.991	99.892	20.170	9.954	0.492
645.000	403.487	79.995	19.992	99.894	20.182	9.329	0.510
652.501	407.271	79.994	19.991	99.891	20.194	8.678	0.510
660.001	411.096	79.994	19.991	99.885	20.202	8.278	0.541
667.500	414.839	79.995	19.992	99.875	20.203	8.209	0.485
675.000	418.647	79.996	19.992	99.896	20.209	7.887	0.524
682.500	422.319	79.994	19.992	99.874	20.218	7.452	0.488
690.000	426.077	79.994	19.992	99.876	20.217	7.492	0.492
697.500	429.791	79.993	19.993	99.876	20.223	7.196	0.474
705.000	433.619	79.994	19.992	99.880	20.233	6.652	0.542
712.500	437.369	79.992	19.991	99.877	20.240	6.294	0.495
720.000	441.208	79.992	19.991	99.881	20.242	6.168	0.515
727.501	445.026	79.995	19.991	99.874	20.246	5.958	0.499
735.000	448.846	79.994	19.991	99.873	20.253	5.628	0.485
742.500	452.685	79.994	19.991	99.872	20.255	5.485	0.540
750.000	456.582	79.998	19.992	99.875	20.264	5.018	0.536
757.500	460.408	79.995	19.992	99.864	20.266	4.925	0.542
765.000	464.251	79.993	19.993	99.872	20.263	5.067	0.505
772.500	468.111	79.994	19.991	99.874	20.269	4.789	0.534
780.000	471.906	79.992	19.993	99.877	20.278	4.331	0.516
787.500	475.798	79.994	19.992	99.873	20.282	4.092	0.540
795.000	479.594	79.994	19.992	99.860	20.283	4.069	0.494
802.500	483.376	79.994	19.991	99.876	20.284	3.993	0.477
810.000	487.166	79.995	19.991	99.873	20.286	3.881	0.491
817.500	490.974	79.996	19.991	99.874	20.284	3.983	0.512
825.000	494.829	79.996	19.991	99.876	20.292	3.577	0.508
832.500	498.588	79.997	19.990	99.874	20.295	3.415	0.482
840.000	502.538	79.994	19.991	99.875	20.295	3.407	0.503
847.500	506.375	79.994	19.992	99.876	20.298	3.263	0.505
855.000	510.172	79.995	19.992	99.867	20.303	3.005	0.513
862.500	514.058	79.995	19.992	99.865	20.306	2.868	0.568
870.000	517.966	79.994	19.993	99.851	20.304	2.977	0.466
877.500	521.856	79.994	19.991	99.858	20.307	2.794	0.502
885.000	525.735	79.996	19.991	99.861	20.310	2.648	0.530
892.500	529.586	79.995	19.991	99.857	20.311	2.591	0.501
900.000	533.430	79.995	19.991	99.847	20.316	2.309	0.486
907.500	537.306	79.996	19.991	99.866	20.317	2.289	0.503
915.000	541.152	79.999	19.991	99.840	20.317	2.255	0.546
922.500	544.937	79.996	19.991	99.851	20.320	2.123	0.502
930.000	548.679	79.993	19.991	99.852	20.317	2.290	0.488
937.500	552.477	79.993	19.992	99.849	20.321	2.052	0.502
945.000	556.332	79.994	19.992	99.856	20.324	1.899	0.523
952.500	560.102	79.994	19.992	99.866	20.325	1.872	0.502
960.000	563.904	79.993	19.992	99.839	20.325	1.857	0.459
967.501	567.678	79.997	19.992	99.862	20.327	1.763	0.507
975.000	571.538	79.995	19.991	99.845	20.330	1.606	0.535
982.500	575.437	79.995	19.990	99.863	20.328	1.723	0.491
990.000	579.343	79.996	19.991	99.848	20.333	1.462	0.527
997.500	583.151	79.997	19.991	99.849	20.339	1.143	0.565
1005.000	586.938	79.995	19.991	99.851	20.333	1.446	0.475
1012.500	591.295	79.995	19.991	99.853	20.334	1.369	0.888
1020.000	594.638	79.994	19.992	99.847	20.337	1.223	0.447
1027.500	598.566	79.994	19.992	99.857	20.340	1.066	0.469
1035.000	602.471	79.993	19.992	99.845	20.339	1.122	0.536
1042.500	606.439	79.995	19.992	99.846	20.337	1.233	0.520
1050.001	610.392	79.996	19.991	99.843	20.340	1.090	0.550
1057.501	614.318	79.995	19.991	99.852	20.344	0.870	0.533
1065.000	618.229	79.996	19.991	99.845	20.344	0.849	0.516
1072.500	622.108	79.999	19.991	99.845	20.347	0.724	0.513
1080.000	626.014	79.995	19.991	99.839	20.346	0.744	0.529
1087.500	629.879	79.995	19.993	99.845	20.345	0.833	0.525
1095.000	633.701	79.995	19.991	99.842	20.345	0.800	0.517
1102.500	637.577	79.994	19.990	99.849	20.343	0.917	0.502
1110.001	641.417	79.993	19.993	99.847	20.346	0.740	0.537
1117.500	645.186	79.994	19.992	99.841	20.347	0.690	0.494
1125.000	649.107	79.995	19.993	99.842	20.352	0.443	0.535
1132.500	652.943	79.995	19.992	99.833	20.351	0.491	0.528
1140.001	656.769	79.995	19.992	99.855	20.347	0.723	0.458
1147.500	660.615	79.996	19.991	99.846	20.350	0.556	0.558
1155.001	664.397	79.997	19.991	99.853	20.346	0.750	0.545
1162.500	668.215	79.992	19.992	99.844	20.352	0.433	0.516
1170.000	672.030	79.993	19.991	99.837	20.356	0.256	0.531
1177.501	675.914	79.993	19.991	99.838	20.354	0.367	0.471
1185.000	679.677	79.995	19.990	99.846	20.356	0.260	0.467
1192.500	683.606	79.993	19.992	99.848	20.361	-0.024	0.552
1200.000	687.398	79.993	19.992	99.840	20.358	0.143	0.482
1207.501	691.211	79.996	19.991	99.847	20.361	-0.037	0.523
1215.001	695.016	79.994	19.992	99.839	20.358	0.109	0.477
1222.501	698.846	79.994	19.993	99.843	20.358	0.144	0.485
1230.000	702.650	79.995	19.992	99.845	20.357	0.209	0.512
1237.501	706.424	79.997	19.991	99.835	20.359	0.083	0.500
1245.001	710.177	79.993	19.991	99.835	20.362	-0.090	0.472
1252.500	714.035	79.994	19.991	99.838	20.366	-0.289	0.522
1260.001	717.929	79.995	19.991	99.834	20.364	-0.177	0.500
1267.501	721.840	79.994	19.990	99.837	20.365	-0.239	0.541
1275.000	725.670	79.993	19.992	99.843	20.365	-0.256	0.539
1282.500	729.560	79.993	19.992	99.832	20.364	-0.200	0.524
1290.001	733.400	79.994	19.992	99.839	20.367	-0.347	0.524
1297.500	737.037	79.995	19.992	99.839	20.368	-0.374	0.518
1305.000	740.729	79.996	19.992	99.839	20.367	-0.314	0.507
1311.000	743.676	79.996	19.992	99.852	20.369	-0.433	0.491

File: MDF_MCC_CorrectedDataDF.csv
Temperature (C),R1,R2,R3
150.00,0.00,0.00,0.00
152.00,-0.27,-0.09,-0.07
154.00,-0.41,0.02,-0.22
156.00,-0.43,0.13,-0.39
158.00,-0.63,-0.07,-0.35
160.00,-0.56,-0.03,-0.24
162.00,-0.59,0.18,-0.03
164.00,-0.40,0.00,-0.20
166.00,-0.07,-0.35,-0.18
168.00,-0.09,0.01,0.05
170.00,-0.34,-0.04,-0.01
172.00,-0.47,0.12,0.00
174.00,-0.54,0.10,0.28
176.00,0.12,-0.01,0.30
178.00,-0.22,0.10,0.30
180.00,-0.23,-0.00,0.32
182.00,-0.27,0.16,0.25
184.00,-0.19,0.04,0.42
186.00,-0.10,0.33,0.59
188.00,0.02,0.08,0.55
190.00,-0.23,0.50,0.74
192.00,0.06,0.63,0.78
194.00,0.03,0.52,0.94
196.00,-0.07,0.69,0.87
198.00,0.03,0.89,0.98
200.00,0.50,1.28,0.88
202.00,0.60,1.04,1.13
204.00,0.53,1.17,1.35
206.00,0.44,1.41,1.76
208.00,0.72,1.37,1.98
210.00,1.05,1.72,2.38
212.00,1.34,1.95,2.73
214.00,1.47,2.13,2.92
216.00,1.57,2.14,2.97
218.00,1.48,2.10,3.00
220.00,1.91,2.53,3.19
222.00,2.67,2.64,3.48
224.00,2.74,2.71,3.76
226.00,2.87,3.08,4.00
228.00,3.15,3.12,4.33
230.00,3.12,3.35,4.64
232.00,3.79,3.82,4.82
234.00,3.95,4.03,5.15
236.00,4.51,5.06,5.66
238.00,4.53,4.96,5.83
240.00,5.13,5.70,6.47
242.00,5.46,5.99,7.11
244.00,5.69,6.66,7.24
246.00,6.34,6.89,7.89
248.00,6.36,7.30,8.32
250.00,6.96,7.92,8.92
252.00,7.19,8.59,9.50
254.00,7.77,9.08,10.41
256.00,8.93,9.62,10.77
258.00,9.64,10.46,11.51
260.00,10.22,11.32,12.43
262.00,11.03,11.77,13.38
264.00,12.28,12.93,14.20
266.00,12.71,13.86,15.34
268.00,14.22,14.78,16.18
270.00,14.96,15.77,16.98
272.00,16.02,16.70,18.04
274.00,16.82,17.86,19.25
276.00,17.96,18.69,20.39
278.00,18.74,19.77,21.32
280.00,19.81,21.05,22.29
282.00,20.49,21.82,23.23
284.00,21.83,22.77,24.03
286.00,22.24,23.66,24.87
288.00,23.19,24.54,25.67
290.00,24.00,25.41,26.56
292.00,24.99,26.37,27.72
294.00,25.96,27.25,28.46
296.00,27.26,28.00,29.73
298.00,27.56,28.91,30.57
300.00,28.48,29.70,31.70
302.00,29.74,30.87,32.46
304.00,30.79,31.98,33.52
306.00,31.60,33.04,34.75
308.00,32.93,33.75,35.62
310.00,34.08,35.35,36.67
312.00,35.04,36.28,38.04
314.00,36.47,37.28,39.22
316.00,37.82,38.49,40.33
318.00,38.85,39.57,41.58
320.00,40.09,40.90,42.88
322.00,41.46,42.51,44.43
324.00,42.49,44.40,45.90
326.00,43.87,45.97,47.42
328.00,45.49,47.33,49.27
330.00,46.78,48.89,50.90
332.00,48.50,50.66,52.85
334.00,50.47,52.71,54.39
336.00,52.05,54.80,56.99
338.00,54.08,56.83,59.36
340.00,56.13,59.22,61.43
342.00,58.46,61.51,64.07
344.00,60.74,64.34,66.71
346.00,63.65,66.77,69.30
348.00,65.94,69.86,72.15
350.00,68.63,72.52,75.07
352.00,71.54,75.51,77.77
354.00,74.36,78.10,80.54
356.00,77.38,80.82,83.04
358.00,79.99,83.12,84.59
360.00,82.47,84.47,86.35
362.00,84.47,85.92,86.95
364.00,85.84,86.70,86.93
366.00,86.69,86.25,85.53
368.00,86.21,84.43,83.23
370.00,84.96,81.11,79.14
372.00,82.26,76.16,73.52
374.00,77.69,69.66,66.56
376.00,71.53,62.69,59.48
378.00,64.09,54.60,50.88
380.00,55.50,45.63,42.41
382.00,45.99,37.09,34.24
384.00,38.35,29.23,27.24
386.00,30.14,22.93,22.27
388.00,23.09,17.94,18.00
390.00,18.31,14.83,15.29
392.00,14.99,12.25,13.37
394.00,12.61,10.72,12.30
396.00,10.97,9.81,11.26
398.00,10.03,9.02,10.77
400.00,9.29,8.37,10.16
402.00,8.75,7.84,9.54
404.00,8.97,7.80,9.15
406.00,8.18,7.68,8.80
408.00,7.84,7.42,8.61
410.00,7.17,7.52,8.47
412.00,7.54,6.81,8.05
414.00,6.98,7.28,8.03
416.00,7.21,7.00,7.93
418.00,7.13,6.84,7.90
420.00,7.02,6.73,7.72
422.00,6.71,6.30,7.51
424.00,6.56,6.34,7.36
426.00,6.27,5.91,7.36
428.00,6.48,5.87,7.13
430.00,5.82,5.71,7.13
432.00,5.14,5.77,6.64
434.00,5.00,5.76,6.40
436.00,4.61,5.34,6.13
438.00,4.71,5.31,5.91
440.00,4.84,5.36,5.92
442.00,4.46,4.85,5.71
444.00,4.05,4.71,5.62
446.00,4.39,4.47,5.60
448.00,3.76,4.22,5.33
450.00,3.71,4.11,5.18
452.00,4.06,3.93,5.30
454.00,3.73,3.86,5.02
456.00,3.46,3.73,4.87
458.00,3.26,3.52,4.80
460.00,3.47,3.28,4.42
462.00,3.51,3.44,4.47
464.00,3.31,3.09,4.44
466.00,3.38,2.97,4.18
468.00,3.04,3.00,4.23
470.00,3.28,3.06,4.00
472.00,2.69,3.30,3.69
474.00,2.80,2.95,3.58
476.00,2.45,2.93,3.53
478.00,2.80,2.78,3.48
480.00,2.62,2.52,3.55
482.00,2.20,2.31,3.52
484.00,2.01,2.24,3.55
486.00,2.29,2.43,3.33
488.00,2.04,2.27,3.30
490.00,2.18,2.29,3.23
492.00,1.78,2.32,3.46
494.00,1.33,2.47,3.27
496.00,1.59,1.90,2.78
498.00,1.27,1.98,2.84
500.00,1.48,1.85,2.68
502.00,1.07,1.84,2.77
504.00,0.95,1.74,2.69
506.00,0.79,1.84,2.72
508.00,1.04,1.93,2.50
510.00,0.81,1.65,2.20
512.00,1.26,1.68,2.23
514.00,1.09,1.56,2.11
516.00,0.61,1.66,2.42
518.00,0.90,1.50,2.29
520.00,1.21,1.44,2.08
522.00,0.98,1.21,2.23
524.00,0.37,1.15,2.27
526.00,0.68,1.07,2.00
528.00,0.96,1.12,2.02
530.00,0.62,1.40,1.91
532.00,0.78,1.44,2.06
534.00,0.51,1.13,1.68
536.00,0.66,1.29,1.67
538.00,0.91,1.07,1.66
540.00,0.58,1.25,1.78
542.00,0.29,1.13,1.78
544.00,0.53,1.01,1.69
546.00,0.30,1.20,1.74
548.00,0.29,0.99,1.73
550.00,-0.25,0.92,1.66
552.00,0.10,1.30,1.66
554.00,-0.08,0.99,1.45
556.00,-0.24,1.27,1.53
558.00,-0.07,1.11,1.29
560.00,-0.11,0.99,1.24
562.00,-0.25,0.62,1.30
564.00,-0.01,0.77,1.37
566.00,-0.10,0.46,1.42
568.00,-0.26,0.66,1.27
570.00,-0.29,0.81,1.22
572.00,0.04,0.53,1.20
574.00,-0.31,0.67,1.29
576.00,-0.23,0.45,1.06
578.00,-0.40,0.38,0.96
580.00,-0.37,0.22,1.25
582.00,-0.76,0.23,0.84
584.00,-0.44,0.29,0.12
586.00,-0.56,0.41,0.77
588.00,-0.46,0.42,0.96
590.00,-0.37,0.43,1.03
592.00,-0.29,0.26,0.92
594.00,-0.67,0.19,0.67
596.00,-0.53,0.45,0.81
598.00,-0.39,0.29,0.90
600.00,-0.50,0.50,0.74
602.00,-0.37,0.61,0.76
604.00,-0.43,0.40,0.72
606.00,-0.38,0.43,0.74
608.00,-0.37,0.17,0.95
610.00,-0.23,-0.19,0.80
612.00,-0.34,-0.20,0.59
614.00,-0.16,-0.05,0.61
616.00,0.05,0.03,0.69
618.00,-0.30,-0.11,0.51
620.00,-0.48,-0.15,0.13
622.00,-0.40,-0.25,0.21
624.00,-0.54,-0.30,0.42
626.00,-0.40,-0.26,0.47
628.00,-0.13,-0.26,0.58
630.00,-0.17,-0.34,0.54
632.00,-0.22,-0.44,0.49
634.00,-0.40,-0.40,0.41
636.00,-0.42,0.07,0.52
638.00,-0.48,-0.23,0.46
640.00,-0.43,-0.25,0.49
642.00,-0.45,-0.16,0.36
644.00,-0.43,-0.20,0.40
646.00,-0.35,-0.01,0.21
648.00,-0.50,-0.17,0.34
650.00,-0.23,-0.18,0.44
652.00,-0.39,-0.01,0.31
654.00,-0.11,-0.26,0.47
656.00,-0.45,-0.20,0.39
658.00,-0.10,-0.15,0.27
660.00,-0.52,-0.11,0.54
662.00,-0.46,-0.07,0.43
664.00,-0.21,-0.16,0.66
666.00,-0.43,-0.24,0.44
668.00,-0.31,-0.26,0.31
670.00,-0.17,0.26,0.20
672.00,-0.16,0.09,0.17
674.00,-0.09,0.04,0.36
676.00,-0.18,-0.28,0.31
678.00,0.27,0.04,0.13
680.00,0.31,-0.11,0.12
682.00,0.08,-0.34,0.09
684.00,0.31,-0.14,0.01
686.00,-0.03,-0.16,0.08
688.00,0.13,-0.35,0.16
690.00,-0.01,-0.04,-0.04
692.00,0.09,-0.01,0.08
694.00,0.06,0.06,0.05
696.00,0.04,0.14,-0.01
698.00,0.02,0.18,0.40
700.00,0.00,0.00,-0.00

File: MDF_MCC_DataDF.csv
Temperature (C),HRR (W/g),HRR correction,R1,HRR (W/g),HRR correction,R2,HRR (W/g),HRR correction,R3
150.00,5.26,5.26,0.00,4.95,4.95,0.00,3.95,3.95,0.00
154.00,4.75,5.17,-0.41,4.97,4.95,0.02,3.70,3.92,-0.22
158.00,4.45,5.08,-0.63,4.88,4.95,-0.07,3.54,3.89,-0.35
162.00,4.40,5.00,-0.59,5.13,4.96,0.18,3.83,3.86,-0.03
166.00,4.84,4.91,-0.07,4.61,4.96,-0.35,3.65,3.83,-0.18
170.00,4.48,4.82,-0.34,4.92,4.96,-0.04,3.79,3.80,-0.01
174.00,4.20,4.74,-0.54,5.07,4.97,0.10,4.06,3.78,0.28
178.00,4.43,4.65,-0.22,5.07,4.97,0.10,4.05,3.75,0.30
182.00,4.29,4.56,-0.27,5.14,4.97,0.16,3.97,3.72,0.25
186.00,4.38,4.48,-0.10,5.31,4.98,0.33,4.28,3.69,0.59
190.00,4.16,4.39,-0.23,5.48,4.98,0.50,4.40,3.66,0.74
194.00,4.33,4.30,0.03,5.50,4.98,0.52,4.58,3.63,0.94
198.00,4.25,4.22,0.03,5.87,4.99,0.89,4.59,3.60,0.98
202.00,4.73,4.13,0.60,6.03,4.99,1.04,4.71,3.58,1.13
206.00,4.49,4.04,0.44,6.40,4.99,1.41,5.30,3.55,1.76
210.00,5.01,3.96,1.05,6.72,5.00,1.72,5.90,3.52,2.38
214.00,5.35,3.87,1.47,7.13,5.00,2.13,6.41,3.49,2.92
218.00,5.26,3.79,1.48,7.10,5.00,2.10,6.46,3.46,3.00
222.00,6.37,3.70,2.67,7.64,5.00,2.64,6.92,3.43,3.48
226.00,6.48,3.61,2.87,8.09,5.01,3.08,7.40,3.40,4.00
230.00,6.64,3.53,3.12,8.36,5.01,3.35,8.02,3.38,4.64
234.00,7.39,3.44,3.95,9.04,5.01,4.03,8.50,3.35,5.15
238.00,7.88,3.35,4.53,9.98,5.02,4.96,9.15,3.32,5.83
242.00,8.73,3.27,5.46,11.01,5.02,5.99,10.40,3.29,7.11
246.00,9.52,3.18,6.34,11.91,5.02,6.89,11.15,3.26,7.89
250.00,10.05,3.09,6.96,12.94,5.03,7.92,12.16,3.23,8.92
254.00,10.78,3.01,7.77,14.11,5.03,9.08,13.62,3.20,10.41
258.00,12.56,2.92,9.64,15.49,5.03,10.46,14.68,3.18,11.51
262.00,13.86,2.83,11.03,16.81,5.04,11.77,16.52,3.15,13.38
266.00,15.46,2.75,12.71,18.90,5.04,13.86,18.46,3.12,15.34
270.00,17.62,2.66,14.96,20.81,5.04,15.77,20.07,3.09,16.98
274.00,19.39,2.57,16.82,22.90,5.05,17.86,22.31,3.06,19.25
278.00,21.22,2.49,18.74,24.82,5.05,19.77,24.35,3.03,21.32
282.00,22.89,2.40,20.49,26.87,5.05,21.82,26.23,3.00,23.23
286.00,24.55,2.31,22.24,28.72,5.06,23.66,27.84,2.98,24.87
290.00,26.23,2.23,24.00,30.47,5.06,25.41,29.51,2.95,26.56
294.00,28.10,2.14,25.96,32.31,5.06,27.25,31.38,2.92,28.46
298.00,29.61,2.06,27.56,33.97,5.06,28.91,33.46,2.89,30.57
302.00,31.71,1.97,29.74,35.94,5.07,30.87,35.32,2.86,32.46
306.00,33.48,1.88,31.60,38.11,5.07,33.04,37.58,2.83,34.75
310.00,35.88,1.80,34.08,40.42,5.07,35.35,39.47,2.80,36.67
314.00,38.18,1.71,36.47,42.36,5.08,37.28,42.00,2.78,39.22
318.00,40.47,1.62,38.85,44.65,5.08,39.57,44.33,2.75,41.58
322.00,43.00,1.54,41.46,47.59,5.08,42.51,47.15,2.72,44.43
326.00,45.32,1.45,43.87,51.06,5.09,45.97,50.11,2.69,47.42
330.00,48.15,1.36,46.78,53.98,5.09,48.89,53.56,2.66,50.90
334.00,51.74,1.28,50.47,57.80,5.09,52.71,57.03,2.63,54.39
338.00,55.27,1.19,54.08,61.93,5.10,56.83,61.96,2.60,59.36
342.00,59.57,1.10,58.46,66.61,5.10,61.51,66.64,2.57,64.07
346.00,64.67,1.02,63.65,71.87,5.10,66.77,71.85,2.55,69.30
350.00,69.56,0.93,68.63,77.62,5.11,72.52,77.59,2.52,75.07
354.00,75.21,0.84,74.36,83.21,5.11,78.10,83.03,2.49,80.54
358.00,80.74,0.76,79.99,88.23,5.11,83.12,87.05,2.46,84.59
362.00,85.15,0.67,84.47,91.03,5.12,85.92,89.38,2.43,86.95
366.00,87.27,0.59,86.69,91.37,5.12,86.25,87.94,2.40,85.53
370.00,85.46,0.50,84.96,86.23,5.12,81.11,81.51,2.37,79.14
374.00,78.10,0.41,77.69,74.79,5.12,69.66,68.90,2.35,66.56
378.00,64.42,0.33,64.09,59.73,5.13,54.60,53.19,2.32,50.88
382.00,46.23,0.24,45.99,42.22,5.13,37.09,36.53,2.29,34.24
386.00,30.29,0.15,30.14,28.06,5.13,22.93,24.53,2.26,22.27
390.00,18.38,0.07,18.31,19.96,5.14,14.83,17.52,2.23,15.29
394.00,12.59,-0.02,12.61,15.86,5.14,10.72,14.50,2.20,12.30
398.00,9.93,-0.11,10.03,14.16,5.14,9.02,12.95,2.17,10.77
402.00,8.56,-0.19,8.75,12.99,5.15,7.84,11.69,2.15,9.54
406.00,7.90,-0.28,8.18,12.83,5.15,7.68,10.91,2.12,8.80
410.00,6.80,-0.37,7.17,12.67,5.15,7.52,10.56,2.09,8.47
414.00,6.53,-0.45,6.98,12.44,5.16,7.28,10.09,2.06,8.03
418.00,6.60,-0.54,7.13,12.00,5.16,6.84,9.93,2.03,7.90
422.00,6.08,-0.63,6.71,11.46,5.16,6.30,9.51,2.00,7.51
426.00,5.55,-0.71,6.27,11.08,5.17,5.91,9.33,1.97,7.36
430.00,5.02,-0.80,5.82,10.87,5.17,5.71,9.07,1.95,7.13
434.00,4.11,-0.89,5.00,10.94,5.17,5.76,8.31,1.92,6.40
438.00,3.74,-0.97,4.71,10.49,5.17,5.31,7.80,1.89,5.91
442.00,3.40,-1.06,4.46,10.03,5.18,4.85,7.56,1.86,5.71
446.00,3.25,-1.14,4.39,9.66,5.18,4.47,7.43,1.83,5.60
450.00,2.48,-1.23,3.71,9.29,5.18,4.11,6.98,1.80,5.18
454.00,2.41,-1.32,3.73,9.05,5.19,3.86,6.80,1.77,5.02
458.00,1.86,-1.40,3.26,8.71,5.19,3.52,6.54,1.75,4.80
462.00,2.02,-1.49,3.51,8.64,5.19,3.44,6.19,1.72,4.47
466.00,1.80,-1.58,3.38,8.17,5.20,2.97,5.87,1.69,4.18
470.00,1.61,-1.66,3.28,8.26,5.20,3.06,5.66,1.66,4.00
474.00,1.05,-1.75,2.80,8.16,5.20,2.95,5.21,1.63,3.58
478.00,0.97,-1.84,2.80,7.98,5.21,2.78,5.08,1.60,3.48
482.00,0.28,-1.92,2.20,7.52,5.21,2.31,5.10,1.57,3.52
486.00,0.29,-2.01,2.29,7.64,5.21,2.43,4.87,1.55,3.33
490.00,0.09,-2.10,2.18,7.51,5.22,2.29,4.75,1.52,3.23
494.00,-0.85,-2.18,1.33,7.69,5.22,2.47,4.76,1.49,3.27
498.00,-1.00,-2.27,1.27,7.21,5.22,1.98,4.30,1.46,2.84
502.00,-1.29,-2.36,1.07,7.07,5.23,1.84,4.20,1.43,2.77
506.00,-1.65,-2.44,0.79,7.07,5.23,1.84,4.12,1.40,2.72
510.00,-1.72,-2.53,0.81,6.88,5.23,1.65,3.58,1.37,2.20
514.00,-1.53,-2.61,1.09,6.80,5.23,1.56,3.46,1.35,2.11
518.00,-1.80,-2.70,0.90,6.74,5.24,1.50,3.61,1.32,2.29
522.00,-1.81,-2.79,0.98,6.45,5.24,1.21,3.51,1.29,2.23
526.00,-2.19,-2.87,0.68,6.31,5.24,1.07,3.26,1.26,2.00
530.00,-2.34,-2.96,0.62,6.65,5.25,1.40,3.14,1.23,1.91
534.00,-2.54,-3.05,0.51,6.39,5.25,1.13,2.88,1.20,1.68
538.00,-2.22,-3.13,0.91,6.33,5.25,1.07,2.84,1.17,1.66
542.00,-2.93,-3.22,0.29,6.39,5.26,1.13,2.92,1.14,1.78
546.00,-3.01,-3.31,0.30,6.46,5.26,1.20,2.86,1.12,1.74
550.00,-3.65,-3.39,-0.25,6.18,5.26,0.92,2.75,1.09,1.66
554.00,-3.56,-3.48,-0.08,6.26,5.27,0.99,2.51,1.06,1.45
558.00,-3.63,-3.57,-0.07,6.38,5.27,1.11,2.32,1.03,1.29
562.00,-3.90,-3.65,-0.25,5.89,5.27,0.62,2.30,1.00,1.30
566.00,-3.84,-3.74,-0.10,5.74,5.28,0.46,2.39,0.97,1.42
570.00,-4.11,-3.83,-0.29,6.09,5.28,0.81,2.16,0.94,1.22
574.00,-4.22,-3.91,-0.31,5.96,5.28,0.67,2.20,0.92,1.29
578.00,-4.40,-4.00,-0.40,5.66,5.29,0.38,1.85,0.89,0.96
582.00,-4.85,-4.09,-0.76,5.52,5.29,0.23,1.70,0.86,0.84
586.00,-4.73,-4.17,-0.56,5.70,5.29,0.41,1.60,0.83,0.77
590.00,-4.62,-4.26,-0.37,5.72,5.29,0.43,1.83,0.80,1.03
594.00,-5.01,-4.34,-0.67,5.49,5.30,0.19,1.44,0.77,0.67
598.00,-4.82,-4.43,-0.39,5.59,5.30,0.29,1.64,0.74,0.90
602.00,-4.89,-4.52,-0.37,5.91,5.30,0.61,1.47,0.72,0.76
606.00,-4.98,-4.60,-0.38,5.73,5.31,0.43,1.43,0.69,0.74
610.00,-4.92,-4.69,-0.23,5.12,5.31,-0.19,1.46,0.66,0.80
614.00,-4.94,-4.78,-0.16,5.27,5.31,-0.05,1.24,0.63,0.61
618.00,-5.16,-4.86,-0.30,5.21,5.32,-0.11,1.11,0.60,0.51
622.00,-5.35,-4.95,-0.40,5.07,5.32,-0.25,0.79,0.57,0.21
626.00,-5.43,-5.04,-0.40,5.06,5.32,-0.26,1.01,0.54,0.47
630.00,-5.30,-5.12,-0.17,4.99,5.33,-0.34,1.06,0.52,0.54
634.00,-5.61,-5.21,-0.40,4.93,5.33,-0.40,0.90,0.49,0.41
638.00,-5.78,-5.30,-0.48,5.11,5.33,-0.23,0.92,0.46,0.46
642.00,-5.83,-5.38,-0.45,5.17,5.34,-0.16,0.79,0.43,0.36
646.00,-5.82,-5.47,-0.35,5.33,5.34,-0.01,0.61,0.40,0.21
650.00,-5.78,-5.56,-0.23,5.16,5.34,-0.18,0.81,0.37,0.44
654.00,-5.75,-5.64,-0.11,5.08,5.35,-0.26,0.81,0.34,0.47
658.00,-5.82,-5.73,-0.10,5.19,5.35,-0.15,0.59,0.32,0.27
662.00,-6.27,-5.81,-0.46,5.29,5.35,-0.07,0.71,0.29,0.43
666.00,-6.33,-5.90,-0.43,5.12,5.35,-0.24,0.70,0.26,0.44
670.00,-6.16,-5.99,-0.17,5.61,5.36,0.26,0.43,0.23,0.20
674.00,-6.16,-6.07,-0.09,5.40,5.36,0.04,0.56,0.20,0.36
678.00,-5.89,-6.16,0.27,5.41,5.36,0.04,0.30,0.17,0.13
682.00,-6.16,-6.25,0.08,5.02,5.37,-0.34,0.23,0.14,0.09
686.00,-6.36,-6.33,-0.03,5.21,5.37,-0.16,0.20,0.12,0.08
690.00,-6.43,-6.42,-0.01,5.34,5.37,-0.04,0.04,0.09,-0.04
694.00,-6.45,-6.51,0.06,5.44,5.38,0.06,0.11,0.06,0.05
698.00,-6.57,-6.59,0.02,5.56,5.38,0.18,0.43,0.03,0.40
700.00,-6.64,-6.64,0.00,5.38,5.38,0.00,0.01,0.01,-0.00