Folder: fsri_materials_database/01_Data/MDF/MCC (part 3)

File: MDF_MCC_PlotDataDF.csv
Temperature (C),HRR_mean,HRR_std
150.00,0.00,0.00
152.00,-0.14,0.11
154.00,-0.21,0.22
156.00,-0.23,0.31
158.00,-0.35,0.28
160.00,-0.28,0.27
162.00,-0.15,0.40
164.00,-0.20,0.20
166.00,-0.20,0.14
168.00,-0.01,0.07
170.00,-0.13,0.18
172.00,-0.12,0.31
174.00,-0.05,0.43
176.00,0.14,0.15
178.00,0.06,0.26
180.00,0.03,0.28
182.00,0.05,0.28
184.00,0.09,0.31
186.00,0.27,0.35
188.00,0.21,0.29
190.00,0.34,0.51
192.00,0.49,0.38
194.00,0.50,0.46
196.00,0.50,0.50
198.00,0.63,0.52
200.00,0.89,0.39
202.00,0.93,0.28
204.00,1.02,0.43
206.00,1.20,0.68
208.00,1.36,0.63
210.00,1.72,0.67
212.00,2.00,0.70
214.00,2.17,0.72
216.00,2.23,0.71
218.00,2.19,0.76
220.00,2.54,0.64
222.00,2.93,0.48
224.00,3.07,0.60
226.00,3.31,0.60
228.00,3.53,0.69
230.00,3.70,0.82
232.00,4.14,0.59
234.00,4.38,0.67
236.00,5.08,0.57
238.00,5.11,0.66
240.00,5.77,0.67
242.00,6.19,0.84
244.00,6.53,0.78
246.00,7.04,0.78
248.00,7.33,0.98
250.00,7.93,0.98
252.00,8.43,1.16
254.00,9.09,1.32
256.00,9.77,0.93
258.00,10.54,0.93
260.00,11.32,1.10
262.00,12.06,1.20
264.00,13.13,0.98
266.00,13.97,1.32
268.00,15.06,1.01
270.00,15.90,1.02
272.00,16.92,1.03
274.00,17.98,1.22
276.00,19.01,1.24
278.00,19.94,1.30
280.00,21.05,1.24
282.00,21.85,1.37
284.00,22.88,1.10
286.00,23.59,1.32
288.00,24.47,1.24
290.00,25.33,1.28
292.00,26.36,1.37
294.00,27.23,1.25
296.00,28.33,1.27
298.00,29.01,1.51
300.00,29.96,1.63
302.00,31.02,1.36
304.00,32.10,1.37
306.00,33.13,1.58
308.00,34.10,1.38
310.00,35.36,1.29
312.00,36.45,1.51
314.00,37.66,1.41
316.00,38.88,1.30
318.00,40.00,1.41
320.00,41.29,1.44
322.00,42.80,1.50
324.00,44.26,1.71
326.00,45.76,1.79
328.00,47.37,1.89
330.00,48.86,2.06
332.00,50.67,2.17
334.00,52.52,1.97
336.00,54.62,2.47
338.00,56.76,2.64
340.00,58.93,2.66
342.00,61.35,2.81
344.00,63.93,3.01
346.00,66.57,2.83
348.00,69.32,3.14
350.00,72.07,3.24
352.00,74.94,3.15
354.00,77.67,3.11
356.00,80.41,2.85
358.00,82.57,2.35
360.00,84.43,1.94
362.00,85.78,1.25
364.00,86.49,0.57
366.00,86.16,0.58
368.00,84.63,1.50
370.00,81.74,2.96
372.00,77.31,4.48
374.00,71.30,5.74
376.00,64.57,6.24
378.00,56.52,6.82
380.00,47.85,6.82
382.00,39.11,6.13
384.00,31.60,5.92
386.00,25.11,4.37
388.00,19.68,2.96
390.00,16.14,1.89
392.00,13.54,1.38
394.00,11.88,1.01
396.00,10.68,0.77
398.00,9.94,0.88
400.00,9.27,0.89
402.00,8.71,0.85
404.00,8.64,0.73
406.00,8.22,0.56
408.00,7.96,0.60
410.00,7.72,0.67
412.00,7.47,0.63
414.00,7.43,0.54
416.00,7.38,0.49
418.00,7.29,0.55
420.00,7.15,0.51
422.00,6.84,0.61
424.00,6.75,0.54
426.00,6.51,0.75
428.00,6.50,0.63
430.00,6.22,0.79
432.00,5.85,0.75
434.00,5.72,0.70
436.00,5.36,0.76
438.00,5.31,0.60
440.00,5.37,0.54
442.00,5.01,0.64
444.00,4.80,0.79
446.00,4.82,0.68
448.00,4.44,0.81
450.00,4.33,0.76
452.00,4.43,0.76
454.00,4.20,0.71
456.00,4.02,0.75
458.00,3.86,0.82
460.00,3.72,0.61
462.00,3.81,0.58
464.00,3.61,0.72
466.00,3.51,0.62
468.00,3.42,0.70
470.00,3.44,0.49
472.00,3.23,0.50
474.00,3.11,0.41
476.00,2.97,0.54
478.00,3.02,0.40
480.00,2.90,0.57
482.00,2.68,0.73
484.00,2.60,0.83
486.00,2.68,0.56
488.00,2.54,0.67
490.00,2.57,0.58
492.00,2.52,0.86
494.00,2.36,0.98
496.00,2.09,0.62
498.00,2.03,0.79
500.00,2.01,0.61
502.00,1.89,0.85
504.00,1.79,0.87
506.00,1.78,0.96
508.00,1.82,0.74
510.00,1.56,0.70
512.00,1.72,0.49
514.00,1.59,0.51
516.00,1.56,0.91
518.00,1.56,0.70
520.00,1.57,0.45
522.00,1.47,0.66
524.00,1.26,0.96
526.00,1.25,0.68
528.00,1.37,0.57
530.00,1.31,0.65
532.00,1.43,0.64
534.00,1.11,0.59
536.00,1.20,0.51
538.00,1.22,0.40
540.00,1.21,0.61
542.00,1.07,0.74
544.00,1.08,0.58
546.00,1.08,0.73
548.00,1.01,0.72
550.00,0.78,0.97
552.00,1.02,0.81
554.00,0.79,0.79
556.00,0.85,0.95
558.00,0.78,0.74
560.00,0.70,0.72
562.00,0.56,0.77
564.00,0.71,0.69
566.00,0.59,0.77
568.00,0.56,0.77
570.00,0.58,0.78
572.00,0.59,0.58
574.00,0.55,0.81
576.00,0.43,0.65
578.00,0.31,0.68
580.00,0.37,0.82
582.00,0.10,0.81
584.00,-0.01,0.38
586.00,0.21,0.69
588.00,0.30,0.72
590.00,0.36,0.70
592.00,0.30,0.61
594.00,0.06,0.68
596.00,0.24,0.70
598.00,0.27,0.64
600.00,0.25,0.66
602.00,0.33,0.61
604.00,0.23,0.60
606.00,0.26,0.58
608.00,0.25,0.66
610.00,0.13,0.58
612.00,0.02,0.50
614.00,0.13,0.42
616.00,0.26,0.38
618.00,0.03,0.42
620.00,-0.17,0.31
622.00,-0.15,0.32
624.00,-0.14,0.50
626.00,-0.06,0.47
628.00,0.07,0.45
630.00,0.01,0.47
632.00,-0.06,0.49
634.00,-0.13,0.47
636.00,0.06,0.47
638.00,-0.08,0.49
640.00,-0.06,0.49
642.00,-0.08,0.41
644.00,-0.08,0.43
646.00,-0.05,0.28
648.00,-0.11,0.42
650.00,0.01,0.37
652.00,-0.03,0.35
654.00,0.03,0.38
656.00,-0.09,0.43
658.00,0.01,0.23
660.00,-0.03,0.53
662.00,-0.03,0.44
664.00,0.10,0.48
666.00,-0.07,0.45
668.00,-0.08,0.34
670.00,0.10,0.23
672.00,0.03,0.18
674.00,0.11,0.23
676.00,-0.05,0.31
678.00,0.15,0.12
680.00,0.11,0.21
682.00,-0.06,0.25
684.00,0.06,0.23
686.00,-0.04,0.12
688.00,-0.02,0.29
690.00,-0.03,0.02
692.00,0.05,0.05
694.00,0.06,0.01
696.00,0.06,0.07
698.00,0.20,0.19
700.00,-0.00,0.00