Folder: fsri_materials_database/01_Data/Polyester_Batting/STA/N2/10K_min

Note: 01_Data/README.md
# Materials and Products Database
## 01_Data

Raw data generated from each apparatus are included here in plain-text format. The data is organized first by material, next by the short name of test apparatus used, and where applicable additional filtering by test settings.

### material.json

Each material directory contains a json file of the same name as the material. This file links the data stored in the repository as well as data and graphs produced by the accompanying scripts (__02_Scripts__) to the respective landing page for the material on the front-end website.

File: Polyester_Batting_STA_N2_10KData_220131_R1.csv
##Temp./Â°C,Time/min,DSC(subtr.2)/(mW/mg),Mass(subtr.2)/%,Sensit./(uV/mW)
49.332,10.00917,-0.00612744,100.81,1.07447
52.132,11.2422,0.07425452,100.842,1.07427
54.932,11.6567,0.11575,100.862,1.07405
57.732,12.00572,0.13911,100.84,1.07381
60.532,12.3292,0.15315,100.883,1.07356
63.332,12.64165,0.16128,100.854,1.07328
66.132,12.94692,0.17017,100.897,1.07299
68.932,13.24879,0.18418,100.885,1.07268
71.732,13.5465,0.18144,100.9,1.07235
74.532,13.8419,0.1839,100.919,1.07201
77.332,14.1342,0.18852,100.9184,1.07164
80.132,14.4245,0.19161,100.9519,1.07126
82.932,14.71245,0.1949,100.9552,1.07086
85.732,14.99779,0.20012,100.986,1.07044
88.532,15.2812,0.20197,100.952,1.07
91.332,15.5614,0.20353,100.973,1.06954
94.132,15.83986,0.20715,100.994,1.06907
96.932,16.11723,0.20994,100.993,1.06858
99.732,16.39333,0.21546,100.991,1.06807
102.532,16.66828,0.21924,100.991,1.06754
105.332,16.943,0.22337,101.016,1.067
108.132,17.21794,0.22977,101.008,1.06643
110.932,17.49223,0.2311,100.988,1.06585
113.732,17.76684,0.23371,101.023,1.06526
116.532,18.04036,0.24025,101.022,1.06464
119.332,18.31423,0.24459,100.995,1.06401
122.132,18.58729,0.25117,101.022,1.06335
124.932,18.86007,0.26566,101.03,1.06269
127.732,19.13279,0.28395,101.0198,1.062
130.532,19.40485,0.29624,101.055,1.0613
133.332,19.67667,0.30043,101.064,1.06057
136.132,19.94794,0.27725,101.055,1.05984
138.932,20.2192,0.24939,101.072,1.05908
141.732,20.48948,0.24223,101.055,1.05831
144.532,20.75926,0.23583,101.055,1.05752
147.332,21.0293,0.23843,101.089,1.05671
150.132,21.29873,0.24212,101.091,1.05588
152.932,21.56852,0.24358,101.058,1.05504
155.732,21.83776,0.24688,101.094,1.05418
158.532,22.10644,0.25135,101.122,1.05331
161.332,22.37453,0.25262,101.113,1.05242
164.132,22.64338,0.25486,101.122,1.05151
166.932,22.91176,0.25682,101.083,1.05058
169.732,23.17996,0.25779,101.158,1.04964
172.532,23.4475,0.26024,101.136,1.04868
175.332,23.71658,0.26119,101.075,1.0477
178.132,23.98444,0.26452,101.14,1.04671
180.932,24.25291,0.2643,101.108,1.0457
183.732,24.52006,0.26572,101.108,1.04468
186.532,24.7879,0.27094,101.1333,1.04363
189.332,25.05515,0.27155,101.083,1.04258
192.132,25.32255,0.27808,101.116,1.0415
194.932,25.58993,0.27851,101.1,1.04041
197.732,25.8571,0.28006,101.1,1.0393
200.532,26.12503,0.28262,101.131,1.03818
203.332,26.393,0.2855,101.08,1.03704
206.132,26.66033,0.28922,101.0802,1.03589
208.932,26.92655,0.29596,101.065,1.03472
211.732,27.19302,0.30112,101.0802,1.03353
214.532,27.45945,0.30366,101.072,1.03233
217.332,27.72625,0.31024,101.053,1.03111
220.132,27.99284,0.31185,101.089,1.02988
222.932,28.26042,0.31937,101.105,1.02863
225.732,28.5276,0.3265,101.098,1.02737
228.532,28.7951,0.33492,101.072,1.02609
231.332,29.06223,0.3451,101.064,1.02479
234.132,29.32988,0.3599,101.089,1.02349
236.932,29.59773,0.38152,101.089,1.02216
239.732,29.86457,0.41345,101.0549,1.02082
242.532,30.13164,0.45837,101.087,1.01947
245.332,30.3989,0.53304,101.088,1.0181
248.132,30.6667,0.65712,101.059,1.01671
250.932,30.935,0.88262,101.089,1.01531
253.732,31.2049,1.06219,101.0467,1.0139
256.532,31.474,0.82804,101.02,1.01247
259.332,31.73967,0.47635,101.038,1.01103
262.132,32.00489,0.36668,101.039,1.00957
264.932,32.27068,0.33784,100.972,1.0081
267.732,32.53682,0.33146,101.005,1.00661
270.532,32.8037,0.33129,101.005,1.00511
273.332,33.0713,0.32975,100.972,1.0036
276.132,33.33903,0.33085,101.005,1.00207
278.932,33.60706,0.33297,100.971,1.00053
281.732,33.8743,0.33809,100.929,0.99897
284.532,34.14049,0.3393,100.93,0.9974
287.332,34.408,0.3433,100.955,0.99582
290.132,34.67477,0.34404,100.9049,0.99422
292.932,34.9415,0.3451,100.876,0.99261
295.732,35.2087,0.34568,100.897,0.99099
298.532,35.47654,0.34461,100.905,0.98935
301.332,35.7443,0.34805,100.838,0.9877
304.132,36.013,0.34561,100.839,0.98604
306.932,36.28171,0.34834,100.828,0.98436
309.732,36.55041,0.35151,100.765,0.98267
312.532,36.819,0.35134,100.7742,0.98097
315.332,37.08745,0.35428,100.732,0.97925
318.132,37.35633,0.35409,100.696,0.97753
320.932,37.62513,0.35316,100.6819,0.97579
323.732,37.89394,0.35359,100.6736,0.97403
326.532,38.16348,0.35541,100.685,0.97227
329.332,38.43306,0.35755,100.5927,0.97049
332.132,38.70237,0.35726,100.569,0.9687
334.932,38.97136,0.36101,100.541,0.9669
337.732,39.24046,0.36322,100.543,0.96508
340.532,39.5101,0.36604,100.483,0.96325
343.332,39.78021,0.36469,100.468,0.96142
346.132,40.0499,0.3695,100.409,0.95957
348.932,40.32,0.3721,100.393,0.9577
351.732,40.59059,0.37359,100.4,0.95583
354.532,40.86183,0.37744,100.327,0.95394
357.332,41.13337,0.38356,100.2254,0.95205
360.132,41.40487,0.38836,100.192,0.95014
362.932,41.67699,0.39317,100.159,0.94822
365.732,41.94853,0.3975,100.053,0.94629
368.532,42.21998,0.40461,99.94965,0.94435
371.332,42.49203,0.41051,99.85638,0.9424
374.132,42.76466,0.41913,99.70549,0.94043
376.932,43.03735,0.42905,99.51479,0.93846
379.732,43.31003,0.43428,99.28234,0.93647
382.532,43.58267,0.44682,99.0412,0.93448
385.332,43.85395,0.46272,98.6447,0.93247
388.132,44.12536,0.47506,98.26438,0.93046
390.932,44.39705,0.48699,97.73911,0.92843
393.732,44.66932,0.5019,97.18202,0.92639
396.532,44.94169,0.51926,96.40918,0.92434
399.332,45.2145,0.53197,95.49498,0.92229
402.132,45.487,0.55844,94.39143,0.92022
404.932,45.75952,0.57435,93.1905,0.91814
407.732,46.0324,0.59127,91.77043,0.91606
410.532,46.30574,0.63478,89.98309,0.91396
413.332,46.57904,0.66298,87.9329,0.91186
416.132,46.85217,0.71001,85.52192,0.90974
418.932,47.12578,0.77284,82.62916,0.90762
421.732,47.4002,0.81203,79.21247,0.90548
424.532,47.67577,0.8401,75.31921,0.90334
427.332,47.9505,0.85049,71.0655,0.90119
430.132,48.2245,0.86307,66.41289,0.89903
432.932,48.4985,0.88182,61.42601,0.89686
435.732,48.77196,0.88106,56.2143,0.89468
438.532,49.04535,0.86138,50.86996,0.89249
441.332,49.31921,0.81323,45.7965,0.8903
444.132,49.5942,0.74116,41.00278,0.88809
446.932,49.86889,0.6585,36.9403,0.88588
449.732,50.14398,0.56072,33.7153,0.88366
452.532,50.41872,0.47365,31.2379,0.88143
455.332,50.69376,0.40337,29.4109,0.87919
458.132,50.96875,0.35461,27.9788,0.87695
460.932,51.2432,0.30933,26.94332,0.8747
463.732,51.51838,0.27205,26.10039,0.87244
466.532,51.79378,0.22876,25.40686,0.87017
469.332,52.06951,0.18967,24.8447,0.86789
472.132,52.34469,0.15565,24.3868,0.86561
474.932,52.6203,0.1268,24.00314,0.86332
477.732,52.8966,0.09811408,23.71709,0.86102
480.532,53.17417,0.07614838,23.40625,0.85872
483.332,53.45143,0.05904223,23.1643,0.85641
486.132,53.72894,0.07203289,23.00589,0.85409
488.932,54.0062,0.081669,22.82922,0.85176
491.732,54.28334,0.07865267,22.68957,0.84943
494.532,54.55959,0.08393225,22.5598,0.84709
497.332,54.83631,0.08779712,22.4433,0.84474
500.132,55.11316,0.08038953,22.3028,0.84239
502.932,55.38981,0.07231375,22.19845,0.84003
505.732,55.66647,0.06908647,22.1321,0.83767
508.532,55.94314,0.06826809,22.0142,0.8353
511.332,56.2202,0.06109036,21.92023,0.83292
514.132,56.4979,0.06365966,21.86407,0.83054
516.932,56.77579,0.05746762,21.76371,0.82815
519.732,57.0547,0.05670236,21.6643,0.82575
522.532,57.33404,0.06041347,21.59425,0.82335
525.332,57.6128,0.05625139,21.59582,0.82095
528.132,57.8918,0.05397765,21.52995,0.81854
530.932,58.17034,0.05670198,21.46294,0.81612
533.732,58.4483,0.05456304,21.4046,0.8137
536.532,58.7266,0.05406392,21.37106,0.81127
539.332,59.00492,0.0518038,21.30424,0.80884
542.132,59.2843,0.05071278,21.2717,0.8064
544.932,59.5631,0.05090656,21.2292,0.80396
547.732,59.84211,0.04862994,21.22958,0.80151
550.532,60.12095,0.04866046,21.17081,0.79906
553.332,60.3998,0.04914698,21.1625,0.7966
556.132,60.67905,0.04854875,21.0622,0.79414
558.932,60.9584,0.0477253,20.98423,0.79168
561.732,61.23819,0.04616585,20.98426,0.78921
564.532,61.518,0.03960679,20.95111,0.78673
567.332,61.79897,0.0422107,20.94604,0.78426
570.132,62.0799,0.03822151,20.8572,0.78177
572.932,62.36056,0.02469043,20.79774,0.77929
575.732,62.6404,0.03555153,20.73101,0.7768
578.532,62.9203,0.03457164,20.68988,0.7743
581.332,63.2003,0.03313668,20.6056,0.77181
584.132,63.47988,0.03465376,20.5693,0.76931
586.932,63.7598,0.03464665,20.5355,0.7668
589.732,64.04012,0.03461094,20.43571,0.76429
592.532,64.32079,0.03243307,20.43575,0.76178
595.332,64.60128,0.02619845,20.34391,0.75927
598.132,64.88249,0.02240861,20.344,0.75675
600.932,65.16339,0.02474295,20.302,0.75423
603.732,65.44513,0.02198649,20.20203,0.75171
606.532,65.72645,0.01975183,20.2045,0.74918
609.332,66.00775,0.01938792,20.14619,0.74665
612.132,66.28877,0.01585154,20.12189,0.74412
614.932,66.56958,0.01335759,20.06183,0.74159
617.732,66.85115,0.01046976,20.00468,0.73905
620.532,67.13257,0.01142455,19.97084,0.73651
623.332,67.41423,0.01242088,19.90265,0.73397
626.132,67.69588,0.01227181,19.90406,0.73143
628.932,67.977,0.01425561,19.82054,0.72888
631.732,68.25786,0.01666573,19.82893,0.72634
634.532,68.53888,0.01818475,19.7705,0.72379
637.332,68.8193,0.01662158,19.76194,0.72124
640.132,69.0998,0.02246442,19.70355,0.71868
642.932,69.3808,0.02217419,19.69654,0.71613
645.732,69.66216,0.023888,19.65354,0.71357
648.532,69.94405,0.01999023,19.64234,0.71102
651.332,70.22735,0.02369435,19.60076,0.70846
654.132,70.5104,0.02377403,19.60076,0.7059
656.932,70.7932,0.02335424,19.56721,0.70333
659.732,71.07547,0.02414143,19.5172,0.70077
662.532,71.35755,0.02067911,19.48377,0.69821
665.332,71.639,0.02251947,19.51726,0.69564
668.132,71.91956,0.01960593,19.48082,0.69308
670.932,72.2008,0.01587565,19.44746,0.69051
673.732,72.48265,0.01012868,19.41421,0.68795
676.532,72.76555,0.004847675,19.4142,0.68538
679.332,73.0478,-0.0005838807,19.38072,0.68281
682.132,73.32967,-0.00457462,19.34679,0.68024
684.932,73.61024,-0.009437556,19.34679,0.67767
687.732,73.89156,-0.01364916,19.3384,0.6751
690.532,74.17204,-0.02251325,19.31396,0.67253
693.332,74.45331,-0.029262,19.2803,0.66996
696.132,74.73479,-0.03842168,19.28046,0.66739
698.732,74.9972,-0.0508932,19.2888,0.66501