Folder: fsri_materials_database/01_Data/PineLap_SidingB/MCC

Note: 01_Data/README.md
# Materials and Products Database
## 01_Data

Raw data generated from each apparatus are included here in plain-text format. The data is organized first by material, next by the short name of test apparatus used, and where applicable additional filtering by test settings.

### material.json

Each material directory contains a json file of the same name as the material. This file links the data stored in the repository as well as data and graphs produced by the accompanying scripts (__02_Scripts__) to the respective landing page for the material on the front-end website.

File: PineLap_SidingB_MCC_30K_min_211123_R3.txt
Sample ID:	C:\MCC\MCC Cal\Test\PineLap_SidingB_MCC_30K_min_211123_R3.txt
Sample Weight (mg):	4.67
Heating Rate (C/s):	0.5
Combustor Temp (C):	900
N2 Flow Rate (cc/min):	80
O2 Flow Rate (cc/min):	20
Calibration File:	C:\MCC\MCC Cal\Coeff1 JN10440_30_210304.txt.txt
T Correction Coefficients:	0	1.024463	0
Time Shift (s):	14
*
Time (s)	Temperature (C)	N2 flow rate (cc/min)	O2 flow rate (cc/min)	Flow Rate (cc/min)	Oxygen (%)	HRR (W/g)	Heating rate (C/s)
0.000	106.991	80.008	19.996	103.138	20.180	-0.098	0.021
8.000	106.951	80.008	19.995	103.143	20.178	0.028	-0.000
16.000	107.043	80.007	19.992	103.204	20.174	0.306	0.014
24.000	107.327	80.010	19.992	103.210	20.167	0.823	0.044
32.000	107.751	80.009	19.995	103.260	20.158	1.421	0.084
40.000	108.566	80.011	19.994	103.309	20.151	1.915	0.084
48.000	109.740	80.011	19.994	103.328	20.146	2.249	0.166
56.000	111.340	80.007	19.993	103.360	20.142	2.573	0.225
64.000	113.275	80.006	20.001	103.364	20.135	3.046	0.255
72.000	115.543	80.004	19.999	103.374	20.135	3.016	0.306
80.001	118.175	80.017	19.992	103.394	20.131	3.298	0.376
88.000	120.929	80.007	19.992	103.379	20.136	2.950	0.372
96.000	123.927	80.011	19.998	103.393	20.131	3.278	0.387
104.001	127.140	80.010	19.996	103.398	20.139	2.763	0.422
112.001	130.487	80.013	19.994	103.400	20.139	2.721	0.391
120.000	134.063	80.013	19.992	103.392	20.132	3.206	0.457
128.000	137.665	80.009	19.999	103.389	20.132	3.238	0.475
136.000	141.405	80.011	19.993	103.377	20.138	2.821	0.467
144.000	145.195	80.012	19.994	103.391	20.136	2.986	0.472
152.000	149.028	80.007	19.996	103.383	20.133	3.184	0.463
160.001	152.930	80.002	19.995	103.378	20.140	2.651	0.490
168.000	156.837	80.011	19.994	103.391	20.140	2.667	0.481
176.000	160.727	80.008	19.993	103.365	20.141	2.583	0.489
184.000	164.671	80.007	19.997	103.367	20.135	3.012	0.483
192.000	168.586	80.004	19.997	103.379	20.135	3.032	0.480
200.000	172.652	80.021	19.993	103.362	20.135	3.015	0.511
208.000	176.725	80.019	19.991	103.368	20.137	2.875	0.504
216.000	180.798	80.014	19.992	103.367	20.138	2.828	0.514
224.000	184.884	80.012	19.994	103.360	20.139	2.731	0.532
232.000	188.962	80.007	19.995	103.362	20.141	2.623	0.496
240.000	193.021	80.013	19.994	103.355	20.142	2.570	0.499
248.001	197.028	80.009	19.993	103.354	20.138	2.805	0.492
256.000	201.035	80.012	19.994	103.341	20.140	2.662	0.518
264.000	204.975	80.017	19.993	103.349	20.139	2.739	0.540
272.000	208.900	79.990	19.995	103.357	20.131	3.267	0.499
280.000	212.810	80.009	19.994	103.359	20.132	3.251	0.500
288.000	216.678	80.007	19.994	103.363	20.128	3.479	0.469
296.000	220.613	80.004	19.996	103.333	20.130	3.378	0.487
304.000	224.533	80.017	19.995	103.343	20.122	3.942	0.517
312.000	228.384	80.003	19.996	103.335	20.113	4.555	0.482
320.000	232.397	80.008	19.998	103.358	20.113	4.531	0.473
328.000	236.346	80.014	19.993	103.349	20.095	5.798	0.479
336.000	240.274	80.006	19.996	103.366	20.100	5.433	0.480
344.000	244.189	80.007	19.995	103.360	20.079	6.919	0.486
352.000	248.255	80.013	19.999	103.364	20.072	7.352	0.297
360.000	252.266	80.007	19.995	103.365	20.056	8.512	0.513
368.000	256.245	80.011	19.996	103.364	20.039	9.624	0.487
376.000	260.248	80.011	19.995	103.363	20.026	10.578	0.517
384.000	264.342	80.011	19.996	103.383	20.011	11.594	0.530
392.000	268.367	80.013	19.994	103.371	19.991	12.977	0.514
400.000	272.490	80.012	19.993	103.390	19.972	14.264	0.514
408.000	276.621	80.009	19.996	103.405	19.945	16.137	0.572
416.000	280.748	80.006	19.994	103.404	19.921	17.823	0.523
424.000	284.890	80.007	19.994	103.409	19.895	19.585	0.527
432.000	289.066	80.010	19.994	103.413	19.864	21.781	0.506
440.000	293.169	80.013	19.994	103.404	19.834	23.827	0.501
448.000	297.189	80.011	19.994	103.434	19.802	26.069	0.515
456.000	301.150	80.005	19.996	103.439	19.760	28.951	0.491
464.000	305.052	80.012	19.994	103.447	19.719	31.814	0.495
472.000	308.929	80.010	19.995	103.478	19.676	34.736	0.456
480.000	312.895	80.009	19.995	103.486	19.637	37.495	0.500
488.000	316.830	80.009	19.994	103.502	19.598	40.169	0.487
496.000	320.689	80.012	19.994	103.485	19.558	42.938	0.455
504.000	324.548	80.008	19.995	103.496	19.522	45.429	0.468
512.000	328.431	80.011	19.993	103.483	19.486	47.886	0.459
520.000	332.400	80.011	19.994	103.473	19.448	50.531	0.484
528.000	336.404	80.011	19.994	103.532	19.421	52.397	0.507
536.000	340.372	80.010	19.995	103.525	19.389	54.622	0.494
544.000	344.347	80.011	19.994	103.538	19.354	57.032	0.499
552.000	348.338	80.011	19.994	103.544	19.308	60.240	0.492
560.001	352.350	80.008	19.994	103.583	19.253	64.074	0.492
568.000	356.415	80.012	19.994	103.590	19.191	68.382	0.474
576.000	360.345	80.009	19.995	103.598	19.125	72.983	0.464
584.000	364.281	80.009	19.995	103.623	19.063	77.209	0.497
592.000	368.249	80.010	19.995	103.618	19.029	79.554	0.503
600.000	372.242	80.010	19.994	103.598	19.027	79.685	0.519
608.000	376.254	80.012	19.994	103.544	19.088	75.413	0.501
616.001	380.327	80.011	19.994	103.481	19.215	66.540	0.534
624.000	384.397	80.010	19.994	103.404	19.398	53.921	0.470
632.000	388.540	80.014	19.993	103.324	19.596	40.238	0.520
640.000	392.721	80.010	19.994	103.282	19.776	27.753	0.515
648.000	396.900	80.010	19.995	103.277	19.907	18.776	0.541
656.000	401.015	80.011	19.994	103.249	19.985	13.379	0.523
664.000	405.057	80.010	19.994	103.247	20.020	10.955	0.488
672.000	409.146	80.010	19.995	103.256	20.037	9.795	0.495
680.000	413.254	80.009	19.995	103.247	20.042	9.441	0.523
688.000	417.236	80.010	19.995	103.252	20.053	8.692	0.529
696.000	421.223	80.013	19.995	103.246	20.060	8.216	0.487
704.001	425.220	80.011	19.994	103.244	20.061	8.110	0.504
712.000	429.256	80.013	19.994	103.243	20.069	7.586	0.529
720.000	433.259	80.012	19.994	103.252	20.070	7.538	0.464
728.000	437.329	80.010	19.994	103.248	20.078	6.922	0.476
736.000	441.376	80.011	19.995	103.246	20.082	6.695	0.518
744.000	445.400	80.010	19.994	103.248	20.085	6.436	0.514
752.000	449.391	80.010	19.994	103.245	20.089	6.170	0.490
760.000	453.386	80.009	19.994	103.249	20.093	5.911	0.540
768.000	457.414	80.011	19.994	103.231	20.103	5.256	0.505
776.000	461.379	80.010	19.996	103.242	20.106	5.041	0.523
784.000	465.374	80.011	19.996	103.242	20.118	4.188	0.500
792.000	469.351	80.015	19.994	103.246	20.119	4.126	0.505
800.000	473.358	80.012	19.994	103.231	20.124	3.761	0.494
808.000	477.382	80.010	19.994	103.247	20.125	3.678	0.462
816.000	481.523	80.009	19.993	103.252	20.123	3.874	0.535
824.000	485.750	80.011	19.994	103.250	20.126	3.615	0.535
832.001	490.098	80.010	19.995	103.246	20.130	3.384	0.540
840.000	494.576	80.010	19.995	103.243	20.131	3.301	0.584
848.000	499.030	80.009	19.996	103.245	20.134	3.078	0.525
856.000	503.460	80.012	19.995	103.237	20.134	3.106	0.524
864.000	507.843	80.009	19.995	103.238	20.135	2.993	0.561
872.000	512.175	80.011	19.995	103.236	20.131	3.273	0.538
880.000	516.537	80.011	19.994	103.240	20.134	3.097	0.539
888.000	520.799	80.010	19.993	103.229	20.136	2.948	0.517
896.000	524.987	80.010	19.994	103.238	20.139	2.772	0.518
904.000	529.119	80.010	19.995	103.222	20.138	2.800	0.505
912.000	533.246	80.010	19.994	103.237	20.137	2.860	0.506
920.000	537.317	80.010	19.994	103.230	20.136	2.951	0.503
928.000	541.349	80.010	19.995	103.225	20.138	2.783	0.527
936.000	545.315	80.010	19.994	103.218	20.140	2.700	0.464
944.000	549.386	80.009	19.994	103.216	20.144	2.399	0.523
952.000	553.479	80.009	19.995	103.223	20.144	2.370	0.500
960.000	557.423	80.013	19.995	103.213	20.147	2.221	0.468
968.000	561.246	80.012	19.995	103.203	20.145	2.340	0.466
976.000	564.967	80.010	19.994	103.212	20.141	2.610	0.447
984.000	568.769	80.010	19.994	103.217	20.144	2.372	0.450
992.000	572.602	80.010	19.994	103.210	20.144	2.419	0.482
1000.000	576.559	80.010	19.994	103.218	20.138	2.800	0.505
1008.000	580.447	80.009	19.994	103.216	20.147	2.225	0.496
1016.000	584.576	80.009	19.993	103.227	20.144	2.407	0.534
1024.000	588.849	80.011	19.994	103.233	20.143	2.471	0.533
1032.000	593.261	80.010	19.994	103.217	20.141	2.631	0.551
1040.001	597.786	80.010	19.995	103.209	20.140	2.669	0.565
1048.000	602.232	80.011	19.994	103.208	20.140	2.647	0.519
1056.000	606.649	80.008	19.995	103.225	20.144	2.419	0.533
1064.000	611.052	80.006	19.994	103.222	20.143	2.457	0.534
1072.001	615.409	80.009	19.995	103.211	20.147	2.202	0.569
1080.000	619.659	80.009	19.994	103.214	20.149	2.068	0.529
1088.000	623.966	80.007	19.995	103.216	20.148	2.128	0.577
1096.001	628.089	80.009	19.994	103.216	20.149	2.047	0.533
1104.000	632.191	80.011	19.993	103.207	20.154	1.739	0.520
1112.000	636.338	80.009	19.994	103.209	20.151	1.917	0.527
1120.000	640.376	80.009	19.994	103.209	20.154	1.737	0.482
1128.000	644.387	80.012	19.995	103.211	20.152	1.828	0.486
1136.000	648.423	80.008	19.994	103.206	20.152	1.820	0.506
1144.001	652.396	80.007	19.994	103.208	20.152	1.830	0.487
1152.000	656.450	80.006	19.995	103.205	20.157	1.480	0.500
1160.000	660.411	80.008	19.995	103.208	20.157	1.525	0.502
1168.000	664.411	80.007	19.994	103.195	20.156	1.573	0.465
1176.000	668.389	80.008	19.995	103.201	20.155	1.652	0.472
1184.001	672.485	80.009	19.994	103.201	20.158	1.431	0.504
1192.001	676.646	80.008	19.994	103.198	20.158	1.464	0.535
1200.001	680.601	80.009	19.994	103.206	20.159	1.359	0.492
1208.000	684.644	80.012	19.993	103.200	20.161	1.244	0.515
1216.000	688.631	80.011	19.994	103.190	20.162	1.151	0.478
1224.000	692.597	80.008	19.995	103.202	20.165	0.966	0.499
1232.000	696.639	80.008	19.994	103.189	20.161	1.215	0.488
1240.000	700.593	80.009	19.995	103.180	20.163	1.066	0.473
1248.000	704.427	80.009	19.996	103.182	20.166	0.848	0.466
1256.000	708.338	80.007	19.994	103.177	20.165	0.945	0.509
1264.000	712.269	80.008	19.994	103.192	20.167	0.803	0.509
1272.001	716.230	80.009	19.993	103.176	20.166	0.907	0.504
1280.000	720.266	80.008	19.994	103.190	20.165	0.920	0.513
1288.000	724.298	80.011	19.994	103.191	20.170	0.637	0.524
1296.001	728.308	80.011	19.995	103.172	20.170	0.599	0.517
1304.000	732.349	80.009	19.995	103.191	20.169	0.707	0.546
1312.001	736.325	80.008	19.994	103.173	20.172	0.465	0.516
1320.000	740.372	80.008	19.995	103.171	20.173	0.402	0.489
1326.500	743.622	80.009	19.995	103.181	20.174	0.300	0.499