Folder: fsri_materials_database/01_Data/Cellulose_Insulation/STA/N2/10K_min

Note: 01_Data/README.md
# Materials and Products Database
## 01_Data

Raw data generated from each apparatus are included here in plain-text format. The data is organized first by material, next by the short name of test apparatus used, and where applicable additional filtering by test settings.

### material.json

Each material directory contains a json file of the same name as the material. This file links the data stored in the repository as well as data and graphs produced by the accompanying scripts (__02_Scripts__) to the respective landing page for the material on the front-end website.

File: Cellulose_Insulation_STA_N2_10KData_220728_R1.csv
##Temp./Â°C,Time/min,Mass loss(subtr.2)/mg,DSC(subtr.2)/(mW/mg),Sensit./(uV/mW)
49.357,10.01,-0.05709,0.03899491,1.07027
51.957,11.22884,-0.06045085,0.13183,1.06956
54.557,11.6274,-0.06074802,0.17848,1.06883
57.157,11.9604,-0.06299333,0.21516,1.0681
59.757,12.2662,-0.06405128,0.24268,1.06737
62.357,12.56022,-0.06643759,0.26292,1.06662
64.957,12.84636,-0.06713022,0.28307,1.06587
67.557,13.12691,-0.07009295,0.30533,1.06511
70.157,13.40414,-0.07245546,0.32765,1.06435
72.757,13.6807,-0.0751,0.34888,1.06358
75.357,13.9539,-0.07772824,0.3699,1.0628
77.957,14.224,-0.08232622,0.39142,1.06201
80.557,14.49215,-0.08695077,0.40899,1.06122
83.157,14.75854,-0.0909,0.42394,1.06042
85.757,15.0228,-0.09487496,0.43626,1.05961
88.357,15.2855,-0.09879681,0.44468,1.0588
90.957,15.5459,-0.10407,0.45112,1.05797
93.557,15.8051,-0.10797,0.45446,1.05715
96.157,16.0628,-0.11215,0.45647,1.05631
98.757,16.31932,-0.11593,0.45874,1.05547
101.357,16.57509,-0.12003,0.45875,1.05462
103.957,16.82899,-0.12384,0.45627,1.05376
106.557,17.08391,-0.12878,0.45352,1.05289
109.157,17.33835,-0.13174,0.44716,1.05202
111.757,17.59194,-0.13371,0.43965,1.05114
114.357,17.8449,-0.13692,0.43445,1.05025
116.957,18.09783,-0.1423,0.4267,1.04936
119.557,18.35077,-0.14458,0.42088,1.04846
122.157,18.60279,-0.14851,0.41923,1.04755
124.757,18.85506,-0.15119,0.41524,1.04663
127.357,19.107,-0.15522,0.41309,1.04571
129.957,19.35847,-0.15643,0.41279,1.04478
132.557,19.6092,-0.15908,0.40902,1.04384
135.157,19.86094,-0.16435,0.40773,1.0429
137.757,20.11218,-0.16588,0.40917,1.04194
140.357,20.3628,-0.16797,0.40855,1.04098
142.957,20.61369,-0.17061,0.409,1.04001
145.557,20.86401,-0.17455,0.40912,1.03904
148.157,21.11393,-0.17719,0.41083,1.03806
150.757,21.3633,-0.17971,0.41357,1.03706
153.357,21.61235,-0.18376,0.41447,1.03607
155.957,21.8611,-0.18646,0.41688,1.03506
158.557,22.11001,-0.18707,0.41694,1.03405
161.157,22.35804,-0.19232,0.41437,1.03303
163.757,22.60671,-0.19498,0.41632,1.032
166.357,22.85503,-0.19764,0.41122,1.03096
168.957,23.10342,-0.20156,0.41329,1.02992
171.557,23.3518,-0.2042,0.40891,1.02887
174.157,23.59955,-0.20683,0.40842,1.02781
176.757,23.84871,-0.20941,0.40829,1.02674
179.357,24.0966,-0.21338,0.4048,1.02567
181.957,24.34498,-0.21572,0.4031,1.02459
184.557,24.59304,-0.22001,0.40098,1.0235
187.157,24.8411,-0.22398,0.40427,1.0224
189.757,25.089,-0.2266,0.40827,1.02129
192.357,25.33661,-0.23055,0.41549,1.02018
194.957,25.58407,-0.23448,0.42071,1.01906
197.557,25.832,-0.23781,0.42891,1.01793
200.157,26.07999,-0.24306,0.43572,1.01679
202.757,26.3275,-0.24701,0.44534,1.01565
205.357,26.57475,-0.25229,0.45246,1.0145
207.957,26.82215,-0.25756,0.45978,1.01334
210.557,27.0697,-0.26283,0.46736,1.01217
213.157,27.3177,-0.2695,0.47212,1.01099
215.757,27.56545,-0.27744,0.47501,1.00981
218.357,27.8128,-0.28419,0.46605,1.00862
220.957,28.06059,-0.29334,0.4717,1.00742
223.557,28.30755,-0.30574,0.5168,1.00621
226.157,28.55592,-0.32405,0.62389,1.005
228.757,28.80435,-0.35635,0.81041,1.00377
231.357,29.05347,-0.4069,1.06736,1.00254
233.957,29.30375,-0.47875,1.287,1.0013
236.557,29.554,-0.56707,1.33484,1.00006
239.157,29.803,-0.6546,1.18993,0.9988
241.757,30.05064,-0.73198,0.96922,0.99754
244.357,30.297,-0.79636,0.76563,0.99627
246.957,30.54257,-0.84829,0.61944,0.99499
249.557,30.7883,-0.88908,0.51814,0.9937
252.157,31.03458,-0.92277,0.45211,0.9924
254.757,31.2811,-0.95217,0.40624,0.9911
257.357,31.5266,-0.97802,0.37542,0.98979
259.957,31.77357,-1.00144,0.35308,0.98847
262.557,32.02021,-1.02441,0.33572,0.98714
265.157,32.2665,-1.04492,0.32284,0.9858
267.757,32.51342,-1.06424,0.30876,0.98446
270.357,32.76031,-1.08423,0.29947,0.98311
272.957,33.00744,-1.10176,0.28924,0.98175
275.557,33.2553,-1.12059,0.28195,0.98038
278.157,33.503,-1.13853,0.2731,0.979
280.757,33.75075,-1.15697,0.26712,0.97761
283.357,33.999,-1.17542,0.25964,0.97622
285.957,34.24695,-1.1931,0.25237,0.97482
288.557,34.49599,-1.21044,0.2451,0.97341
291.157,34.74402,-1.22803,0.24101,0.97199
293.757,34.99306,-1.24668,0.23581,0.97056
296.357,35.24126,-1.26408,0.2306,0.96913
298.957,35.49041,-1.28313,0.22248,0.96769
301.557,35.739,-1.30243,0.21623,0.96624
304.157,35.9873,-1.32138,0.20947,0.96478
306.757,36.23672,-1.34085,0.20048,0.96331
309.357,36.48597,-1.36061,0.19321,0.96183
311.957,36.7354,-1.38009,0.1841,0.96035
314.557,36.9845,-1.40139,0.17652,0.95886
317.157,37.23415,-1.41955,0.16951,0.95736
319.757,37.48344,-1.43922,0.16176,0.95585
322.357,37.7328,-1.45822,0.15244,0.95433
324.957,37.98268,-1.47937,0.14339,0.95281
327.557,38.23233,-1.49851,0.1322,0.95127
330.157,38.48232,-1.51823,0.12415,0.94973
332.757,38.73261,-1.53706,0.11655,0.94818
335.357,38.9825,-1.55605,0.10787,0.94662
337.957,39.23236,-1.57524,0.09717199,0.94506
340.557,39.4831,-1.59548,0.08823696,0.94348
343.157,39.7333,-1.61237,0.07816127,0.9419
345.757,39.98418,-1.63069,0.07032467,0.94031
348.357,40.23466,-1.65057,0.05978165,0.93871
350.957,40.48567,-1.67174,0.05241511,0.9371
353.557,40.73652,-1.68987,0.0409014,0.93548
356.157,40.98786,-1.70636,0.03301944,0.93386
358.757,41.2384,-1.7284,0.02542706,0.93223
361.357,41.48981,-1.74402,0.01889317,0.93059
363.957,41.74129,-1.75941,0.01054462,0.92894
366.557,41.9927,-1.77654,0.0003712277,0.92728
369.157,42.24458,-1.79908,-0.005158678,0.92561
371.757,42.497,-1.81872,-0.01244673,0.92394
374.357,42.74938,-1.83839,-0.01651521,0.92226
376.957,43.00158,-1.8561,-0.02092107,0.92057
379.557,43.25376,-1.87464,-0.02047397,0.91887
382.157,43.50669,-1.89175,-0.02202725,0.91716
384.757,43.759,-1.9096,-0.02276624,0.91545
387.357,44.012,-1.92623,-0.02024768,0.91373
389.957,44.26507,-1.94247,-0.01612989,0.912
392.557,44.518,-1.95953,-0.01189686,0.91026
395.157,44.77048,-1.97523,-0.004159243,0.90851
397.757,45.02349,-1.98835,0.00166193,0.90675
400.357,45.27625,-2.00277,0.00801361,0.90499
402.957,45.52905,-2.01658,0.01485041,0.90322
405.557,45.7821,-2.02788,0.02088371,0.90144
408.157,46.03504,-2.04019,0.02965193,0.89965
410.757,46.28877,-2.05161,0.03537847,0.89786
413.357,46.54244,-2.06274,0.04395501,0.89605
415.957,46.79674,-2.07292,0.04702051,0.89424
418.557,47.05004,-2.0838,0.05332121,0.89242
421.157,47.30471,-2.09415,0.05914382,0.89059
423.757,47.55914,-2.1029,0.06487084,0.88876
426.357,47.81381,-2.1129,0.06803167,0.88692
428.957,48.0691,-2.11937,0.06996104,0.88506
431.557,48.32425,-2.12786,0.07669095,0.8832
434.157,48.5792,-2.13746,0.08091868,0.88134
436.757,48.83404,-2.14429,0.08414725,0.87946
439.357,49.0893,-2.15346,0.08709183,0.87758
441.957,49.3444,-2.16068,0.09204614,0.87569
444.557,49.59935,-2.16872,0.09488219,0.87379
447.157,49.85431,-2.17524,0.09651225,0.87188
449.757,50.10972,-2.18195,0.09813847,0.86997
452.357,50.36483,-2.18889,0.10148,0.86805
454.957,50.62063,-2.19522,0.10276,0.86612
457.557,50.8765,-2.20221,0.10326,0.86418
460.157,51.1331,-2.20761,0.1031,0.86224
462.757,51.38939,-2.21376,0.10273,0.86029
465.357,51.64569,-2.2205,0.1021,0.85833
467.957,51.9021,-2.22658,0.0993354,0.85636
470.557,52.1584,-2.23102,0.10028,0.85438
473.157,52.4139,-2.23637,0.10176,0.8524
475.757,52.6696,-2.24068,0.09946578,0.85041
478.357,52.92589,-2.24695,0.09677893,0.84841
480.957,53.1813,-2.25351,0.09805372,0.84641
483.557,53.4378,-2.25663,0.09443591,0.8444
486.157,53.69438,-2.26009,0.0923555,0.84238
488.757,53.9506,-2.26641,0.09184918,0.84035
491.357,54.2081,-2.27034,0.0929204,0.83832
493.957,54.46504,-2.27475,0.09209072,0.83627
496.557,54.7224,-2.27856,0.08882878,0.83423
499.157,54.97955,-2.28383,0.08758109,0.83217
501.757,55.23652,-2.28658,0.08656503,0.83011
504.357,55.49349,-2.29136,0.08542854,0.82804
506.957,55.75065,-2.29568,0.08580982,0.82596
509.557,56.0078,-2.29836,0.08295034,0.82388
512.157,56.2649,-2.30227,0.08362326,0.82179
514.757,56.5225,-2.30604,0.08223522,0.81969
517.357,56.7801,-2.31117,0.08339804,0.81758
519.957,57.03735,-2.31286,0.08801613,0.81547
522.557,57.29424,-2.31678,0.09304495,0.81335
525.157,57.55195,-2.32071,0.09606418,0.81123
527.757,57.80973,-2.32335,0.09570252,0.80909
530.357,58.06802,-2.32727,0.09750339,0.80695
532.957,58.32603,-2.33125,0.09763804,0.80481
535.557,58.5847,-2.33215,0.09787892,0.80266
538.157,58.8434,-2.33586,0.0976994,0.8005
540.757,59.10139,-2.33695,0.09751215,0.79833
543.357,59.3595,-2.34111,0.09868092,0.79616
545.957,59.61744,-2.34553,0.1029,0.79398
548.557,59.8757,-2.3531,0.10609,0.7918
551.157,60.13403,-2.36177,0.1083,0.78961
553.757,60.39275,-2.36177,0.11071,0.78741
556.357,60.65127,-2.36309,0.10922,0.7852
558.957,60.91,-2.36539,0.10902,0.78299
561.557,61.1692,-2.36969,0.10763,0.78078
564.157,61.42782,-2.37132,0.10999,0.77856
566.757,61.6868,-2.37396,0.11249,0.77633
569.357,61.94588,-2.37614,0.1128,0.77409
571.957,62.205,-2.37899,0.11333,0.77185
574.557,62.46515,-2.3827,0.11526,0.76961
577.157,62.7253,-2.38823,0.11499,0.76735
579.757,62.9856,-2.38932,0.11705,0.7651
582.357,63.2445,-2.39416,0.11722,0.76283
584.957,63.5048,-2.39612,0.11651,0.76056
587.557,63.7647,-2.39949,0.11605,0.75829
590.157,64.02529,-2.40468,0.11706,0.75601
592.757,64.28574,-2.40844,0.11816,0.75372
595.357,64.54619,-2.41129,0.11287,0.75143
597.957,64.8056,-2.41531,0.11335,0.74913
600.557,65.06515,-2.4193,0.11476,0.74683
603.157,65.32499,-2.42183,0.11344,0.74452
605.757,65.58585,-2.42704,0.11489,0.74221
608.357,65.84651,-2.42973,0.11184,0.73989
610.957,66.10716,-2.43303,0.1121,0.73756
613.557,66.36794,-2.43663,0.11378,0.73523
616.157,66.62931,-2.43928,0.11135,0.7329
618.757,66.89055,-2.44323,0.11376,0.73056
621.357,67.15141,-2.44718,0.11451,0.72822
623.957,67.41229,-2.44964,0.11697,0.72587
626.557,67.6739,-2.45409,0.11658,0.72352
629.157,67.93541,-2.45668,0.11943,0.72116
631.757,68.1965,-2.45935,0.11856,0.7188
634.357,68.45747,-2.46069,0.12173,0.71643
636.957,68.7175,-2.46596,0.12136,0.71406
639.557,68.97831,-2.46726,0.11944,0.71168
642.157,69.23873,-2.47209,0.12374,0.7093
644.757,69.49935,-2.4765,0.12662,0.70691
647.357,69.76,-2.47913,0.12974,0.70452
649.657,69.99127,-2.48143,0.1385,0.70241

File: Cellulose_Insulation_STA_N2_10KData_220729_R2.csv
##Temp./Â°C,Time/min,Mass loss(subtr.2)/mg,DSC(subtr.2)/(mW/mg),Sensit./(uV/mW)
49.606,10.00917,-0.0293,0.03176257,1.0702
52.606,11.29397,-0.02948562,0.14323,1.06938
55.606,11.73,-0.03449091,0.19937,1.06854
58.606,12.09742,-0.03236702,0.23898,1.06769
61.606,12.44137,-0.03467874,0.26501,1.06684
64.606,12.77319,-0.03684918,0.29113,1.06597
67.606,13.0992,-0.03589883,0.31614,1.0651
70.606,13.4206,-0.04060825,0.34279,1.06422
73.606,13.73829,-0.04456825,0.36555,1.06332
76.606,14.0524,-0.04869262,0.39322,1.06242
79.606,14.3636,-0.05122155,0.41768,1.06151
82.606,14.6716,-0.05559434,0.43877,1.06059
85.606,14.9768,-0.05951438,0.45315,1.05966
88.606,15.28016,-0.06476996,0.46592,1.05872
91.606,15.58087,-0.06869577,0.47386,1.05777
94.606,15.8805,-0.07410468,0.47919,1.05681
97.606,16.17715,-0.07810855,0.48409,1.05584
100.606,16.4731,-0.08333421,0.48667,1.05486
103.606,16.7665,-0.08569808,0.48505,1.05387
106.606,17.06042,-0.09243046,0.48429,1.05288
109.606,17.35406,-0.09635651,0.47599,1.05187
112.606,17.64775,-0.09987866,0.47102,1.05085
115.606,17.93976,-0.103,0.4614,1.04983
118.606,18.23265,-0.10824,0.45941,1.04879
121.606,18.52413,-0.1095,0.4536,1.04774
124.606,18.81571,-0.11481,0.44872,1.04669
127.606,19.1068,-0.11658,0.44702,1.04562
130.606,19.39794,-0.12185,0.44441,1.04455
133.606,19.68815,-0.12317,0.44514,1.04346
136.606,19.9782,-0.12745,0.44662,1.04237
139.606,20.26684,-0.12975,0.4465,1.04126
142.606,20.55647,-0.13266,0.44931,1.04014
145.606,20.8459,-0.13669,0.4504,1.03902
148.606,21.13394,-0.13926,0.451,1.03788
151.606,21.4226,-0.14273,0.45366,1.03674
154.606,21.71032,-0.14776,0.45412,1.03558
157.606,21.99846,-0.15313,0.45865,1.03442
160.606,22.28499,-0.1538,0.45969,1.03324
163.606,22.57186,-0.15374,0.46007,1.03206
166.606,22.85904,-0.15895,0.45872,1.03086
169.606,23.14588,-0.16204,0.45701,1.02966
172.606,23.43279,-0.16851,0.45786,1.02844
175.606,23.7198,-0.17042,0.45363,1.02722
178.606,24.00614,-0.16742,0.45189,1.02598
181.606,24.29269,-0.1743,0.45166,1.02473
184.606,24.57848,-0.18191,0.45259,1.02348
187.606,24.86453,-0.18453,0.45699,1.02221
190.606,25.14954,-0.18918,0.46185,1.02093
193.606,25.43505,-0.19356,0.47363,1.01964
196.606,25.72109,-0.19778,0.48015,1.01834
199.606,26.00692,-0.20407,0.49061,1.01704
202.606,26.29294,-0.20936,0.49866,1.01572
205.606,26.5793,-0.21595,0.50788,1.01439
208.606,26.86526,-0.22081,0.5156,1.01305
211.606,27.15076,-0.22712,0.52611,1.0117
214.606,27.436,-0.23532,0.5349,1.01034
217.606,27.72097,-0.24212,0.53607,1.00896
220.606,28.00527,-0.25182,0.53161,1.00758
223.606,28.2899,-0.26424,0.57248,1.00619
226.606,28.57573,-0.28742,0.69415,1.00479
229.606,28.86228,-0.32464,0.92894,1.00337
232.606,29.151,-0.38968,1.2418,1.00195
235.606,29.44,-0.48276,1.43552,1.00051
238.606,29.7289,-0.59031,1.34492,0.99907
241.606,30.0152,-0.6873,1.08356,0.99761
244.606,30.2994,-0.76413,0.8412,0.99614
247.606,30.58261,-0.82081,0.66884,0.99467
250.606,30.86621,-0.86557,0.56068,0.99318
253.606,31.14998,-0.90377,0.49615,0.99168
256.606,31.4336,-0.93482,0.453,0.99017
259.606,31.7182,-0.96389,0.42142,0.98865
262.606,32.00255,-0.98864,0.39723,0.98711
265.606,32.28703,-1.01633,0.38315,0.98557
268.606,32.5738,-1.03652,0.36873,0.98402
271.606,32.85953,-1.05868,0.35791,0.98245
274.606,33.1456,-1.08093,0.34814,0.98088
277.606,33.43175,-1.10182,0.34205,0.97929
280.606,33.71747,-1.12197,0.33712,0.97769
283.606,34.00403,-1.14128,0.33033,0.97609
286.606,34.2895,-1.16386,0.32227,0.97447
289.606,34.57544,-1.18383,0.31545,0.97284
292.606,34.8626,-1.20408,0.30829,0.9712
295.606,35.14891,-1.22648,0.30407,0.96955
298.606,35.43615,-1.24796,0.29849,0.96788
301.606,35.72309,-1.26813,0.292,0.96621
304.606,36.00997,-1.29156,0.28555,0.96452
307.606,36.29772,-1.31186,0.27626,0.96283
310.606,36.58517,-1.33587,0.26854,0.96112
313.606,36.87279,-1.35827,0.26124,0.9594
316.606,37.15992,-1.37939,0.25162,0.95768
319.606,37.44802,-1.40306,0.24332,0.95594
322.606,37.73587,-1.42513,0.23302,0.95419
325.606,38.02341,-1.44941,0.2255,0.95242
328.606,38.31239,-1.47338,0.21666,0.95065
331.606,38.6007,-1.49493,0.20645,0.94887
334.606,38.8899,-1.51801,0.19758,0.94707
337.606,39.17864,-1.53715,0.18742,0.94527
340.606,39.4675,-1.56052,0.17868,0.94345
343.606,39.75674,-1.58267,0.16983,0.94162
346.606,40.04618,-1.60581,0.16015,0.93979
349.606,40.3357,-1.62636,0.14814,0.93794
352.606,40.62523,-1.64847,0.137,0.93608
355.606,40.9139,-1.67,0.12664,0.9342
358.606,41.20466,-1.69064,0.11763,0.93232
361.606,41.49419,-1.71363,0.10606,0.93043
364.606,41.7851,-1.73617,0.0954057,0.92852
367.606,42.07515,-1.7578,0.08825827,0.92661
370.606,42.3658,-1.78024,0.08063512,0.92468
373.606,42.6567,-1.80207,0.07738231,0.92275
376.606,42.94745,-1.82257,0.07343253,0.9208
379.606,43.23812,-1.84524,0.07439245,0.91884
382.606,43.5291,-1.86565,0.07251725,0.91687
385.606,43.8204,-1.8853,0.07234289,0.91489
388.606,44.11193,-1.90519,0.0778108,0.9129
391.606,44.40388,-1.92354,0.08321632,0.91089
394.606,44.6961,-1.94177,0.0889239,0.90888
397.606,44.9882,-1.95864,0.09818082,0.90686
400.606,45.28086,-1.97473,0.10574,0.90482
403.606,45.57318,-1.98905,0.11709,0.90278
406.606,45.86589,-2.00557,0.12741,0.90072
409.606,46.1591,-2.01748,0.13576,0.89865
412.606,46.45224,-2.03122,0.14498,0.89657
415.606,46.74637,-2.04296,0.15245,0.89449
418.606,47.0396,-2.05529,0.16316,0.89239
421.606,47.333,-2.06661,0.16832,0.89028
424.606,47.6265,-2.07806,0.17481,0.88816
427.606,47.91928,-2.08907,0.18203,0.88603
430.606,48.21043,-2.09766,0.18949,0.88389
433.606,48.50502,-2.10782,0.19234,0.88173
436.606,48.79788,-2.11605,0.20014,0.87957
439.606,49.091,-2.12397,0.20228,0.8774
442.606,49.3842,-2.13518,0.20833,0.87522
445.606,49.6778,-2.14452,0.21178,0.87302
448.606,49.97235,-2.15185,0.21497,0.87082
451.606,50.26716,-2.16191,0.21819,0.8686
454.606,50.56422,-2.16904,0.21905,0.86638
457.606,50.86101,-2.17616,0.22187,0.86415
460.606,51.1588,-2.18281,0.22126,0.8619
463.606,51.45563,-2.18899,0.22452,0.85965
466.606,51.7517,-2.19601,0.22444,0.85738
469.606,52.04781,-2.20379,0.22633,0.85511
472.606,52.34403,-2.20916,0.22668,0.85282
475.606,52.63899,-2.21509,0.22715,0.85053
478.606,52.935,-2.22208,0.22447,0.84822
481.606,53.23059,-2.22805,0.22632,0.84591
484.606,53.52638,-2.23374,0.229,0.84358
487.606,53.8225,-2.23916,0.22847,0.84125
490.606,54.1193,-2.24407,0.23051,0.8389
493.606,54.41619,-2.2493,0.22906,0.83655
496.606,54.7128,-2.25348,0.2301,0.83419
499.606,55.01076,-2.25856,0.22917,0.83181
502.606,55.30862,-2.2624,0.23444,0.82943
505.606,55.6065,-2.26767,0.23729,0.82704
508.606,55.904,-2.27174,0.23644,0.82464
511.606,56.2013,-2.27523,0.23998,0.82223
514.606,56.49839,-2.28148,0.25529,0.81981
517.606,56.7949,-2.28377,0.26288,0.81738
520.606,57.09146,-2.2894,0.26527,0.81494
523.606,57.3881,-2.29216,0.26955,0.81249
526.606,57.6847,-2.29611,0.26901,0.81004
529.606,57.9819,-2.30029,0.27234,0.80757
532.606,58.2795,-2.30325,0.27371,0.8051
535.606,58.5777,-2.30885,0.27547,0.80262
538.606,58.87655,-2.3138,0.2753,0.80012
541.606,59.1756,-2.31639,0.27738,0.79762
544.606,59.47469,-2.31871,0.27995,0.79511
547.606,59.77375,-2.32367,0.28098,0.7926
550.606,60.07218,-2.32707,0.2797,0.79007
553.606,60.37073,-2.3296,0.28225,0.78754
556.606,60.67018,-2.33355,0.28336,0.78499
559.606,60.9692,-2.33761,0.28552,0.78244
562.606,61.26856,-2.34146,0.28601,0.77988
565.606,61.56776,-2.34618,0.28311,0.77731
568.606,61.86693,-2.3506,0.28496,0.77474
571.606,62.16595,-2.35213,0.28238,0.77215
574.606,62.46444,-2.35545,0.28072,0.76956
577.606,62.76359,-2.35942,0.27497,0.76696
580.606,63.06211,-2.36429,0.27409,0.76436
583.606,63.36166,-2.36786,0.26716,0.76174
586.606,63.6619,-2.37052,0.26353,0.75912
589.606,63.96244,-2.37595,0.25862,0.75649
592.606,64.26292,-2.37817,0.25376,0.75385
595.606,64.56275,-2.38261,0.2487,0.75121
598.606,64.86368,-2.38628,0.24445,0.74856
601.606,65.16441,-2.39006,0.2361,0.7459
604.606,65.46587,-2.39426,0.2284,0.74323
607.606,65.76729,-2.3982,0.22514,0.74056
610.606,66.06849,-2.40044,0.22111,0.73788
613.606,66.3695,-2.4048,0.21626,0.73519
616.606,66.66928,-2.40743,0.21295,0.7325
619.606,66.9692,-2.4127,0.20831,0.7298
622.606,67.2697,-2.41696,0.20379,0.72709
625.606,67.56952,-2.4206,0.19943,0.72438
628.606,67.87037,-2.42465,0.20009,0.72166
631.606,68.17102,-2.42849,0.19742,0.71893
634.606,68.47246,-2.43361,0.19411,0.7162
637.606,68.7739,-2.43642,0.19026,0.71346
640.606,69.07521,-2.44047,0.19494,0.71072
643.606,69.37558,-2.44495,0.19197,0.70797
646.606,69.67835,-2.45002,0.19495,0.70521
649.606,69.98001,-2.45398,0.19789,0.70245
652.606,70.28198,-2.45926,0.20586,0.69969
655.606,70.58344,-2.45952,0.21118,0.69691
658.606,70.8853,-2.46506,0.21819,0.69414
661.606,71.18653,-2.46902,0.22709,0.69135
664.606,71.4879,-2.47556,0.23617,0.68857
667.606,71.78995,-2.47966,0.2391,0.68577
670.606,72.09144,-2.48363,0.24233,0.68297
673.606,72.3943,-2.48746,0.23755,0.68017
676.606,72.69671,-2.49349,0.2281,0.67736
679.606,72.99945,-2.49539,0.21528,0.67455
682.606,73.3027,-2.50063,0.19642,0.67173
685.606,73.60517,-2.50319,0.17298,0.66891
688.606,73.9071,-2.5079,0.15804,0.66609
691.606,74.2084,-2.51051,0.14018,0.66326
694.606,74.51092,-2.51446,0.13136,0.66042
697.606,74.8133,-2.51715,0.12222,0.65759
700.606,75.11544,-2.51842,0.11357,0.65474
703.606,75.41768,-2.52237,0.10577,0.6519
706.606,75.71987,-2.52512,0.09951756,0.64905
709.606,76.02263,-2.52645,0.09143101,0.6462
712.606,76.32552,-2.52873,0.08580085,0.64334
715.606,76.6285,-2.53037,0.07946321,0.64048
718.606,76.93202,-2.5344,0.07651634,0.63762
721.606,77.235,-2.53641,0.07300955,0.63475
724.606,77.53846,-2.53829,0.07019526,0.63188
727.606,77.8424,-2.54211,0.06869522,0.62901
730.606,78.14573,-2.54288,0.06877336,0.62614
733.606,78.4487,-2.5462,0.06761829,0.62326
736.606,78.75215,-2.54843,0.06966096,0.62038
739.606,79.0566,-2.54883,0.06645351,0.6175
742.606,79.3605,-2.55224,0.07042915,0.61461
745.606,79.66396,-2.55355,0.07341088,0.61172
748.606,79.96815,-2.55479,0.08094477,0.60884
748.906,79.99818,-2.55588,0.07761978,0.60855