Folder: fsri_materials_database/01_Data/Cellulose_Insulation/STA/N2/10K_min (part 2)

File: Cellulose_Insulation_STA_N2_10KData_220729_R3.csv
##Temp./Â°C,Time/min,Mass loss(subtr.2)/mg,DSC(subtr.2)/(mW/mg),Sensit./(uV/mW)
49.522,10.01,-0.04369,0.02759527,1.07023
52.622,11.3123,-0.04870581,0.12211,1.06937
55.722,11.75555,-0.04732912,0.17179,1.06851
58.822,12.13141,-0.0512541,0.20756,1.06763
61.922,12.48269,-0.05243156,0.23344,1.06675
65.022,12.82363,-0.05509463,0.25675,1.06585
68.122,13.15809,-0.05775026,0.28159,1.06495
71.222,13.4885,-0.06053068,0.30559,1.06403
74.322,13.8162,-0.06490692,0.32754,1.06311
77.422,14.14034,-0.06884122,0.35453,1.06217
80.522,14.4613,-0.07277874,0.37664,1.06123
83.622,14.77878,-0.07673785,0.39548,1.06027
86.722,15.09285,-0.08334432,0.41022,1.05931
89.822,15.4046,-0.08760432,0.42064,1.05833
92.922,15.71486,-0.09254942,0.42559,1.05735
96.022,16.02287,-0.0970708,0.42806,1.05635
99.122,16.32886,-0.10435,0.42686,1.05535
102.222,16.63304,-0.10706,0.42863,1.05433
105.322,16.93682,-0.11321,0.42436,1.0533
108.422,17.23946,-0.11779,0.41814,1.05227
111.522,17.54201,-0.12246,0.41021,1.05122
114.622,17.843,-0.12687,0.40137,1.05016
117.722,18.14658,-0.12954,0.39267,1.0491
120.822,18.44794,-0.13317,0.38411,1.04802
123.922,18.7491,-0.13744,0.37971,1.04693
127.022,19.04981,-0.14172,0.37598,1.04583
130.122,19.35,-0.14436,0.37076,1.04472
133.222,19.649,-0.14699,0.36922,1.0436
136.322,19.94857,-0.14963,0.36625,1.04247
139.422,20.24802,-0.1537,0.36409,1.04133
142.522,20.54567,-0.15764,0.36375,1.04018
145.622,20.84443,-0.1616,0.3617,1.03901
148.722,21.14167,-0.16658,0.36355,1.03784
151.822,21.4396,-0.16816,0.36395,1.03666
154.922,21.73724,-0.17231,0.36424,1.03546
158.022,22.03509,-0.17619,0.36479,1.03426
161.122,22.3319,-0.17873,0.36277,1.03304
164.222,22.62921,-0.18396,0.3605,1.03181
167.322,22.9258,-0.1867,0.35918,1.03058
170.422,23.22285,-0.19058,0.35796,1.02933
173.522,23.51912,-0.19323,0.35486,1.02807
176.622,23.81466,-0.19716,0.3511,1.0268
179.722,24.11119,-0.20178,0.34882,1.02552
182.822,24.40748,-0.2065,0.34667,1.02422
185.922,24.70306,-0.21045,0.34685,1.02292
189.022,24.99854,-0.2131,0.3491,1.02161
192.122,25.29331,-0.21848,0.35612,1.02028
195.222,25.58749,-0.22394,0.36502,1.01894
198.322,25.88096,-0.22922,0.37409,1.0176
201.422,26.17557,-0.23546,0.38293,1.01624
204.522,26.4698,-0.23954,0.38985,1.01487
207.622,26.7648,-0.24765,0.39701,1.01349
210.722,27.05898,-0.25504,0.40075,1.0121
213.822,27.35486,-0.2619,0.40734,1.01069
216.922,27.6502,-0.27104,0.41267,1.00928
220.022,27.9458,-0.28095,0.40009,1.00785
223.122,28.24083,-0.29234,0.42427,1.00642
226.222,28.5364,-0.31154,0.52693,1.00497
229.322,28.83315,-0.34743,0.74959,1.00351
232.422,29.13014,-0.41086,1.07062,1.00204
235.522,29.42888,-0.50652,1.30104,1.00055
238.622,29.72699,-0.61586,1.23238,0.99906
241.722,30.022,-0.71553,0.96601,0.99755
244.822,30.31533,-0.79447,0.70676,0.99604
247.922,30.60793,-0.85457,0.53119,0.99451
251.022,30.9014,-0.90106,0.42034,0.99297
254.122,31.1947,-0.93937,0.35457,0.99142
257.222,31.48837,-0.97138,0.31338,0.98986
260.322,31.78192,-0.99967,0.28105,0.98828
263.422,32.0766,-1.02449,0.26046,0.9867
266.522,32.37082,-1.04998,0.24483,0.9851
269.622,32.66545,-1.07507,0.22895,0.98349
272.722,32.96091,-1.09462,0.21768,0.98187
275.822,33.2565,-1.11887,0.20559,0.98024
278.922,33.552,-1.14012,0.20052,0.97859
282.022,33.84659,-1.16242,0.18975,0.97694
285.122,34.1425,-1.18117,0.18333,0.97527
288.222,34.43785,-1.20055,0.17429,0.97359
291.322,34.73372,-1.22384,0.16704,0.9719
294.422,35.02967,-1.24601,0.15767,0.9702
297.522,35.3256,-1.26888,0.15151,0.96848
300.622,35.62258,-1.29085,0.14472,0.96676
303.722,35.91925,-1.31175,0.13518,0.96502
306.822,36.2159,-1.33557,0.12707,0.96327
309.922,36.51341,-1.36216,0.11566,0.96151
313.022,36.8108,-1.38487,0.1051,0.95974
316.122,37.10816,-1.40657,0.09582373,0.95796
319.222,37.40634,-1.42847,0.08342047,0.95616
322.322,37.70428,-1.45433,0.07347198,0.95435
325.422,38.0022,-1.47714,0.06414847,0.95253
328.522,38.30044,-1.50166,0.05136322,0.9507
331.622,38.59874,-1.52518,0.04017459,0.94886
334.722,38.89702,-1.54713,0.02832347,0.947
337.822,39.19567,-1.56979,0.01846946,0.94514
340.922,39.49362,-1.59278,0.00771217,0.94326
344.022,39.7919,-1.6177,-0.004414544,0.94137
347.122,40.09041,-1.64026,-0.01820439,0.93947
350.222,40.38949,-1.6623,-0.03069207,0.93756
353.322,40.68821,-1.68494,-0.04339418,0.93563
356.422,40.98789,-1.70803,-0.05841013,0.93369
359.522,41.28699,-1.72944,-0.07151821,0.93174
362.622,41.5869,-1.75357,-0.0811013,0.92978
365.722,41.88671,-1.77441,-0.09260445,0.92781
368.822,42.18665,-1.7961,-0.10163,0.92583
371.922,42.48799,-1.82059,-0.11121,0.92383
375.022,42.78905,-1.84386,-0.11856,0.92183
378.122,43.0893,-1.86362,-0.12266,0.91981
381.222,43.38963,-1.88471,-0.12558,0.91778
384.322,43.69182,-1.90847,-0.12756,0.91574
387.422,43.9928,-1.92383,-0.12393,0.91368
390.522,44.29523,-1.9479,-0.12359,0.91162
393.622,44.59669,-1.96697,-0.11657,0.90954
396.722,44.8994,-1.98473,-0.1145,0.90745
399.822,45.20191,-2.00036,-0.10668,0.90535
402.922,45.50418,-2.01531,-0.10063,0.90324
406.022,45.8067,-2.03133,-0.09397041,0.90112
409.122,46.1088,-2.04662,-0.08461266,0.89899
412.222,46.41109,-2.06121,-0.07730338,0.89684
415.322,46.71325,-2.07289,-0.07252428,0.89468
418.422,47.01547,-2.08552,-0.06295362,0.89252
421.522,47.31795,-2.09922,-0.06045322,0.89034
424.622,47.62099,-2.10982,-0.05143379,0.88815
427.722,47.92408,-2.12042,-0.04694692,0.88594
430.822,48.22773,-2.12911,-0.0443564,0.88373
433.922,48.531,-2.13907,-0.04190467,0.88151
437.022,48.83468,-2.14979,-0.03886071,0.87927
440.122,49.13856,-2.158,-0.03684747,0.87702
443.222,49.443,-2.16823,-0.03547772,0.87477
446.322,49.74742,-2.17866,-0.02905034,0.8725
449.422,50.0512,-2.18493,-0.03146002,0.87022
452.522,50.3553,-2.19212,-0.03058636,0.86793
455.622,50.65965,-2.2031,-0.03149317,0.86562
458.722,50.96385,-2.21042,-0.03311533,0.86331
461.822,51.2682,-2.21707,-0.03603896,0.86099
464.922,51.57268,-2.22431,-0.04019917,0.85865
468.022,51.87782,-2.23266,-0.04321859,0.85631
471.122,52.18282,-2.23794,-0.04988867,0.85395
474.222,52.4882,-2.24636,-0.04936707,0.85159
477.322,52.7935,-2.25176,-0.0540122,0.84921
480.422,53.09873,-2.2579,-0.05826672,0.84682
483.522,53.4037,-2.26565,-0.05989132,0.84442
486.622,53.7087,-2.27053,-0.06126797,0.84202
489.722,54.0146,-2.27486,-0.06380695,0.8396
492.822,54.32036,-2.28054,-0.06786987,0.83717
495.922,54.6264,-2.2878,-0.06668233,0.83473
499.022,54.93314,-2.29239,-0.06730003,0.83228
502.122,55.23944,-2.29442,-0.06780165,0.82982
505.222,55.5454,-2.30348,-0.07138438,0.82735
508.322,55.8521,-2.30796,-0.07143597,0.82487
511.422,56.15812,-2.31048,-0.06291674,0.82238
514.522,56.46552,-2.31583,-0.05601473,0.81988
517.622,56.77234,-2.32168,-0.05260165,0.81737
520.722,57.07897,-2.32619,-0.04971625,0.81485
523.822,57.3867,-2.33136,-0.04831505,0.81232
526.922,57.6946,-2.33431,-0.04672041,0.80978
530.022,58.00189,-2.33827,-0.04936652,0.80723
533.122,58.3092,-2.34437,-0.04674502,0.80467
536.222,58.61694,-2.34838,-0.04574064,0.8021
539.322,58.92475,-2.35255,-0.04283461,0.79953
542.422,59.2328,-2.3556,-0.04003656,0.79694
545.522,59.5412,-2.36214,-0.03820275,0.79435
548.622,59.84998,-2.36352,-0.03610371,0.79174
551.722,60.15906,-2.3689,-0.03288935,0.78913
554.822,60.46906,-2.37307,-0.03096582,0.78651
557.922,60.77836,-2.37672,-0.02680417,0.78387
561.022,61.08721,-2.38095,-0.02680751,0.78123
564.122,61.3964,-2.38735,-0.03322469,0.77859
567.222,61.7047,-2.38867,-0.02452591,0.77593
570.322,62.0137,-2.39292,-0.02206073,0.77326
573.422,62.3227,-2.39715,-0.01264068,0.77059
576.522,62.6319,-2.4036,-0.009917487,0.7679
579.622,62.94163,-2.40623,-0.0138343,0.76521
582.722,63.25161,-2.41119,-0.01792135,0.76251
585.822,63.5613,-2.41436,-0.0291888,0.75981
588.922,63.8707,-2.41836,-0.02922897,0.75709
592.022,64.17962,-2.42442,-0.03763806,0.75437
595.122,64.49016,-2.42819,-0.03981474,0.75163
598.222,64.80036,-2.43291,-0.04728493,0.7489
601.322,65.11091,-2.4362,-0.05246319,0.74615
604.422,65.42112,-2.43884,-0.05669441,0.74339
607.522,65.73182,-2.44707,-0.06141405,0.74063
610.622,66.04234,-2.44949,-0.06825533,0.73786
613.722,66.35288,-2.45213,-0.07712106,0.73509
616.822,66.66339,-2.45947,-0.08104388,0.7323
619.922,66.97495,-2.4626,-0.08457588,0.72951
623.022,67.2869,-2.46714,-0.08734742,0.72672
626.122,67.59818,-2.47302,-0.09135118,0.72391
629.222,67.90902,-2.47319,-0.0925748,0.7211
632.322,68.21941,-2.47869,-0.09305133,0.71828
635.422,68.53041,-2.48235,-0.09817882,0.71546
638.522,68.84096,-2.48757,-0.09881811,0.71263
641.622,69.15207,-2.4931,-0.10412,0.70979
644.722,69.4635,-2.49711,-0.10885,0.70695
647.822,69.77471,-2.49964,-0.10974,0.7041
650.922,70.08566,-2.50408,-0.10782,0.70124
654.022,70.3972,-2.50954,-0.10025,0.69838
657.122,70.70881,-2.51378,-0.09471358,0.69551
660.222,71.02118,-2.52051,-0.08919575,0.69264
663.322,71.33284,-2.5235,-0.08088316,0.68976
666.422,71.64413,-2.52739,-0.07355027,0.68688
669.522,71.95531,-2.53445,-0.0681433,0.68399
672.622,72.26771,-2.53884,-0.07097437,0.68109
675.722,72.58061,-2.54357,-0.07364594,0.67819
678.822,72.89341,-2.55032,-0.08289988,0.67529
681.922,73.20596,-2.55386,-0.09916011,0.67238
685.022,73.51869,-2.55985,-0.11737,0.66946
688.122,73.83136,-2.56114,-0.13715,0.66654
691.222,74.14327,-2.56453,-0.14973,0.66362
694.322,74.4556,-2.5697,-0.15675,0.66069
697.422,74.76748,-2.56975,-0.16327,0.65776
700.522,75.0805,-2.57376,-0.1651,0.65482
703.622,75.3933,-2.57731,-0.16888,0.65188
706.722,75.7059,-2.58016,-0.16931,0.64894
709.822,76.0184,-2.58276,-0.17278,0.64599
712.922,76.33097,-2.58468,-0.16806,0.64304
716.022,76.6442,-2.58876,-0.16747,0.64008
719.122,76.9571,-2.59054,-0.16903,0.63712
722.222,77.26993,-2.59221,-0.16778,0.63416
725.322,77.5827,-2.59561,-0.1688,0.6312
728.422,77.89675,-2.59824,-0.16443,0.62823
731.522,78.2102,-2.59955,-0.16319,0.62526
734.622,78.52395,-2.60242,-0.16496,0.62228
737.722,78.83742,-2.60505,-0.16443,0.61931
740.822,79.15082,-2.60791,-0.16676,0.61633
743.922,79.4644,-2.61041,-0.16502,0.61335
747.022,79.77775,-2.6126,-0.16415,0.61036
749.122,79.99035,-2.61394,-0.16615,0.60834