Folder: fsri_materials_database/01_Data/Microfiber_Sofa_Polyester_Microfiber/MCC

Note: 01_Data/README.md
# Materials and Products Database
## 01_Data

Raw data generated from each apparatus are included here in plain-text format. The data is organized first by material, next by the short name of test apparatus used, and where applicable additional filtering by test settings.

### material.json

Each material directory contains a json file of the same name as the material. This file links the data stored in the repository as well as data and graphs produced by the accompanying scripts (__02_Scripts__) to the respective landing page for the material on the front-end website.

File: Microfiber_Sofa_Polyester_Microfiber_MCC_30K_min_220224_R1.txt
Sample ID:	C:\MCC\MCC Cal\Test\Polyester_Microfiber_81A_MCC_30K)min_220224_R1.txt
Sample Weight (mg):	4.34
Heating Rate (C/s):	0.5
Combustor Temp (C):	900
N2 Flow Rate (cc/min):	80
O2 Flow Rate (cc/min):	20
Calibration File:	C:\MCC\MCC Cal\Coeff1 JN10440_30_210304.txt.txt
T Correction Coefficients:	0	1.024463	0
Time Shift (s):	14
*
Time (s)	Temperature (C)	N2 flow rate (cc/min)	O2 flow rate (cc/min)	Flow Rate (cc/min)	Oxygen (%)	HRR (W/g)	Heating rate (C/s)
0.000	113.686	80.004	19.993	103.732	20.122	-0.059	-0.020
8.000	113.673	80.003	19.993	103.733	20.128	-0.495	-0.000
16.000	113.630	80.003	19.993	103.747	20.122	-0.059	-0.013
24.000	113.696	80.004	19.992	103.795	20.113	0.592	0.037
32.000	113.957	80.002	19.994	103.840	20.099	1.624	0.012
40.000	114.589	80.004	19.993	103.873	20.095	1.916	0.064
48.000	115.508	80.005	19.993	103.869	20.094	1.998	0.113
56.000	116.700	80.006	19.994	103.888	20.090	2.285	0.156
64.000	118.178	80.002	19.995	103.950	20.082	2.916	0.197
72.000	120.100	80.004	19.993	103.951	20.076	3.329	0.271
80.000	122.357	80.004	19.994	103.964	20.078	3.233	0.308
88.001	124.830	80.003	19.993	103.967	20.076	3.337	0.351
96.000	127.593	80.002	19.992	104.002	20.070	3.838	0.343
104.000	130.618	80.004	19.993	103.994	20.069	3.858	0.355
112.000	133.859	80.005	19.994	103.990	20.068	3.999	0.409
120.000	137.237	80.005	19.995	103.988	20.065	4.214	0.412
128.000	140.813	80.004	19.994	103.994	20.067	4.032	0.455
136.000	144.472	80.006	19.993	103.995	20.060	4.536	0.470
144.000	148.341	80.003	19.993	103.991	20.063	4.312	0.539
152.000	152.213	80.003	19.994	104.003	20.063	4.342	0.488
160.000	156.116	80.003	19.993	103.985	20.064	4.275	0.478
168.000	160.159	80.003	19.993	103.991	20.065	4.220	0.501
176.000	164.249	80.003	19.994	103.987	20.064	4.225	0.504
184.000	168.397	80.003	19.993	103.979	20.070	3.819	0.513
192.000	172.526	80.006	19.993	103.956	20.067	4.039	0.560
200.000	176.549	80.004	19.992	103.951	20.070	3.786	0.484
208.000	180.580	80.005	19.993	103.955	20.073	3.622	0.471
216.001	184.677	80.006	19.994	103.951	20.071	3.744	0.508
224.000	188.691	80.003	19.995	103.952	20.070	3.824	0.507
232.000	192.683	80.003	19.993	103.948	20.070	3.795	0.504
240.000	196.559	80.003	19.994	103.946	20.071	3.752	0.487
248.000	200.469	80.003	19.994	103.940	20.070	3.810	0.509
256.000	204.353	80.003	19.994	103.939	20.070	3.834	0.490
264.000	208.353	80.004	19.993	103.947	20.072	3.646	0.535
272.000	212.222	80.005	19.993	103.946	20.070	3.823	0.491
280.000	216.148	80.005	19.993	103.944	20.071	3.744	0.504
288.000	220.076	80.004	19.992	103.927	20.071	3.715	0.473
296.000	223.987	80.006	19.993	103.924	20.070	3.823	0.478
304.000	227.951	80.004	19.993	103.919	20.067	4.008	0.506
312.000	231.934	80.002	19.993	103.919	20.070	3.841	0.504
320.000	235.926	80.003	19.993	103.909	20.072	3.688	0.507
328.000	239.936	80.003	19.993	103.914	20.069	3.919	0.509
336.000	243.944	80.003	19.994	103.913	20.070	3.819	0.532
344.000	247.953	80.002	19.995	103.914	20.073	3.621	0.503
352.000	251.991	80.004	19.993	103.916	20.074	3.506	0.502
360.000	256.019	80.003	19.993	103.915	20.069	3.900	0.512
368.000	260.026	80.004	19.994	103.910	20.072	3.663	0.486
376.000	264.013	80.004	19.993	103.900	20.069	3.890	0.486
384.000	268.031	80.005	19.992	103.908	20.071	3.751	0.521
392.000	272.085	80.003	19.991	103.910	20.069	3.914	0.513
400.000	276.090	80.003	19.992	103.906	20.074	3.545	0.493
408.000	280.137	80.004	19.995	103.910	20.070	3.796	0.505
416.000	284.162	80.000	19.993	103.900	20.069	3.863	0.502
424.000	288.160	80.001	19.993	103.911	20.068	3.963	0.485
432.000	292.199	80.004	19.994	103.904	20.065	4.167	0.488
440.000	296.228	80.004	19.994	103.898	20.063	4.359	0.496
448.000	300.217	80.006	19.993	103.901	20.063	4.308	0.514
456.000	304.195	80.005	19.993	103.887	20.056	4.836	0.474
464.000	308.185	80.005	19.993	103.889	20.061	4.469	0.442
472.000	312.231	80.004	19.993	103.894	20.058	4.677	0.502
480.000	316.294	80.004	19.993	103.895	20.060	4.581	0.494
488.000	320.346	80.003	19.994	103.892	20.052	5.129	0.483
496.000	324.378	80.003	19.993	103.884	20.050	5.305	0.477
504.000	328.449	80.002	19.994	103.887	20.045	5.643	0.525
512.000	332.432	80.002	19.994	103.892	20.049	5.384	0.508
520.000	336.518	80.003	19.993	103.877	20.043	5.810	0.528
528.000	340.540	80.002	19.993	103.880	20.037	6.253	0.490
536.000	344.590	80.003	19.993	103.877	20.037	6.242	0.510
544.000	348.618	80.006	19.992	103.877	20.031	6.694	0.536
552.000	352.695	80.004	19.992	103.882	20.027	7.049	0.525
560.000	356.715	80.002	19.995	103.878	20.015	7.884	0.501
568.000	360.777	80.004	19.992	103.888	20.007	8.492	0.538
576.000	364.765	80.006	19.994	103.889	19.988	9.910	0.511
584.000	368.783	80.002	19.993	103.893	19.976	10.835	0.514
592.000	372.815	80.004	19.995	103.905	19.955	12.405	0.528
600.000	376.895	80.005	19.994	103.911	19.931	14.192	0.466
608.000	380.989	80.004	19.993	103.924	19.907	15.998	0.531
616.000	385.151	80.005	19.993	103.940	19.894	16.991	0.523
624.000	389.384	80.006	19.994	103.948	19.867	18.999	0.556
632.000	393.573	80.004	19.994	103.948	19.833	21.506	0.523
640.000	397.759	80.003	19.994	103.977	19.773	25.985	0.488
648.000	401.902	80.003	19.992	104.003	19.690	32.209	0.510
656.000	405.968	80.005	19.993	103.995	19.612	38.102	0.489
664.001	410.086	80.003	19.993	104.078	19.494	46.932	0.529
672.000	414.075	80.003	19.992	104.094	19.384	55.202	0.473
680.000	418.087	80.004	19.993	104.186	19.235	66.448	0.523
688.000	422.054	80.004	19.993	104.252	19.031	81.764	0.507
696.000	425.997	80.005	19.993	104.332	18.830	96.824	0.488
704.000	430.046	80.007	19.993	104.671	18.250	140.815	0.512
712.000	434.106	80.006	19.993	104.602	18.092	152.658	0.509
720.000	438.204	80.002	19.993	104.584	17.985	160.705	0.514
728.000	442.301	80.004	19.992	104.654	17.856	170.465	0.484
736.000	446.426	80.003	19.992	104.683	17.783	175.896	0.514
744.000	450.515	80.004	19.993	104.655	17.833	171.971	0.521
752.000	454.594	80.003	19.994	104.580	18.050	155.423	0.508
760.000	458.640	80.003	19.994	104.452	18.394	129.577	0.494
768.000	462.623	80.005	19.992	104.302	18.857	94.585	0.471
776.000	466.651	80.006	19.993	104.175	19.264	64.110	0.527
784.000	470.603	80.005	19.993	104.061	19.542	43.301	0.494
792.000	474.623	80.006	19.993	103.990	19.721	29.913	0.513
800.000	478.592	80.003	19.995	103.901	19.827	21.999	0.499
808.000	482.495	80.003	19.994	103.921	19.903	16.272	0.463
816.000	486.465	80.003	19.995	103.904	19.952	12.641	0.495
824.000	490.535	80.005	19.994	103.870	19.977	10.722	0.514
832.000	494.663	80.002	19.993	103.870	20.002	8.855	0.525
840.000	498.778	80.004	19.991	103.833	20.016	7.845	0.483
848.000	503.013	80.006	19.993	103.836	20.031	6.716	0.542
856.000	507.212	80.004	19.993	103.834	20.031	6.740	0.505
864.000	511.456	80.005	19.992	103.835	20.034	6.481	0.542
872.000	515.698	80.007	19.993	103.841	20.039	6.122	0.515
880.000	519.954	80.004	19.993	103.832	20.040	6.081	0.534
888.000	524.168	80.004	19.992	103.791	20.038	6.218	0.505
896.000	528.329	80.001	19.993	103.801	20.037	6.246	0.504
904.000	532.491	80.003	19.995	103.774	20.036	6.365	0.510
912.000	536.676	80.003	19.994	103.793	20.032	6.609	0.549
920.000	540.830	80.003	19.995	103.810	20.039	6.132	0.501
928.000	544.961	80.005	19.993	103.807	20.044	5.742	0.507
936.000	549.151	80.003	19.994	103.822	20.037	6.247	0.538
944.000	553.235	80.004	19.991	103.807	20.043	5.808	0.512
952.000	557.346	80.006	19.992	103.798	20.041	5.969	0.510
960.000	561.409	80.005	19.994	103.809	20.040	6.014	0.516
968.000	565.434	80.002	19.995	103.795	20.039	6.097	0.511
976.000	569.469	80.004	19.994	103.797	20.038	6.167	0.476
984.000	573.543	80.001	19.991	103.797	20.040	6.059	0.481
992.000	577.720	80.002	19.994	103.797	20.037	6.301	0.481
1000.000	581.837	80.002	19.994	103.798	20.044	5.745	0.524
1008.000	585.945	80.007	19.995	103.796	20.044	5.716	0.533
1016.000	590.112	80.004	19.994	103.795	20.041	5.963	0.534
1024.000	594.232	80.004	19.993	103.796	20.046	5.588	0.517
1032.000	598.459	80.007	19.993	103.791	20.041	5.991	0.556
1040.000	602.441	80.004	19.992	103.791	20.047	5.496	0.483
1048.000	606.510	80.002	19.992	103.793	20.044	5.746	0.503
1056.000	610.498	80.002	19.993	103.779	20.046	5.631	0.483
1064.000	614.546	80.002	19.994	103.783	20.047	5.547	0.505
1072.000	618.516	80.003	19.994	103.794	20.055	4.954	0.489
1080.000	622.520	80.003	19.993	103.793	20.057	4.780	0.523
1088.000	626.506	80.004	19.993	103.785	20.061	4.487	0.499
1096.000	630.544	80.005	19.994	103.780	20.059	4.619	0.509
1104.001	634.592	80.005	19.994	103.778	20.060	4.554	0.493
1112.000	638.639	80.006	19.994	103.780	20.064	4.246	0.491
1120.000	642.786	80.004	19.994	103.781	20.061	4.453	0.523
1128.000	646.873	80.001	19.992	103.768	20.068	3.972	0.532
1136.000	650.928	80.004	19.994	103.766	20.068	3.950	0.506
1144.001	655.063	80.002	19.992	103.756	20.075	3.448	0.541
1152.000	659.118	80.003	19.994	103.760	20.073	3.607	0.529
1160.000	663.250	80.005	19.994	103.760	20.077	3.310	0.530
1168.000	667.270	80.006	19.995	103.766	20.085	2.706	0.517
1176.001	671.344	80.003	19.993	103.759	20.083	2.841	0.510
1184.000	675.508	80.003	19.994	103.763	20.084	2.796	0.527
1192.001	679.606	80.006	19.994	103.759	20.088	2.451	0.512
1200.001	683.669	80.004	19.994	103.753	20.088	2.484	0.506
1208.000	687.765	80.004	19.992	103.753	20.089	2.398	0.570
1216.000	691.788	80.003	19.993	103.755	20.088	2.441	0.520
1224.000	695.969	80.004	19.992	103.755	20.093	2.089	0.534
1232.000	700.008	80.003	19.993	103.758	20.095	1.942	0.517
1240.000	704.041	80.004	19.993	103.758	20.093	2.060	0.513
1248.000	708.098	80.004	19.993	103.752	20.095	1.971	0.546
1256.001	712.084	80.003	19.993	103.757	20.095	1.944	0.493
1264.000	716.100	80.005	19.993	103.754	20.097	1.783	0.514
1272.000	720.159	80.005	19.993	103.732	20.101	1.518	0.510
1280.000	724.203	80.003	19.996	103.738	20.098	1.706	0.526
1288.000	728.201	80.005	19.993	103.752	20.102	1.426	0.500
1296.001	732.231	80.004	19.993	103.750	20.099	1.640	0.502
1304.000	736.308	80.003	19.993	103.754	20.099	1.628	0.522
1312.000	740.389	80.003	19.993	103.757	20.100	1.591	0.496
1317.500	743.286	80.004	19.992	103.757	20.098	1.716	0.503

File: Microfiber_Sofa_Polyester_Microfiber_MCC_30K_min_220228_R3.txt
Sample ID:	C:\MCC\MCC Cal\Test\Polyester_Microfiber_81A_MCC_30K_min_220228_R3.txt
Sample Weight (mg):	4.34
Heating Rate (C/s):	0.5
Combustor Temp (C):	900
N2 Flow Rate (cc/min):	80
O2 Flow Rate (cc/min):	20
Calibration File:	C:\MCC\MCC Cal\Coeff1 JN10440_30_210304.txt.txt
T Correction Coefficients:	0	1.024463	0
Time Shift (s):	14
*
Time (s)	Temperature (C)	N2 flow rate (cc/min)	O2 flow rate (cc/min)	Flow Rate (cc/min)	Oxygen (%)	HRR (W/g)	Heating rate (C/s)
0.000	112.375	80.010	19.995	103.671	20.094	-0.209	-0.009
8.000	112.438	80.011	19.993	103.667	20.091	0.012	0.025
16.000	112.478	80.009	19.994	103.718	20.082	0.695	0.028
24.000	112.779	80.011	19.995	103.826	20.067	1.793	0.085
32.000	113.529	80.010	19.992	103.855	20.060	2.329	0.096
40.001	114.716	80.008	19.993	103.869	20.056	2.611	0.206
48.000	116.191	80.009	19.994	103.890	20.051	3.040	0.214
56.001	118.063	80.009	19.993	103.905	20.050	3.064	0.234
64.000	120.278	80.008	19.994	103.899	20.046	3.421	0.301
72.000	122.801	80.009	19.994	103.905	20.048	3.221	0.326
80.000	125.472	80.008	19.994	103.915	20.045	3.449	0.342
88.000	128.390	80.010	19.995	103.929	20.040	3.869	0.401
96.001	131.509	80.009	19.993	103.944	20.041	3.744	0.395
104.000	134.857	80.010	19.994	103.953	20.037	4.075	0.432
112.001	138.456	80.011	19.993	103.964	20.040	3.845	0.468
120.001	142.204	80.008	19.995	103.946	20.037	4.042	0.490
128.000	146.120	80.007	19.993	103.946	20.038	4.021	0.502
136.000	150.097	80.009	19.993	103.945	20.037	4.060	0.512
144.000	154.099	80.008	19.995	103.941	20.036	4.117	0.497
152.000	158.193	80.007	19.994	103.939	20.038	3.994	0.527
160.000	162.267	80.008	19.994	103.933	20.038	4.003	0.523
168.000	166.429	80.009	19.994	103.939	20.041	3.789	0.530
176.000	170.538	80.009	19.995	103.919	20.042	3.693	0.562
184.000	174.608	80.010	19.993	103.913	20.039	3.918	0.522
192.000	178.631	80.012	19.991	103.901	20.041	3.762	0.498
200.000	182.677	80.009	19.994	103.899	20.041	3.788	0.512
208.000	186.678	80.009	19.994	103.900	20.043	3.604	0.494
216.000	190.661	80.009	19.994	103.895	20.045	3.484	0.507
224.000	194.583	80.009	19.994	103.891	20.048	3.277	0.519
232.000	198.493	80.009	19.992	103.893	20.046	3.372	0.477
240.000	202.389	80.008	19.993	103.891	20.046	3.394	0.480
248.000	206.258	80.009	19.994	103.893	20.046	3.416	0.492
256.000	210.131	80.011	19.993	103.882	20.048	3.237	0.519
264.000	213.977	80.010	19.995	103.873	20.044	3.518	0.522
272.000	217.908	80.011	19.993	103.880	20.044	3.557	0.519
280.000	221.724	80.010	19.993	103.874	20.047	3.291	0.477
288.000	225.718	80.008	19.994	103.891	20.047	3.311	0.501
296.000	229.715	80.009	19.993	103.882	20.052	2.966	0.503
304.000	233.702	80.009	19.994	103.884	20.044	3.512	0.520
312.000	237.754	80.008	19.993	103.890	20.047	3.317	0.506
320.000	241.691	80.009	19.996	103.898	20.051	3.006	0.502
328.000	245.728	80.010	19.994	103.881	20.046	3.410	0.517
336.000	249.764	80.009	19.994	103.885	20.046	3.392	0.535
344.000	253.783	80.010	19.995	103.879	20.045	3.469	0.469
352.000	257.853	80.010	19.993	103.865	20.046	3.383	0.557
360.001	261.827	80.008	19.994	103.865	20.043	3.592	0.507
368.000	265.842	80.008	19.994	103.864	20.044	3.531	0.500
376.000	269.747	80.007	19.994	103.869	20.040	3.878	0.485
384.000	273.776	80.008	19.994	103.864	20.041	3.744	0.493
392.000	277.685	80.008	19.994	103.865	20.046	3.418	0.472
400.000	281.682	80.008	19.995	103.864	20.045	3.452	0.535
408.000	285.629	80.009	19.993	103.863	20.045	3.497	0.484
416.000	289.609	80.009	19.993	103.864	20.043	3.655	0.469
424.000	293.597	80.008	19.995	103.864	20.039	3.898	0.465
432.000	297.621	80.012	19.994	103.862	20.039	3.931	0.496
440.000	301.694	80.009	19.994	103.869	20.039	3.917	0.506
448.000	305.653	80.007	19.994	103.867	20.035	4.233	0.468
456.000	309.752	80.008	19.996	103.862	20.033	4.355	0.503
464.000	313.866	80.008	19.994	103.860	20.031	4.480	0.511
472.000	317.878	80.009	19.993	103.863	20.031	4.501	0.496
480.000	321.946	80.008	19.994	103.862	20.029	4.663	0.527
488.000	325.973	80.010	19.994	103.861	20.026	4.882	0.511
496.000	330.018	80.009	19.995	103.861	20.028	4.714	0.502
504.000	334.077	80.009	19.994	103.862	20.023	5.142	0.512
512.000	338.148	80.011	19.992	103.864	20.018	5.503	0.510
520.000	342.235	80.011	19.993	103.861	20.013	5.821	0.515
528.000	346.256	80.008	19.993	103.860	20.003	6.604	0.510
536.000	350.362	80.010	19.994	103.863	19.996	7.117	0.506
544.000	354.526	80.009	19.993	103.863	19.989	7.651	0.514
552.000	358.597	80.008	19.995	103.861	19.981	8.266	0.532
560.000	362.738	80.006	19.995	103.864	19.966	9.377	0.485
568.000	366.756	80.008	19.994	103.865	19.950	10.598	0.506
576.000	370.773	80.009	19.994	103.872	19.927	12.309	0.471
584.000	374.823	80.009	19.993	103.875	19.905	13.921	0.484
592.000	378.837	80.010	19.994	103.896	19.875	16.183	0.516
600.000	382.937	80.011	19.993	103.890	19.852	17.920	0.480
608.000	387.074	80.008	19.993	103.896	19.827	19.729	0.517
616.000	391.158	80.008	19.993	103.925	19.788	22.653	0.517
624.000	395.251	80.006	19.994	103.935	19.747	25.712	0.500
632.000	399.292	80.008	19.993	103.977	19.680	30.757	0.488
640.000	403.326	80.007	19.993	104.003	19.581	38.225	0.499
648.000	407.319	80.007	19.994	104.003	19.473	46.226	0.518
656.000	411.442	80.009	19.994	103.999	19.284	60.495	0.515
664.000	415.461	80.008	19.993	104.210	19.205	66.384	0.516
672.000	419.527	80.010	19.993	104.201	19.030	79.604	0.503
680.000	423.600	80.011	19.993	104.304	18.775	98.747	0.490
688.000	427.672	80.009	19.993	104.309	18.477	121.301	0.491
696.000	431.732	80.008	19.993	104.541	18.199	142.319	0.512
704.000	435.943	80.009	19.992	104.491	18.033	154.818	0.536
712.000	440.026	80.009	19.994	104.607	17.889	165.635	0.519
720.000	444.092	80.009	19.994	104.621	17.789	173.160	0.493
728.000	448.233	80.008	19.992	104.616	17.826	170.238	0.550
736.000	452.263	80.008	19.993	104.581	18.004	156.692	0.504
744.000	456.356	80.009	19.993	104.469	18.316	133.116	0.536
752.000	460.424	80.008	19.994	104.334	18.742	101.066	0.410
760.000	464.389	80.010	19.993	104.217	19.161	69.625	0.002
768.000	468.515	80.009	19.993	104.098	19.458	47.384	0.402
776.000	472.544	80.009	19.993	104.017	19.645	33.331	0.544
784.000	476.524	80.008	19.994	103.974	19.771	23.943	0.471
792.000	480.447	80.009	19.993	103.930	19.850	18.060	0.517
800.000	484.391	80.010	19.993	103.902	19.899	14.375	0.450
808.000	488.422	80.009	19.994	103.879	19.936	11.580	0.521
816.001	492.452	80.009	19.995	103.865	19.957	10.072	0.495
824.000	496.610	80.010	19.995	103.860	19.974	8.771	0.492
832.001	500.711	80.009	19.994	103.850	19.980	8.291	0.527
840.000	504.858	80.008	19.994	103.840	19.983	8.064	0.514
848.000	508.995	80.011	19.993	103.822	19.986	7.834	0.496
856.000	513.058	80.008	19.993	103.821	19.987	7.762	0.493
864.000	517.255	80.009	19.994	103.828	19.990	7.586	0.493
872.000	521.418	80.008	19.994	103.822	19.989	7.668	0.523
880.000	525.532	80.010	19.993	103.824	19.987	7.765	0.493
888.000	529.713	80.009	19.994	103.824	19.988	7.733	0.552
896.000	533.726	80.009	19.994	103.825	19.982	8.175	0.519
904.000	537.777	80.010	19.994	103.825	19.986	7.869	0.492
912.000	541.736	80.009	19.994	103.821	19.980	8.341	0.465
920.000	545.732	80.010	19.993	103.822	19.978	8.455	0.504
928.000	549.785	80.011	19.994	103.822	19.981	8.274	0.516
936.000	553.842	80.011	19.994	103.827	19.978	8.483	0.549
944.000	557.910	80.007	19.994	103.820	19.975	8.674	0.496
952.000	561.921	80.008	19.994	103.820	19.976	8.627	0.482
960.000	565.959	80.009	19.993	103.824	19.974	8.797	0.507
968.000	569.956	80.008	19.992	103.822	19.969	9.142	0.518
976.000	573.924	80.008	19.992	103.820	19.969	9.131	0.512
984.000	577.953	80.011	19.994	103.815	19.967	9.270	0.510
992.000	581.955	80.011	19.993	103.813	19.963	9.624	0.516
1000.000	585.968	80.009	19.993	103.816	19.963	9.570	0.501
1008.000	590.095	80.011	19.994	103.825	19.963	9.583	0.513
1016.000	594.236	80.012	19.993	103.820	19.963	9.616	0.513
1024.000	598.432	80.009	19.993	103.817	19.963	9.556	0.509
1032.000	602.607	80.007	19.994	103.822	19.956	10.098	0.524
1040.000	606.739	80.008	19.994	103.818	19.954	10.249	0.510
1048.000	610.876	80.009	19.994	103.811	19.953	10.348	0.516
1056.001	615.009	80.007	19.993	103.819	19.953	10.337	0.522
1064.000	619.139	80.010	19.995	103.820	19.951	10.455	0.478
1072.000	623.219	80.011	19.992	103.803	19.953	10.332	0.507
1080.000	627.266	80.010	19.993	103.805	19.949	10.661	0.531
1088.001	631.348	80.009	19.993	103.793	19.949	10.633	0.512
1096.000	635.452	80.012	19.993	103.819	19.951	10.463	0.508
1104.000	639.602	80.010	19.995	103.819	19.953	10.342	0.541
1112.001	643.728	80.009	19.994	103.790	19.952	10.376	0.515
1120.000	647.869	80.009	19.995	103.803	19.948	10.710	0.542
1128.000	651.974	80.009	19.995	103.798	19.949	10.637	0.519
1136.001	656.094	80.009	19.996	103.808	19.950	10.561	0.498
1144.000	660.223	80.008	19.994	103.809	19.946	10.825	0.498
1152.000	664.427	80.009	19.994	103.817	19.951	10.468	0.541
1160.000	668.550	80.009	19.992	103.823	19.943	11.076	0.526
1168.000	672.688	80.009	19.993	103.797	19.946	10.844	0.517
1176.001	676.794	80.010	19.994	103.790	19.952	10.422	0.515
1184.000	680.845	80.011	19.992	103.817	19.949	10.619	0.491
1192.001	684.977	80.009	19.994	103.794	19.950	10.564	0.535
1200.000	689.064	80.008	19.994	103.787	19.947	10.752	0.503
1208.000	693.224	80.009	19.994	103.789	19.948	10.701	0.514
1216.000	697.368	80.010	19.994	103.789	19.946	10.862	0.518
1224.000	701.430	80.008	19.993	103.803	19.945	10.916	0.496
1232.000	705.591	80.007	19.994	103.793	19.949	10.615	0.534
1240.000	709.701	80.011	19.995	103.784	19.942	11.166	0.507
1248.000	713.867	80.010	19.993	103.785	19.939	11.387	0.519
1256.000	717.982	80.010	19.993	103.791	19.936	11.634	0.487
1264.000	722.098	80.011	19.993	103.788	19.937	11.490	0.526
1272.000	726.146	80.008	19.993	103.780	19.940	11.308	0.503
1280.000	730.153	80.009	19.992	103.787	19.935	11.708	0.493
1288.000	734.158	80.010	19.993	103.787	19.933	11.837	0.481
1296.001	738.127	80.009	19.994	103.791	19.929	12.094	0.489
1304.000	742.111	80.011	19.995	103.787	19.930	12.053	0.544
1310.500	745.304	80.009	19.994	103.785	19.927	12.305	0.486