Folder: fsri_materials_database/01_Data/Polyester_Batting_81B/MCC

Note: 01_Data/README.md
# Materials and Products Database
## 01_Data

Raw data generated from each apparatus are included here in plain-text format. The data is organized first by material, next by the short name of test apparatus used, and where applicable additional filtering by test settings.

### material.json

Each material directory contains a json file of the same name as the material. This file links the data stored in the repository as well as data and graphs produced by the accompanying scripts (__02_Scripts__) to the respective landing page for the material on the front-end website.

File: Polyester_Batting_81B_MCC_30K_min_220301_R1.txt
Sample ID:	C:\MCC\MCC Cal\Test\Polyester_Batting_81B_MCC_30K_min_220301_R1.txt
Sample Weight (mg):	4.52
Heating Rate (C/s):	0.5
Combustor Temp (C):	900
N2 Flow Rate (cc/min):	80
O2 Flow Rate (cc/min):	20
Calibration File:	C:\MCC\MCC Cal\Coeff1 JN10440_30_210304.txt.txt
T Correction Coefficients:	0	1.024463	0
Time Shift (s):	14
*
Time (s)	Temperature (C)	N2 flow rate (cc/min)	O2 flow rate (cc/min)	Flow Rate (cc/min)	Oxygen (%)	HRR (W/g)	Heating rate (C/s)
0.000	115.661	80.011	19.992	103.748	20.113	-0.079	-0.007
7.500	115.645	80.008	19.994	103.752	20.108	0.323	-0.024
15.000	115.717	80.008	19.993	103.777	20.105	0.487	0.015
22.500	115.887	80.009	19.994	103.846	20.093	1.341	0.029
30.000	116.344	80.010	19.995	103.917	20.089	1.625	0.091
37.500	117.267	80.009	19.994	103.941	20.080	2.305	0.163
45.000	118.603	80.010	19.994	103.955	20.074	2.731	0.205
52.500	120.247	80.010	19.994	103.949	20.076	2.620	0.197
60.000	122.228	80.010	19.993	103.941	20.076	2.596	0.250
67.500	124.412	80.009	19.993	103.966	20.073	2.791	0.309
75.000	126.713	80.010	19.994	103.962	20.075	2.680	0.333
82.500	129.287	80.011	19.993	103.978	20.069	3.063	0.338
90.000	131.960	80.008	19.994	103.973	20.071	2.961	0.383
97.500	134.800	80.009	19.994	103.979	20.077	2.553	0.398
105.000	137.859	80.010	19.994	103.979	20.069	3.126	0.445
112.500	141.085	80.009	19.994	103.986	20.071	2.938	0.458
120.000	144.453	80.008	19.993	103.984	20.067	3.249	0.456
127.501	147.876	80.006	19.995	103.982	20.060	3.758	0.434
135.000	151.411	80.008	19.995	103.980	20.070	3.031	0.479
142.500	155.030	80.012	19.993	103.982	20.063	3.546	0.501
150.000	158.729	80.009	19.993	103.980	20.069	3.108	0.474
157.500	162.460	80.012	19.993	103.970	20.064	3.478	0.468
165.001	166.378	80.011	19.996	103.969	20.067	3.224	0.513
172.501	170.171	80.010	19.994	103.975	20.069	3.103	0.468
180.000	174.080	80.009	19.993	103.941	20.072	2.859	0.527
187.500	177.858	80.009	19.995	103.941	20.072	2.850	0.541
195.000	181.674	80.009	19.995	103.939	20.069	3.071	0.520
202.500	185.454	80.008	19.994	103.939	20.077	2.534	0.486
210.001	189.183	80.009	19.995	103.939	20.082	2.128	0.444
217.501	192.984	80.010	19.995	103.917	20.080	2.272	0.518
225.001	196.675	80.011	19.994	103.924	20.080	2.282	0.467
232.500	200.352	80.010	19.995	103.904	20.077	2.530	0.529
240.000	203.977	80.011	19.995	103.912	20.074	2.734	0.490
247.501	207.614	80.012	19.993	103.904	20.078	2.437	0.500
255.001	211.260	80.009	19.994	103.909	20.078	2.435	0.478
262.500	214.889	80.008	19.994	103.908	20.078	2.419	0.469
270.000	218.624	80.009	19.994	103.909	20.079	2.349	0.479
277.500	222.291	80.008	19.993	103.906	20.081	2.199	0.488
285.000	226.045	80.010	19.993	103.902	20.081	2.240	0.513
292.500	229.849	80.008	19.995	103.902	20.079	2.401	0.531
300.000	233.600	80.010	19.995	103.893	20.080	2.335	0.497
307.500	237.302	80.010	19.994	103.892	20.084	2.042	0.475
315.000	240.917	80.010	19.994	103.880	20.085	1.931	0.473
322.500	244.500	80.010	19.994	103.891	20.086	1.903	0.465
330.000	248.068	80.009	19.994	103.875	20.081	2.242	0.478
337.500	251.748	80.008	19.994	103.884	20.085	1.959	0.518
345.000	255.385	80.008	19.994	103.900	20.080	2.311	0.485
352.500	259.114	80.010	19.995	103.892	20.082	2.180	0.474
360.000	262.839	80.010	19.994	103.878	20.084	2.026	0.489
367.500	266.610	80.009	19.994	103.874	20.087	1.768	0.478
375.000	270.532	80.010	19.993	103.867	20.088	1.759	0.545
382.500	274.400	80.011	19.993	103.872	20.083	2.075	0.520
390.000	278.242	80.009	19.994	103.879	20.083	2.125	0.486
397.501	282.102	80.029	19.997	103.880	20.087	1.838	0.484
405.000	285.997	80.011	19.994	103.868	20.089	1.671	0.506
412.500	289.889	80.010	19.995	103.864	20.087	1.788	0.531
420.000	293.755	80.009	19.995	103.853	20.086	1.843	0.492
427.500	297.550	80.007	19.994	103.861	20.090	1.598	0.529
435.000	301.309	80.009	19.994	103.861	20.087	1.798	0.557
442.500	305.069	80.009	19.993	103.861	20.088	1.752	0.469
450.000	308.864	80.008	19.993	103.864	20.087	1.830	0.517
457.500	312.633	80.010	19.993	103.861	20.087	1.802	0.524
465.000	316.375	80.011	19.993	103.863	20.086	1.855	0.487
472.500	320.162	80.010	19.994	103.867	20.090	1.620	0.510
480.000	323.937	80.010	19.994	103.863	20.087	1.814	0.487
487.500	327.765	80.011	19.995	103.857	20.088	1.697	0.497
495.000	331.535	80.012	19.992	103.860	20.089	1.637	0.495
502.500	335.423	80.009	19.993	103.859	20.089	1.627	0.523
510.000	339.228	80.009	19.996	103.855	20.084	2.007	0.521
517.500	342.973	80.007	19.995	103.838	20.088	1.697	0.471
525.000	346.698	80.009	19.994	103.848	20.083	2.095	0.479
532.500	350.503	80.009	19.993	103.853	20.079	2.356	0.504
540.000	354.280	80.010	19.993	103.852	20.079	2.386	0.497
547.500	358.173	80.012	19.995	103.848	20.068	3.184	0.544
555.000	361.990	80.009	19.993	103.846	20.064	3.465	0.476
562.500	366.022	80.011	19.992	103.856	20.059	3.811	0.877
570.000	369.668	80.012	19.993	103.858	20.051	4.366	0.510
577.500	373.565	80.014	19.992	103.850	20.034	5.588	0.537
585.000	377.519	80.008	19.993	103.862	20.023	6.378	0.528
592.500	381.317	80.009	19.994	103.865	20.003	7.792	0.500
600.000	385.221	80.008	19.994	103.872	19.973	9.969	0.520
607.500	388.998	80.008	19.993	103.883	19.938	12.518	0.522
615.000	392.814	80.007	19.996	103.901	19.890	15.953	0.456
622.500	396.644	80.010	19.995	103.924	19.823	20.753	0.511
630.000	400.435	80.010	19.994	103.942	19.742	26.535	0.513
637.500	404.166	80.010	19.994	103.949	19.663	32.259	0.469
645.000	407.806	80.007	19.992	104.043	19.554	40.147	0.460
652.500	411.477	80.013	19.993	104.082	19.380	52.572	0.472
660.000	415.147	80.010	19.993	104.054	19.178	67.194	0.494
667.500	418.935	80.009	19.993	104.283	19.059	75.792	0.483
675.000	422.687	80.010	19.996	104.274	18.838	91.794	0.471
682.500	426.534	80.011	19.993	104.361	18.589	109.890	0.513
690.000	430.374	80.010	19.995	104.397	18.350	127.188	0.507
697.500	434.225	80.007	19.995	104.605	18.040	149.700	0.516
705.000	438.059	80.008	19.995	104.547	17.804	166.870	0.506
712.500	441.922	80.009	19.994	104.698	17.658	177.393	0.514
720.000	445.711	80.009	19.994	104.724	17.558	184.573	0.518
727.500	449.571	80.010	19.993	104.738	17.569	183.650	0.533
735.000	453.366	80.011	19.994	104.681	17.738	171.292	0.514
742.500	457.125	80.010	19.994	104.562	18.054	148.249	0.501
750.000	460.853	80.010	19.994	104.430	18.481	117.340	0.466
757.500	464.574	80.010	19.996	104.293	18.966	82.352	0.499
765.000	468.251	80.010	19.994	104.163	19.343	55.227	0.513
772.500	471.925	80.011	19.994	104.061	19.596	37.022	0.502
780.000	475.703	80.009	19.994	103.985	19.748	26.155	0.530
787.500	479.437	80.010	19.994	103.947	19.851	18.715	0.512
795.000	483.213	80.011	19.994	103.916	19.915	14.156	0.496
802.500	487.101	80.009	19.993	103.904	19.965	10.571	0.519
810.000	491.016	80.010	19.994	103.862	19.999	8.088	0.521
817.500	494.998	80.012	19.994	103.859	20.026	6.186	0.518
825.000	498.935	80.011	19.993	103.836	20.041	5.069	0.520
832.500	502.833	80.009	19.995	103.836	20.046	4.747	0.514
840.000	506.816	80.008	19.993	103.831	20.052	4.343	0.535
847.500	510.670	80.009	19.994	103.827	20.057	3.979	0.499
855.001	514.582	80.009	19.994	103.825	20.059	3.781	0.524
862.500	518.523	80.008	19.994	103.818	20.061	3.695	0.534
870.000	522.375	80.009	19.993	103.826	20.063	3.519	0.510
877.500	526.309	80.011	19.993	103.823	20.063	3.493	0.538
885.000	530.322	80.011	19.995	103.818	20.057	3.956	0.532
892.500	534.320	80.010	19.994	103.818	20.057	3.920	0.537
900.000	538.296	80.011	19.995	103.802	20.063	3.537	0.551
907.500	542.309	80.008	19.994	103.819	20.064	3.453	0.573
915.000	546.235	80.010	19.993	103.822	20.062	3.571	0.500
922.500	550.143	80.009	19.993	103.803	20.062	3.592	0.509
930.000	553.924	80.009	19.993	103.796	20.060	3.742	0.512
937.500	557.649	80.009	19.994	103.793	20.058	3.859	0.476
945.000	561.350	80.010	19.994	103.791	20.062	3.609	0.511
952.500	565.078	80.010	19.994	103.808	20.063	3.550	0.464
960.000	568.943	80.010	19.995	103.795	20.057	3.964	0.537
967.500	572.761	80.011	19.994	103.790	20.059	3.823	0.553
975.000	576.668	80.011	19.994	103.814	20.062	3.596	0.539
982.500	580.615	80.013	19.994	103.793	20.056	4.006	0.533
990.000	584.697	80.010	19.995	103.807	20.055	4.092	0.571
997.500	588.692	80.008	19.994	103.797	20.052	4.326	0.533
1005.000	592.724	80.010	19.995	103.804	20.050	4.486	0.547
1012.500	596.661	80.009	19.995	103.810	20.048	4.627	0.509
1020.000	600.579	80.010	19.995	103.795	20.047	4.690	0.537
1027.500	604.377	80.010	19.994	103.808	20.050	4.444	0.501
1035.000	608.116	80.011	19.994	103.800	20.048	4.575	0.494
1042.500	611.838	80.011	19.993	103.807	20.049	4.506	0.492
1050.000	615.590	80.011	19.995	103.807	20.050	4.421	0.541
1057.500	619.447	80.010	19.994	103.793	20.048	4.617	0.522
1065.001	623.304	80.011	19.992	103.803	20.052	4.296	0.544
1072.500	627.181	80.010	19.995	103.787	20.053	4.242	0.528
1080.000	631.069	80.009	19.994	103.787	20.054	4.151	0.525
1087.500	635.004	80.009	19.996	103.791	20.054	4.173	0.530
1095.000	638.929	80.011	19.994	103.786	20.058	3.856	0.507
1102.500	642.786	80.010	19.994	103.801	20.063	3.536	0.501
1110.000	646.657	80.010	19.995	103.797	20.061	3.635	0.501
1117.500	650.547	80.011	19.993	103.788	20.059	3.791	0.490
1125.000	654.385	80.010	19.994	103.790	20.055	4.058	0.507
1132.500	658.133	80.011	19.994	103.801	20.059	3.819	0.499
1140.000	661.919	80.013	19.993	103.792	20.063	3.492	0.453
1147.500	665.743	80.012	19.994	103.787	20.065	3.397	0.482
1155.000	669.520	80.010	19.994	103.788	20.064	3.415	0.543
1162.500	673.362	80.010	19.994	103.787	20.065	3.383	0.520
1170.000	677.191	80.010	19.994	103.788	20.059	3.791	0.516
1177.500	680.984	80.009	19.994	103.787	20.063	3.536	0.517
1185.000	684.819	80.007	19.995	103.796	20.061	3.682	0.557
1192.500	688.690	80.009	19.994	103.789	20.063	3.498	0.533
1200.000	692.487	80.011	19.993	103.789	20.065	3.395	0.520
1207.501	696.296	80.011	19.995	103.784	20.056	4.042	0.477
1215.000	700.129	80.011	19.994	103.786	20.059	3.803	0.503
1222.500	703.905	80.012	19.993	103.783	20.060	3.720	0.506
1230.001	707.798	80.012	19.994	103.782	20.061	3.655	0.530
1237.500	711.601	80.010	19.992	103.786	20.060	3.753	0.530
1245.001	715.415	80.010	19.993	103.789	20.057	3.949	0.391
1252.500	719.271	80.008	19.995	103.792	20.061	3.678	0.508
1260.001	723.019	80.010	19.993	103.788	20.059	3.795	0.505
1267.501	726.802	80.010	19.995	103.784	20.053	4.228	0.496
1275.000	730.478	80.009	19.994	103.782	20.057	3.947	0.489
1282.500	734.184	80.010	19.995	103.785	20.058	3.866	0.490
1290.000	737.951	80.011	19.993	103.777	20.053	4.238	0.533
1297.500	741.673	80.011	19.994	103.780	20.060	3.710	0.532
1301.000	743.378	80.010	19.993	103.778	20.056	3.993	0.474

File: Polyester_Batting_81B_MCC_30K_min_220301_R2.txt
Sample ID:	C:\MCC\MCC Cal\Test\Polyester_Batting_81B_MCC_30K_min_220301_R2.txt
Sample Weight (mg):	4.46
Heating Rate (C/s):	0.5
Combustor Temp (C):	900
N2 Flow Rate (cc/min):	80
O2 Flow Rate (cc/min):	20
Calibration File:	C:\MCC\MCC Cal\Coeff1 JN10440_30_210304.txt.txt
T Correction Coefficients:	0	1.024463	0
Time Shift (s):	14
*
Time (s)	Temperature (C)	N2 flow rate (cc/min)	O2 flow rate (cc/min)	Flow Rate (cc/min)	Oxygen (%)	HRR (W/g)	Heating rate (C/s)
0.000	115.377	80.010	19.992	103.746	20.094	-0.473	-0.031
7.500	115.359	80.010	19.992	103.745	20.095	-0.561	0.003
15.000	115.370	80.012	19.993	103.760	20.095	-0.534	0.011
22.500	115.500	80.013	19.994	103.808	20.085	0.189	0.040
30.001	115.825	80.011	19.993	103.902	20.066	1.532	0.061
37.500	116.619	80.009	19.993	103.938	20.057	2.175	0.114
45.000	117.844	80.009	19.993	103.924	20.056	2.267	0.163
52.500	119.348	80.010	19.994	103.944	20.052	2.575	0.200
60.000	121.174	80.008	19.994	103.960	20.052	2.569	0.290
67.500	123.222	80.009	19.993	103.952	20.051	2.658	0.259
75.000	125.574	80.009	19.992	103.982	20.054	2.423	0.344
82.501	128.088	80.012	19.993	103.976	20.056	2.284	0.367
90.000	130.839	80.010	19.992	103.919	20.049	2.754	0.388
97.500	133.644	80.011	19.993	103.979	20.051	2.634	0.386
105.000	136.613	80.012	19.992	103.984	20.048	2.897	0.375
112.501	139.803	80.010	19.994	103.979	20.049	2.791	0.442
120.000	143.177	80.009	19.993	103.985	20.044	3.177	0.412
127.501	146.592	80.009	19.993	103.985	20.045	3.100	0.448
135.000	150.128	80.010	19.996	103.990	20.044	3.144	0.463
142.500	153.732	80.008	19.993	103.989	20.042	3.285	0.464
150.000	157.371	80.007	19.993	103.980	20.044	3.132	0.515
157.500	161.103	80.010	19.994	103.977	20.046	2.983	0.492
165.000	164.941	80.011	19.995	103.977	20.051	2.656	0.522
172.500	168.765	80.011	19.993	103.955	20.045	3.083	0.535
180.000	172.556	80.009	19.995	103.965	20.048	2.862	0.545
187.500	176.417	80.015	19.993	103.947	20.051	2.635	0.545
195.000	180.153	80.012	19.991	103.948	20.054	2.394	0.518
202.500	183.992	80.009	19.992	103.919	20.055	2.340	0.490
210.000	187.827	80.013	19.994	103.943	20.051	2.617	0.521
217.500	191.572	80.010	19.994	103.935	20.055	2.379	0.490
225.000	195.283	80.010	19.994	103.919	20.057	2.223	0.460
232.500	198.999	80.009	19.993	103.922	20.055	2.369	0.525
240.000	202.686	80.012	19.995	103.941	20.055	2.315	0.461
247.500	206.421	80.010	19.995	103.925	20.056	2.254	0.498
255.000	210.084	80.010	19.994	103.914	20.058	2.128	0.487
262.500	213.753	80.011	19.993	103.910	20.059	2.090	0.525
270.000	217.484	80.011	19.993	103.922	20.058	2.154	0.513
277.500	221.143	80.010	19.992	103.903	20.062	1.807	0.509
285.000	224.823	80.010	19.993	103.902	20.063	1.736	0.502
292.500	228.602	80.009	19.992	103.901	20.060	1.983	0.516
300.000	232.443	80.010	19.994	103.903	20.061	1.889	0.505
307.500	236.282	80.010	19.994	103.903	20.062	1.847	0.512
315.000	239.913	80.009	19.995	103.903	20.067	1.443	0.465
322.500	243.693	80.011	19.994	103.906	20.065	1.634	0.514
330.000	247.360	80.010	19.993	103.902	20.066	1.564	0.495
337.500	251.002	80.010	19.994	103.903	20.065	1.632	0.452
345.000	254.723	80.010	19.994	103.895	20.065	1.620	0.501
352.500	258.405	80.012	19.994	103.898	20.067	1.489	0.533
360.000	262.053	80.012	19.994	103.896	20.065	1.592	0.463
367.500	265.844	80.008	19.993	103.894	20.070	1.293	0.498
375.000	269.497	80.010	19.993	103.896	20.067	1.499	0.488
382.500	273.306	80.010	19.995	103.897	20.063	1.774	0.497
390.000	277.039	80.010	19.993	103.892	20.064	1.682	0.502
397.500	280.877	80.009	19.993	103.892	20.064	1.698	0.496
405.000	284.662	80.010	19.993	103.883	20.063	1.774	0.492
412.500	288.483	80.012	19.994	103.883	20.064	1.710	0.506
420.000	292.313	80.011	19.994	103.896	20.069	1.327	0.537
427.500	296.079	80.011	19.993	103.889	20.069	1.345	0.459
435.000	299.931	80.012	19.994	103.880	20.062	1.830	0.486
442.500	303.660	80.010	19.994	103.870	20.065	1.598	0.462
450.000	307.454	80.009	19.994	103.882	20.066	1.515	0.519
457.500	311.250	80.010	19.993	103.866	20.069	1.359	0.513
465.000	315.059	80.009	19.993	103.873	20.065	1.588	0.512
472.500	318.870	80.009	19.993	103.879	20.064	1.680	0.525
480.000	322.610	80.009	19.993	103.887	20.068	1.373	0.516
487.500	326.429	80.011	19.993	103.879	20.063	1.752	0.528
495.000	330.195	80.010	19.993	103.871	20.060	2.001	0.506
502.500	333.993	80.010	19.994	103.864	20.060	1.969	0.527
510.000	337.620	80.009	19.994	103.862	20.060	1.967	0.438
517.500	341.438	80.010	19.993	103.876	20.058	2.166	0.363
525.000	345.150	80.011	19.993	103.886	20.060	1.953	0.472
532.500	348.966	80.007	19.994	103.875	20.055	2.374	0.491
540.000	352.786	80.009	19.995	103.885	20.057	2.240	0.523
547.500	356.588	80.011	19.994	103.870	20.056	2.304	0.512
555.000	360.462	80.010	19.992	103.872	20.050	2.711	0.494
562.500	364.280	80.008	19.993	103.872	20.047	2.964	0.481
570.000	368.180	80.009	19.994	103.864	20.034	3.899	0.505
577.501	372.000	80.011	19.992	103.873	20.027	4.409	0.510
585.000	375.843	80.010	19.994	103.876	20.014	5.317	0.507
592.500	379.591	80.011	19.993	103.883	19.994	6.755	0.514
600.000	383.349	80.012	19.994	103.903	19.968	8.692	0.463
607.500	387.105	80.010	19.993	103.900	19.941	10.641	0.465
615.000	390.959	80.011	19.994	103.919	19.900	13.593	0.489
622.500	394.865	80.010	19.994	103.943	19.850	17.265	0.514
630.000	398.640	80.009	19.995	103.951	19.779	22.463	0.496
637.500	402.438	80.009	19.995	103.981	19.711	27.370	0.511
645.000	406.199	80.025	19.997	104.023	19.621	33.938	0.508
652.500	410.020	80.047	20.009	104.122	19.465	45.350	0.552
660.000	413.799	80.025	19.995	104.123	19.334	54.915	0.497
667.500	417.578	80.011	19.994	104.191	19.161	67.549	0.518
675.000	421.463	80.011	19.993	104.238	18.923	85.039	0.515
682.500	425.340	80.013	19.993	104.369	18.698	101.558	0.508
690.000	429.075	80.012	19.993	104.416	18.424	121.716	0.478
697.500	432.881	80.010	19.995	104.524	18.130	143.290	0.511
705.000	436.747	80.009	19.994	104.684	17.833	165.177	0.533
712.500	440.627	80.010	19.993	104.713	17.662	177.800	0.572
720.000	444.499	80.009	19.995	104.785	17.574	184.180	0.483
727.500	448.326	80.008	19.994	104.757	17.579	183.650	0.507
735.000	452.140	80.010	19.995	104.715	17.705	174.224	0.486
742.500	455.990	80.010	19.993	104.623	17.986	153.449	0.492
750.000	459.835	80.010	19.993	104.499	18.377	124.771	0.554
757.501	463.645	80.011	19.993	104.341	18.859	89.456	0.506
765.000	467.461	80.012	19.993	104.196	19.256	60.493	0.493
772.500	471.320	80.012	19.993	104.099	19.535	40.179	0.487
780.000	475.244	80.010	19.991	104.026	19.708	27.574	0.499
787.500	479.151	80.010	19.993	103.981	19.823	19.187	0.511
795.000	482.920	80.009	19.992	103.947	19.897	13.866	0.478
802.500	486.741	80.010	19.994	103.916	19.949	10.081	0.536
810.000	490.539	80.009	19.993	103.901	19.982	7.683	0.515
817.500	494.413	80.009	19.993	103.893	20.008	5.737	0.502
825.000	498.303	80.010	19.995	103.868	20.025	4.545	0.514
832.500	502.148	80.011	19.994	103.860	20.031	4.065	0.510
840.000	506.010	80.009	19.993	103.863	20.036	3.706	0.511
847.500	509.748	80.011	19.993	103.856	20.041	3.359	0.502
855.000	513.582	80.011	19.993	103.854	20.044	3.130	0.526
862.500	517.358	80.009	19.993	103.851	20.050	2.698	0.477
870.000	521.261	80.010	19.993	103.846	20.045	3.078	0.531
877.500	525.034	80.011	19.993	103.843	20.049	2.817	0.491
885.000	528.901	80.009	19.994	103.840	20.050	2.734	0.532
892.500	532.680	80.008	19.994	103.832	20.046	2.986	0.507
900.000	536.448	80.009	19.994	103.836	20.046	2.993	0.507
907.500	540.205	80.011	19.994	103.826	20.049	2.796	0.529
915.000	543.970	80.010	19.994	103.825	20.052	2.552	0.503
922.500	547.836	80.011	19.995	103.844	20.050	2.738	0.493
930.000	551.741	80.011	19.993	103.828	20.051	2.668	0.514
937.500	555.659	80.011	19.993	103.834	20.048	2.837	0.515
945.000	559.604	80.006	19.994	103.831	20.051	2.666	0.526
952.500	563.492	80.012	19.993	103.830	20.051	2.618	0.511
960.000	567.384	80.010	19.994	103.841	20.050	2.730	0.529
967.500	571.218	80.010	19.993	103.824	20.047	2.961	0.518
975.000	575.039	80.008	19.993	103.841	20.048	2.869	0.503
982.500	578.848	80.010	19.994	103.828	20.045	3.069	0.529
990.000	582.627	80.010	19.995	103.829	20.038	3.559	0.501
997.500	586.294	80.009	19.994	103.828	20.039	3.510	0.495
1005.000	590.021	80.010	19.994	103.824	20.038	3.577	0.525
1012.500	593.813	80.013	19.993	103.825	20.034	3.847	0.530
1020.000	597.698	80.011	19.995	103.830	20.033	3.982	0.535
1027.500	601.500	80.010	19.993	103.829	20.034	3.904	0.536
1035.000	605.253	80.010	19.994	103.825	20.032	4.044	0.483
1042.500	609.155	80.011	19.994	103.826	20.032	4.024	0.521
1050.001	613.030	80.010	19.993	103.826	20.030	4.199	0.541
1057.500	616.960	80.008	19.993	103.828	20.032	4.026	0.539
1065.000	620.827	80.012	19.993	103.830	20.035	3.805	0.496
1072.500	624.767	80.011	19.992	103.823	20.037	3.657	0.542
1080.000	628.600	80.013	19.994	103.825	20.039	3.518	0.517
1087.500	632.454	80.012	19.994	103.815	20.042	3.284	0.495
1095.001	636.381	80.014	19.993	103.819	20.038	3.554	0.530
1102.501	640.199	80.012	19.993	103.822	20.040	3.426	0.479
1110.000	643.924	80.011	19.994	103.814	20.041	3.358	0.488
1117.500	647.681	80.010	19.995	103.821	20.043	3.246	0.521
1125.000	651.437	80.009	19.993	103.822	20.044	3.177	0.511
1132.500	655.169	80.013	19.994	103.810	20.044	3.149	0.506
1140.000	658.894	80.010	19.993	103.822	20.044	3.181	0.493
1147.500	662.626	80.011	19.993	103.810	20.048	2.892	0.506
1155.001	666.353	80.012	19.993	103.818	20.050	2.745	0.548
1162.500	670.182	80.011	19.993	103.792	20.044	3.138	0.545
1170.000	674.048	80.011	19.993	103.805	20.051	2.607	0.523
1177.500	677.810	80.013	19.993	103.802	20.050	2.680	0.497
1185.000	681.716	80.011	19.994	103.818	20.053	2.495	0.552
1192.500	685.600	80.008	19.993	103.811	20.049	2.753	0.521
1200.000	689.579	80.010	19.994	103.813	20.050	2.686	0.507
1207.500	693.650	80.010	19.994	103.802	20.047	2.912	0.554
1215.000	697.681	80.010	19.995	103.808	20.048	2.866	0.526
1222.500	701.696	80.006	19.993	103.791	20.051	2.673	0.539
1230.000	705.633	80.010	19.993	103.795	20.048	2.868	0.509
1237.500	709.559	80.012	19.993	103.797	20.047	2.944	0.529
1245.001	713.414	80.011	19.993	103.793	20.050	2.697	0.500
1252.500	717.304	80.011	19.994	103.782	20.050	2.687	0.493
1260.000	721.103	80.013	19.993	103.789	20.055	2.320	0.515
1267.500	724.796	80.012	19.993	103.783	20.055	2.360	0.474
1275.000	728.531	80.010	19.993	103.784	20.053	2.510	0.519
1282.500	732.264	80.011	19.994	103.787	20.055	2.366	0.461
1290.000	736.013	80.012	19.994	103.786	20.051	2.639	0.507
1297.500	739.695	80.010	19.993	103.788	20.049	2.773	0.487
1305.000	743.348	80.009	19.995	103.783	20.057	2.224	0.469