Folder: fsri_materials_database/01_Data/Polyester_Batting_81B/MCC (part 2)

File: Polyester_Batting_81B_MCC_30K_min_220301_R3.txt
Sample ID:	C:\MCC\MCC Cal\Test\Polyester_Batting_81B_MCC_30K_min_220301_R3.txt
Sample Weight (mg):	4.54
Heating Rate (C/s):	0.5
Combustor Temp (C):	900
N2 Flow Rate (cc/min):	80
O2 Flow Rate (cc/min):	20
Calibration File:	C:\MCC\MCC Cal\Coeff1 JN10440_30_210304.txt.txt
T Correction Coefficients:	0	1.024463	0
Time Shift (s):	14
*
Time (s)	Temperature (C)	N2 flow rate (cc/min)	O2 flow rate (cc/min)	Flow Rate (cc/min)	Oxygen (%)	HRR (W/g)	Heating rate (C/s)
0.000	112.396	80.013	19.992	103.726	20.106	-0.093	-0.004
7.500	112.436	80.012	19.993	103.723	20.106	-0.106	0.010
15.000	112.425	80.012	19.994	103.780	20.098	0.465	0.026
22.500	112.546	80.013	19.996	103.798	20.092	0.921	0.004
30.000	113.009	80.016	19.994	103.856	20.085	1.367	0.060
37.499	113.715	80.012	19.994	103.905	20.073	2.243	0.118
45.000	114.913	80.010	19.993	103.923	20.066	2.749	0.189
52.499	116.419	80.010	19.994	103.970	20.055	3.509	0.218
59.999	118.401	80.012	19.995	103.987	20.057	3.375	0.279
67.499	120.665	80.007	19.994	103.985	20.051	3.794	0.277
74.999	123.356	80.014	19.993	103.991	20.055	3.544	0.357
82.500	126.320	80.012	19.994	104.013	20.052	3.726	0.405
89.999	129.468	80.013	19.994	103.997	20.051	3.822	0.472
97.499	132.827	80.015	19.993	104.003	20.052	3.737	0.451
104.999	136.285	80.002	19.994	104.001	20.057	3.359	0.445
112.499	139.885	80.018	19.994	103.982	20.058	3.345	0.507
120.000	143.691	80.017	19.995	103.984	20.051	3.841	0.527
127.499	147.430	80.006	19.995	103.981	20.055	3.539	0.522
135.000	151.257	80.013	19.994	103.983	20.050	3.868	0.513
142.500	155.047	80.012	19.993	103.982	20.054	3.592	0.505
150.000	158.910	80.011	19.992	103.979	20.055	3.534	0.520
157.500	162.727	80.010	19.995	103.977	20.055	3.502	0.498
165.000	166.595	79.996	19.995	103.965	20.058	3.326	0.559
172.500	170.402	80.012	19.992	103.956	20.060	3.208	0.535
180.000	174.146	80.008	19.996	103.937	20.063	2.943	0.483
187.500	177.860	80.018	19.996	103.939	20.065	2.798	0.515
195.000	181.561	80.017	19.993	103.946	20.064	2.870	0.500
202.500	185.252	80.012	19.992	103.940	20.063	2.995	0.492
210.000	188.974	80.010	19.995	103.944	20.064	2.855	0.499
217.500	192.639	80.012	19.997	103.941	20.060	3.198	0.467
225.000	196.312	80.006	19.996	103.944	20.061	3.079	0.468
232.500	199.961	80.011	19.994	103.938	20.066	2.728	0.507
240.000	203.668	80.017	19.992	103.932	20.063	2.941	0.481
247.500	207.378	80.004	19.994	103.933	20.061	3.087	0.477
255.000	211.023	80.012	19.993	103.906	20.061	3.115	0.466
262.500	214.681	80.018	19.993	103.943	20.063	2.931	0.466
270.000	218.362	80.015	19.993	103.910	20.066	2.742	0.505
277.500	222.117	79.994	19.993	103.928	20.071	2.412	0.486
285.000	225.846	80.014	19.996	103.927	20.073	2.225	0.445
292.500	229.725	80.013	19.994	103.905	20.070	2.467	0.506
300.000	233.519	80.015	19.990	103.903	20.075	2.112	0.501
307.500	237.217	80.012	19.989	103.906	20.069	2.505	0.483
315.000	240.847	80.012	19.996	103.905	20.078	1.917	0.440
322.500	244.523	80.014	19.992	103.899	20.081	1.692	0.509
330.000	248.077	80.017	19.993	103.900	20.076	2.031	0.507
337.500	251.689	80.021	19.990	103.905	20.075	2.128	0.493
345.000	255.188	80.011	19.994	103.896	20.070	2.438	0.447
352.500	258.807	80.019	19.992	103.902	20.077	1.966	0.532
360.000	262.445	80.019	19.990	103.900	20.075	2.096	0.478
367.500	266.233	80.016	19.990	103.894	20.074	2.187	0.527
375.000	269.974	80.014	19.993	103.899	20.073	2.280	0.499
382.500	273.770	80.008	19.996	103.911	20.075	2.126	0.509
390.000	277.564	80.007	19.999	103.902	20.073	2.264	0.517
397.500	281.441	80.009	19.989	103.912	20.074	2.200	0.489
405.000	285.260	80.015	19.994	103.847	20.070	2.432	0.518
412.500	289.115	80.023	19.991	103.905	20.072	2.343	0.512
420.000	293.036	80.017	19.994	103.896	20.071	2.362	0.521
427.500	296.911	80.015	19.994	103.904	20.070	2.471	0.513
435.000	300.726	80.016	19.993	103.899	20.072	2.335	0.516
442.500	304.568	80.019	19.992	103.886	20.075	2.130	0.513
450.000	308.426	80.010	19.994	103.883	20.075	2.122	0.495
457.500	312.342	80.008	19.991	103.888	20.074	2.183	0.555
465.000	316.194	80.010	19.994	103.881	20.076	2.005	0.527
472.500	319.954	80.012	19.993	103.881	20.070	2.437	0.496
480.000	323.769	80.012	19.998	103.878	20.071	2.413	0.506
487.500	327.536	80.009	19.995	103.892	20.068	2.598	0.500
495.000	331.310	80.016	19.995	103.872	20.068	2.629	0.485
502.500	335.092	80.015	19.996	103.860	20.072	2.340	0.487
510.000	338.905	80.019	19.995	103.841	20.078	1.864	0.510
517.500	342.642	80.011	20.000	103.834	20.076	2.022	0.490
525.000	346.483	80.014	19.993	103.831	20.069	2.526	0.502
532.500	350.183	80.011	19.995	103.857	20.072	2.320	0.472
540.000	353.961	80.009	19.993	103.839	20.066	2.779	0.491
547.500	357.771	80.013	19.992	103.839	20.066	2.726	0.508
555.000	361.462	80.008	19.993	103.845	20.068	2.620	0.469
562.500	365.278	80.015	19.991	103.837	20.053	3.645	0.530
570.000	369.062	80.010	19.995	103.862	20.052	3.741	0.499
577.500	372.839	80.011	19.989	103.856	20.043	4.412	0.499
585.000	376.625	80.004	20.000	103.807	20.019	6.121	0.515
592.500	380.423	80.013	19.992	103.862	19.993	7.929	0.470
600.000	384.246	80.018	19.996	103.862	19.972	9.491	0.506
607.500	388.072	80.013	19.992	103.896	19.935	12.070	0.524
615.000	391.892	80.013	19.993	103.905	19.880	16.022	0.497
622.500	395.830	80.011	19.993	103.932	19.825	19.947	0.499
630.000	399.738	80.011	20.001	103.952	19.748	25.491	0.512
637.500	403.531	80.007	19.989	103.992	19.655	32.168	0.517
645.000	407.366	80.010	19.993	104.033	19.523	41.565	0.519
652.500	411.223	80.015	19.993	104.050	19.319	56.225	0.529
660.000	415.165	80.013	19.993	104.235	19.203	64.605	0.529
667.500	419.033	80.013	19.994	104.244	19.009	78.576	0.495
675.000	422.867	80.015	19.994	104.323	18.753	97.032	0.484
682.500	426.769	80.013	19.994	104.412	18.460	118.169	0.564
690.000	430.569	80.020	19.991	104.542	18.162	139.797	0.536
697.500	434.258	80.015	19.994	104.604	17.873	160.497	0.489
705.000	438.082	80.008	19.998	104.667	17.613	179.406	0.512
712.500	441.854	80.011	19.996	104.804	17.534	185.074	0.484
720.000	445.684	80.014	19.990	104.771	17.521	185.891	0.503
727.500	449.456	80.012	19.993	104.730	17.647	176.633	0.525
735.000	453.187	80.011	19.993	104.642	17.941	155.274	0.493
742.500	456.965	80.013	19.993	104.507	18.331	127.096	0.544
750.000	460.760	80.015	19.992	104.351	18.822	91.808	0.518
757.500	464.451	80.014	19.993	104.230	19.238	61.974	0.490
765.000	468.270	80.015	19.994	104.103	19.515	42.141	0.502
772.500	472.137	80.014	19.992	104.037	19.697	29.147	0.504
780.000	476.088	80.014	19.992	103.981	19.819	20.377	0.524
787.500	479.928	80.014	19.993	103.948	19.895	14.947	0.501
795.000	483.830	80.011	19.994	103.924	19.953	10.835	0.526
802.500	487.714	80.012	19.994	103.911	19.987	8.364	0.519
810.000	491.668	80.012	19.993	103.902	20.003	7.248	0.510
817.500	495.574	80.011	19.993	103.895	20.015	6.372	0.557
825.000	499.359	80.013	19.992	103.898	20.027	5.500	0.477
832.500	503.246	80.013	19.993	103.871	20.039	4.654	0.560
840.000	507.058	80.014	19.994	103.863	20.047	4.122	0.521
847.500	510.918	80.014	19.994	103.859	20.051	3.809	0.517
855.000	514.801	80.015	19.992	103.864	20.045	4.268	0.493
862.500	518.685	80.012	19.994	103.865	20.046	4.139	0.476
870.000	522.584	80.013	19.995	103.863	20.047	4.090	0.548
877.500	526.411	80.011	19.993	103.853	20.048	4.050	0.521
885.000	530.251	80.014	19.994	103.863	20.047	4.116	0.489
892.500	534.098	80.011	19.995	103.855	20.045	4.232	0.507
900.000	537.974	80.012	19.995	103.857	20.042	4.447	0.510
907.500	541.740	80.012	19.995	103.850	20.048	4.015	0.505
915.000	545.558	80.015	19.993	103.855	20.045	4.211	0.500
922.500	549.439	80.013	19.993	103.855	20.044	4.341	0.514
930.000	553.251	80.014	19.993	103.859	20.048	4.031	0.514
937.500	557.098	80.014	19.993	103.863	20.042	4.465	0.506
945.000	560.928	80.014	19.993	103.854	20.043	4.380	0.514
952.500	564.744	80.013	19.994	103.854	20.040	4.632	0.524
960.000	568.554	80.012	19.993	103.861	20.039	4.689	0.519
967.500	572.336	80.012	19.995	103.847	20.038	4.738	0.489
975.000	576.222	80.013	19.993	103.857	20.034	5.013	0.533
982.500	580.003	80.012	19.994	103.856	20.033	5.074	0.472
990.000	583.850	80.013	19.994	103.847	20.029	5.389	0.516
997.500	587.669	80.013	19.994	103.848	20.029	5.408	0.529
1005.000	591.370	80.012	19.994	103.846	20.024	5.745	0.512
1012.500	595.187	80.013	19.993	103.833	20.031	5.254	0.510
1020.000	598.948	80.015	19.992	103.822	20.026	5.620	0.490
1027.499	602.758	80.014	19.994	103.824	20.023	5.808	0.504
1035.000	606.534	80.012	19.993	103.822	20.028	5.425	0.490
1042.501	610.363	80.012	19.994	103.823	20.030	5.301	0.504
1049.999	614.356	80.013	19.993	103.824	20.025	5.646	0.544
1057.499	618.215	80.012	19.994	103.827	20.026	5.595	0.529
1064.999	622.090	80.012	19.994	103.825	20.025	5.662	0.509
1072.500	625.945	80.013	19.994	103.832	20.032	5.187	0.497
1079.999	629.810	80.013	19.994	103.825	20.031	5.265	0.555
1087.499	633.725	80.012	19.994	103.823	20.033	5.088	0.531
1094.999	637.712	80.014	19.994	103.820	20.032	5.151	0.522
1102.500	641.709	80.017	19.993	103.819	20.036	4.912	0.567
1110.000	645.574	80.014	19.993	103.816	20.036	4.915	0.497
1117.499	649.408	80.013	19.993	103.801	20.034	5.029	0.441
1124.999	653.306	80.012	19.993	103.821	20.036	4.879	0.509
1132.499	657.155	80.013	19.993	103.822	20.039	4.637	0.508
1140.000	661.155	80.012	19.993	103.818	20.040	4.631	0.531
1147.499	665.119	80.012	19.994	103.826	20.038	4.771	0.495
1155.000	669.050	80.013	19.994	103.821	20.034	5.013	0.517
1162.499	672.995	80.015	19.994	103.820	20.038	4.707	0.537
1169.999	676.940	80.014	19.993	103.807	20.038	4.740	0.537
1177.499	680.872	80.013	19.994	103.811	20.039	4.665	0.546
1184.999	684.683	80.015	19.993	103.808	20.033	5.075	0.524
1192.499	688.556	80.013	19.995	103.816	20.038	4.774	0.529
1199.999	692.267	80.013	19.994	103.817	20.037	4.781	0.502
1207.499	695.975	80.013	19.993	103.821	20.038	4.714	0.458
1215.000	699.645	80.014	19.993	103.811	20.044	4.345	0.467
1222.499	703.299	80.014	19.994	103.814	20.038	4.734	0.486
1229.999	706.912	80.012	19.994	103.817	20.037	4.819	0.468
1237.499	710.535	80.013	19.993	103.796	20.037	4.812	0.479
1244.999	714.237	80.016	19.993	103.798	20.034	5.028	0.487
1252.499	718.008	80.014	19.993	103.802	20.033	5.103	0.490
1259.999	721.809	80.014	19.994	103.818	20.032	5.164	0.542
1267.499	725.622	80.016	19.993	103.815	20.031	5.206	0.581
1274.999	729.451	80.014	19.993	103.811	20.030	5.331	0.494
1282.500	733.357	80.012	19.994	103.804	20.031	5.209	0.494
1290.000	737.260	80.013	19.995	103.802	20.035	4.985	0.502
1297.499	741.201	80.013	19.994	103.807	20.037	4.811	0.554
1302.000	743.525	80.014	19.994	103.819	20.037	4.843	0.507