Folder: fsri_materials_database/01_Data/Fiberglass_Insulation1/MCC

Note: 01_Data/README.md
# Materials and Products Database
## 01_Data

Raw data generated from each apparatus are included here in plain-text format. The data is organized first by material, next by the short name of test apparatus used, and where applicable additional filtering by test settings.

### material.json

Each material directory contains a json file of the same name as the material. This file links the data stored in the repository as well as data and graphs produced by the accompanying scripts (__02_Scripts__) to the respective landing page for the material on the front-end website.

File: Fiberglass_Insulation1_MCC_30K_min_220124_R2.txt
Sample ID:	C:\MCC\MCC Cal\Test\Fiberglas_Inaulation1_MCC_30K_min_220124_R2.txt
Sample Weight (mg):	4.78
Heating Rate (C/s):	0.5
Combustor Temp (C):	900
N2 Flow Rate (cc/min):	80
O2 Flow Rate (cc/min):	20
Calibration File:	C:\MCC\MCC Cal\Coeff1 JN10440_30_210304.txt.txt
T Correction Coefficients:	0	1.024463	0
Time Shift (s):	14
*
Time (s)	Temperature (C)	N2 flow rate (cc/min)	O2 flow rate (cc/min)	Flow Rate (cc/min)	Oxygen (%)	HRR (W/g)	Heating rate (C/s)
-0.001	113.134	80.005	19.993	103.752	20.131	0.223	-0.019
7.999	113.140	79.992	19.997	103.744	20.134	0.032	-0.021
15.999	113.139	80.013	19.994	103.789	20.126	0.536	0.012
23.999	113.279	80.003	19.994	103.847	20.117	1.191	-0.008
31.999	113.798	80.011	19.993	103.805	20.119	1.010	0.067
40.000	114.397	80.005	19.994	103.835	20.115	1.282	0.113
47.999	115.206	80.006	19.995	103.907	20.108	1.790	0.127
56.000	116.330	80.015	19.993	103.869	20.111	1.577	0.135
63.999	117.637	80.001	19.993	103.904	20.112	1.504	0.148
71.999	119.135	80.011	19.992	103.910	20.106	1.880	0.203
79.999	120.920	80.005	19.993	103.941	20.101	2.239	0.232
87.999	122.962	80.006	19.993	103.952	20.097	2.538	0.254
95.999	125.303	80.007	19.994	103.982	20.094	2.711	0.308
103.999	127.983	80.010	19.993	103.976	20.094	2.750	0.325
111.999	130.857	80.005	19.994	103.989	20.094	2.709	0.352
119.999	133.952	80.008	19.992	104.001	20.092	2.844	0.380
127.999	137.270	80.007	19.995	103.986	20.092	2.839	0.438
135.999	140.747	80.008	19.994	103.982	20.090	3.019	0.435
143.999	144.398	80.004	19.993	103.987	20.094	2.743	0.445
151.999	148.087	80.008	19.993	103.994	20.094	2.698	0.450
159.999	151.929	80.008	19.992	103.984	20.097	2.553	0.461
167.999	155.759	80.003	19.996	103.982	20.092	2.884	0.451
175.999	159.735	80.006	19.992	103.971	20.096	2.568	0.503
183.999	163.698	80.011	19.992	103.986	20.098	2.440	0.489
191.999	167.775	80.010	19.993	103.981	20.099	2.420	0.526
199.999	171.819	80.009	19.995	103.971	20.097	2.534	0.507
207.999	175.840	79.987	19.996	103.961	20.097	2.498	0.511
215.999	179.908	80.008	19.994	103.957	20.099	2.383	0.523
223.999	183.914	80.008	19.994	103.942	20.101	2.254	0.495
232.000	188.017	80.010	19.993	103.943	20.102	2.177	0.503
239.999	192.047	80.009	19.993	103.941	20.102	2.186	0.481
247.999	196.038	80.012	19.993	103.942	20.101	2.238	0.466
255.999	199.982	80.008	19.993	103.939	20.099	2.358	0.492
263.999	203.963	80.028	19.993	103.935	20.100	2.349	0.480
271.999	207.951	80.005	19.992	103.917	20.101	2.283	0.534
279.999	211.884	80.003	19.994	103.935	20.101	2.270	0.506
288.000	215.834	80.005	19.993	103.934	20.101	2.276	0.501
295.999	219.778	80.009	19.995	103.919	20.103	2.148	0.499
303.999	223.668	80.006	19.992	103.923	20.099	2.377	0.478
311.999	227.576	80.005	19.994	103.925	20.100	2.302	0.483
319.999	231.613	80.006	19.995	103.908	20.099	2.360	0.479
327.999	235.598	80.007	19.993	103.916	20.100	2.340	0.519
335.999	239.584	80.009	19.996	103.911	20.098	2.480	0.506
343.999	243.629	80.010	19.993	103.907	20.098	2.439	0.516
351.999	247.578	80.009	19.993	103.902	20.095	2.656	0.504
359.999	251.647	80.008	19.993	103.905	20.094	2.717	0.495
367.999	255.608	80.007	19.993	103.895	20.099	2.380	0.531
375.999	259.593	80.007	19.994	103.911	20.095	2.683	0.454
383.999	263.565	80.007	19.993	103.903	20.096	2.619	0.516
392.000	267.542	80.006	19.994	103.908	20.097	2.549	0.484
400.000	271.567	80.007	19.992	103.899	20.095	2.635	0.508
407.999	275.503	80.008	19.994	103.896	20.095	2.686	0.508
415.999	279.465	80.005	19.995	103.891	20.092	2.885	0.483
423.999	283.388	80.008	19.994	103.901	20.091	2.953	0.500
432.000	287.379	80.009	19.992	103.902	20.089	3.045	0.515
439.999	291.382	80.006	19.995	103.904	20.092	2.838	0.522
447.999	295.491	80.007	19.994	103.900	20.093	2.801	0.513
455.999	299.543	80.007	19.992	103.898	20.095	2.652	0.497
463.999	303.654	80.008	19.992	103.891	20.098	2.470	0.505
471.999	307.699	80.006	19.994	103.893	20.097	2.532	0.465
479.999	311.860	80.008	19.995	103.893	20.098	2.451	0.516
487.999	315.956	80.002	19.995	103.889	20.101	2.245	0.496
495.999	320.041	80.005	19.994	103.870	20.098	2.483	0.486
503.999	324.106	80.009	19.994	103.876	20.095	2.625	0.483
511.999	328.137	80.010	19.994	103.872	20.094	2.708	0.506
519.999	332.134	80.007	19.993	103.872	20.098	2.460	0.502
527.999	336.158	80.007	19.994	103.868	20.102	2.186	0.516
535.999	340.167	80.006	19.993	103.867	20.102	2.173	0.504
543.999	344.167	80.009	19.993	103.865	20.101	2.260	0.528
551.999	348.090	80.007	19.993	103.867	20.100	2.308	0.497
559.999	352.026	80.007	19.993	103.866	20.103	2.141	0.471
567.999	356.017	80.008	19.993	103.865	20.102	2.201	0.462
575.999	360.042	80.007	19.994	103.865	20.105	1.969	0.496
583.999	364.035	80.007	19.993	103.869	20.101	2.269	0.506
591.999	368.097	80.011	19.993	103.844	20.100	2.291	0.510
600.000	372.132	80.006	19.995	103.864	20.103	2.126	0.501
607.999	376.209	80.006	19.993	103.865	20.102	2.210	0.514
615.999	380.327	80.007	19.993	103.864	20.101	2.258	0.510
623.999	384.424	80.004	19.995	103.862	20.102	2.207	0.517
631.999	388.541	80.005	19.994	103.866	20.103	2.100	0.578
639.999	392.550	80.006	19.993	103.860	20.100	2.318	0.481
647.999	396.708	80.008	19.994	103.866	20.099	2.415	0.527
655.999	400.714	80.008	19.994	103.856	20.103	2.146	0.497
663.999	404.693	80.006	19.993	103.849	20.102	2.188	0.485
671.999	408.629	80.010	19.994	103.837	20.104	2.047	0.478
679.999	412.468	80.007	19.995	103.829	20.102	2.159	0.475
687.999	416.185	80.005	19.993	103.833	20.103	2.120	0.478
695.999	419.878	80.006	19.995	103.836	20.100	2.295	0.440
703.999	423.609	80.006	19.993	103.833	20.103	2.098	0.484
711.999	427.242	80.006	19.994	103.837	20.099	2.383	0.454
719.999	430.998	80.006	19.994	103.839	20.102	2.171	0.453
727.999	434.908	80.007	19.993	103.834	20.104	2.036	0.516
735.999	438.734	80.008	19.995	103.843	20.101	2.252	0.488
743.999	442.652	80.009	19.994	103.831	20.103	2.135	0.516
751.999	446.590	80.007	19.995	103.858	20.104	2.015	0.491
759.999	450.647	80.006	19.992	103.831	20.105	2.000	0.488
767.999	454.813	80.006	19.995	103.850	20.104	2.035	0.537
775.999	458.931	80.006	19.995	103.833	20.108	1.775	0.513
783.999	463.073	80.007	19.995	103.832	20.113	1.446	0.530
791.999	467.198	80.006	19.995	103.828	20.108	1.795	0.528
800.000	471.382	80.006	19.994	103.836	20.112	1.491	0.510
807.999	475.538	80.009	19.993	103.827	20.111	1.572	0.506
815.999	479.633	80.007	19.994	103.829	20.115	1.281	0.503
823.999	483.712	80.006	19.995	103.830	20.116	1.218	0.542
831.999	487.826	80.008	19.994	103.830	20.119	1.039	0.498
839.999	491.869	80.008	19.994	103.825	20.117	1.156	0.500
847.999	495.959	80.005	19.995	103.824	20.118	1.110	0.519
855.999	499.970	80.007	19.995	103.830	20.118	1.099	0.502
863.999	503.984	80.009	19.993	103.821	20.119	1.049	0.497
871.999	508.006	80.005	19.994	103.799	20.117	1.161	0.510
879.999	512.115	80.005	19.996	103.797	20.118	1.114	0.505
887.999	516.247	80.008	19.994	103.807	20.120	0.928	0.515
895.999	520.400	80.007	19.993	103.807	20.117	1.135	0.531
903.999	524.523	80.008	19.993	103.930	20.119	1.052	0.513
911.999	528.669	80.008	19.993	103.792	20.115	1.294	0.516
919.999	532.771	80.007	19.994	103.791	20.115	1.271	0.516
927.999	536.899	80.006	19.994	103.785	20.118	1.071	0.497
935.999	540.955	80.006	19.995	103.822	20.116	1.208	0.530
943.999	544.950	80.006	19.995	103.788	20.116	1.223	0.502
951.999	549.005	80.006	19.994	103.802	20.115	1.324	0.502
959.999	553.126	80.004	19.994	103.795	20.120	0.941	0.495
967.999	557.223	80.007	19.994	103.767	20.125	0.611	0.498
975.999	561.291	80.008	19.994	103.766	20.124	0.658	0.518
983.999	565.291	80.007	19.993	103.748	20.124	0.701	0.526
991.999	569.282	80.008	19.995	103.785	20.127	0.456	0.470
999.999	573.350	80.008	19.995	103.787	20.124	0.664	0.503
1007.999	577.439	80.006	19.994	103.790	20.127	0.501	0.499
1015.999	581.570	80.006	19.993	103.791	20.129	0.377	0.522
1023.999	585.758	80.006	19.993	103.792	20.130	0.268	0.530
1031.999	589.869	80.005	19.995	103.789	20.133	0.056	0.522
1039.999	594.016	80.005	19.996	103.788	20.133	0.101	0.487
1047.999	598.135	80.007	19.994	103.784	20.134	0.032	0.529
1055.999	602.182	80.006	19.995	103.785	20.135	-0.024	0.511
1063.999	606.239	80.006	19.995	103.787	20.138	-0.238	0.519
1071.999	610.280	80.009	19.994	103.790	20.139	-0.304	0.513
1079.999	614.377	80.007	19.994	103.788	20.143	-0.564	0.498
1087.999	618.512	80.007	19.993	103.788	20.131	0.223	0.493
1096.000	622.755	80.006	19.994	103.787	20.144	-0.653	0.541
1103.999	626.324	80.005	19.994	103.791	20.142	-0.510	0.161
1111.999	631.326	80.007	19.993	103.787	20.148	-0.960	0.531
1119.999	636.016	80.005	19.993	103.784	20.145	-0.756	0.522
1127.999	640.285	80.007	19.994	103.784	20.146	-0.825	0.438
1135.999	644.501	80.007	19.993	103.784	20.148	-0.956	0.560
1143.999	648.618	80.006	19.994	103.773	20.149	-0.986	0.524
1151.999	652.691	80.008	19.995	103.774	20.151	-1.153	0.502
1159.999	656.946	80.008	19.994	103.782	20.151	-1.131	0.511
1167.999	661.228	80.006	19.994	103.781	20.150	-1.082	0.524
1175.999	665.476	80.007	19.994	103.760	20.156	-1.500	0.512
1183.999	669.629	80.007	19.995	103.760	20.156	-1.466	0.514
1192.000	673.712	80.004	19.994	103.770	20.156	-1.453	0.518
1199.999	677.860	80.006	19.993	103.770	20.160	-1.770	0.481
1207.999	681.996	80.008	19.994	103.776	20.161	-1.845	0.520
1215.999	685.950	80.006	19.993	103.759	20.165	-2.055	0.479
1223.999	689.835	80.007	19.994	103.754	20.168	-2.281	0.477
1231.999	693.862	80.007	19.995	103.767	20.166	-2.122	0.427
1239.999	697.814	80.006	19.994	103.750	20.163	-1.952	0.485
1247.999	701.777	80.006	19.994	103.785	20.167	-2.237	0.471
1256.000	705.731	80.006	19.993	103.771	20.170	-2.428	0.511
1263.999	709.668	80.006	19.993	103.759	20.171	-2.510	0.484
1271.999	713.601	80.006	19.993	103.755	20.170	-2.454	0.504
1279.999	717.521	80.007	19.993	103.757	20.175	-2.735	0.481
1287.999	721.441	80.006	19.993	103.754	20.173	-2.643	0.455
1295.999	725.384	80.006	19.993	103.753	20.174	-2.698	0.495
1303.999	729.385	80.008	19.994	103.746	20.178	-2.965	0.467
1311.999	733.492	80.009	19.995	103.749	20.179	-3.065	0.498
1320.000	737.555	80.007	19.993	103.754	20.178	-2.992	0.532
1327.999	741.662	80.006	19.996	103.752	20.183	-3.318	0.491
1331.499	743.492	80.000	19.995	103.751	20.178	-2.941	0.519