Folder: fsri_materials_database/01_Data/Masonite_Board/MCC

Note: 01_Data/README.md
# Materials and Products Database
## 01_Data

Raw data generated from each apparatus are included here in plain-text format. The data is organized first by material, next by the short name of test apparatus used, and where applicable additional filtering by test settings.

### material.json

Each material directory contains a json file of the same name as the material. This file links the data stored in the repository as well as data and graphs produced by the accompanying scripts (__02_Scripts__) to the respective landing page for the material on the front-end website.

File: Masonite_Board_30K_min_211022_R1.txt
Sample ID:	C:\MCC\MCC Cal\Test\Masonite_Board_30K_min_211022_R1.txt
Sample Weight (mg):	4.92
Heating Rate (C/s):	0.5
Combustor Temp (C):	900
N2 Flow Rate (cc/min):	80
O2 Flow Rate (cc/min):	20
Calibration File:	C:\MCC\MCC Cal\Coeff1 JN10440_30_210304.txt.txt
T Correction Coefficients:	0	1.024463	0
Time Shift (s):	14
*
Time (s)	Temperature (C)	N2 flow rate (cc/min)	O2 flow rate (cc/min)	Flow Rate (cc/min)	Oxygen (%)	HRR (W/g)	Heating rate (C/s)
0.000	107.979	80.000	19.995	103.036	20.109	-0.038	-0.034
8.000	107.946	80.001	19.996	103.035	20.105	0.175	-0.014
16.000	107.959	80.002	19.995	103.060	20.107	0.091	0.023
24.000	107.919	80.000	19.996	103.039	20.110	-0.116	-0.008
32.000	107.952	80.000	19.996	103.042	20.106	0.113	0.017
40.000	107.898	80.003	19.996	103.030	20.105	0.186	-0.017
48.000	107.871	80.001	19.996	103.033	20.107	0.095	-0.010
56.000	107.878	79.999	19.996	103.190	20.082	1.688	0.016
64.001	108.672	79.999	19.996	103.417	20.046	4.075	0.172
72.000	110.496	79.999	19.996	103.395	20.037	4.686	0.294
80.000	113.056	79.998	19.995	103.368	20.046	4.070	0.331
88.000	116.092	79.999	19.995	103.357	20.050	3.808	0.392
96.000	119.602	80.001	19.996	103.377	20.044	4.187	0.478
104.001	123.355	80.002	19.995	103.351	20.047	3.982	0.487
112.000	127.261	80.001	19.996	103.349	20.049	3.883	0.476
120.000	131.472	80.003	19.995	103.340	20.052	3.699	0.536
128.000	135.730	80.001	19.996	103.335	20.055	3.492	0.538
136.000	140.038	79.999	19.996	103.316	20.056	3.402	0.517
144.000	144.372	79.998	19.998	103.308	20.058	3.310	0.543
152.000	148.686	79.999	19.995	103.297	20.057	3.379	0.570
160.000	152.870	79.998	19.997	103.273	20.061	3.059	0.535
168.000	156.979	79.999	19.997	103.268	20.065	2.810	0.520
176.000	160.995	80.002	19.994	103.265	20.063	2.976	0.500
184.000	165.031	80.002	19.996	103.265	20.064	2.912	0.527
192.000	168.945	80.001	19.996	103.263	20.060	3.163	0.470
200.000	172.826	80.002	19.995	103.265	20.062	3.037	0.459
208.000	176.717	80.001	19.996	103.266	20.063	2.924	0.465
216.000	180.579	80.000	19.996	103.264	20.065	2.850	0.494
224.000	184.463	80.001	19.997	103.263	20.062	3.021	0.473
232.000	188.412	80.001	19.996	103.252	20.062	3.046	0.484
240.000	192.305	79.999	19.997	103.263	20.061	3.098	0.491
248.000	196.202	80.000	19.996	103.255	20.062	3.030	0.505
256.000	200.099	80.001	19.996	103.252	20.057	3.328	0.489
264.000	203.964	80.002	19.996	103.256	20.057	3.356	0.512
272.000	207.892	80.001	19.995	103.251	20.056	3.415	0.511
280.000	211.784	80.003	19.994	103.246	20.053	3.616	0.484
288.000	215.717	80.003	19.995	103.234	20.051	3.746	0.513
296.000	219.680	80.001	19.995	103.249	20.047	4.010	0.515
304.000	223.563	80.001	19.995	103.251	20.040	4.443	0.470
312.000	227.528	80.000	19.996	103.247	20.038	4.605	0.473
320.000	231.517	80.000	19.996	103.254	20.034	4.860	0.485
328.000	235.474	80.000	19.997	103.245	20.029	5.213	0.517
336.000	239.450	80.001	19.996	103.257	20.019	5.868	0.502
344.000	243.350	80.001	19.997	103.244	20.009	6.490	0.466
352.000	247.321	80.001	19.995	103.252	19.997	7.281	0.507
360.000	251.258	80.003	19.994	103.256	19.982	8.233	0.457
368.000	255.219	80.003	19.995	103.264	19.962	9.601	0.502
376.000	259.170	80.001	19.995	103.271	19.948	10.492	0.498
384.000	263.147	80.001	19.997	103.277	19.922	12.223	0.508
392.000	267.144	79.999	19.996	103.299	19.892	14.141	0.492
400.000	271.234	79.999	19.996	103.306	19.856	16.495	0.517
408.000	275.209	79.998	19.996	103.309	19.820	18.881	0.508
416.000	279.250	80.001	19.996	103.318	19.781	21.431	0.493
424.000	283.230	80.001	19.995	103.340	19.749	23.564	0.493
432.000	287.289	80.000	19.996	103.334	19.715	25.795	0.515
440.000	291.320	80.002	19.997	103.326	19.692	27.270	0.498
448.000	295.315	80.004	19.995	103.341	19.672	28.585	0.451
456.000	299.334	80.000	19.995	103.341	19.654	29.750	0.485
464.000	303.317	80.000	19.995	103.340	19.648	30.186	0.494
472.000	307.261	80.000	19.995	103.345	19.633	31.130	0.475
480.000	311.230	80.001	19.994	103.343	19.624	31.702	0.514
488.000	315.151	80.000	19.996	103.344	19.605	32.993	0.452
496.000	319.109	80.000	19.995	103.348	19.584	34.383	0.514
504.000	322.956	80.002	19.996	103.369	19.554	36.307	0.454
512.000	326.896	80.001	19.996	103.382	19.512	39.119	0.506
520.000	330.874	80.001	19.995	103.411	19.461	42.449	0.499
528.000	334.907	80.002	19.996	103.429	19.394	46.888	0.515
536.000	338.940	80.000	19.996	103.463	19.320	51.740	0.518
544.000	343.030	80.000	19.994	103.497	19.231	57.608	0.470
552.000	347.147	80.001	19.995	103.517	19.138	63.736	0.502
560.000	351.287	80.001	19.995	103.555	19.043	69.966	0.508
568.000	355.443	79.999	19.996	103.578	18.956	75.647	0.507
576.000	359.512	80.001	19.995	103.580	18.891	79.977	0.517
584.000	363.660	80.001	19.994	103.583	18.852	82.449	0.515
592.000	367.726	80.000	19.995	103.555	18.865	81.592	0.519
600.000	371.873	80.001	19.996	103.504	18.941	76.527	0.491
608.000	376.007	80.001	19.996	103.423	19.084	67.117	0.533
616.000	380.058	80.000	19.996	103.346	19.278	54.355	0.527
624.000	384.104	80.000	19.996	103.278	19.502	39.674	0.514
632.000	388.176	80.001	19.995	103.229	19.702	26.585	0.475
640.000	392.318	80.001	19.997	103.200	19.848	17.055	0.505
648.000	396.339	80.001	19.995	103.196	19.928	11.801	0.552
656.000	400.458	80.001	19.997	103.189	19.967	9.247	0.611
664.000	404.501	80.002	19.994	103.185	19.982	8.245	0.515
672.000	408.459	80.003	19.995	103.189	19.992	7.596	0.553
680.000	412.434	80.001	19.996	103.182	19.999	7.134	0.495
688.000	416.363	80.004	19.995	103.184	20.003	6.862	0.460
696.000	420.348	80.003	19.996	103.185	20.010	6.426	0.516
704.000	424.390	80.001	19.996	103.187	20.007	6.640	0.505
712.000	428.477	80.000	19.995	103.180	20.014	6.147	0.517
720.000	432.563	80.001	19.995	103.182	20.021	5.692	0.499
728.000	436.722	80.002	19.995	103.191	20.025	5.422	0.491
736.000	440.870	80.001	19.995	103.186	20.032	4.971	0.512
744.000	444.954	80.003	19.996	103.176	20.042	4.332	0.495
752.000	449.019	80.003	19.995	103.166	20.042	4.350	0.539
760.000	453.033	80.002	19.995	103.177	20.049	3.877	0.526
768.000	457.103	80.002	19.996	103.178	20.052	3.667	0.518
776.000	461.289	80.001	19.997	103.179	20.057	3.327	0.528
784.000	465.431	80.001	19.997	103.181	20.062	3.044	0.528
792.000	469.636	80.001	19.996	103.175	20.064	2.882	0.529
800.000	473.844	80.001	19.996	103.172	20.067	2.708	0.506
808.000	478.142	80.001	19.995	103.165	20.071	2.461	0.526
816.000	482.329	80.002	19.995	103.173	20.069	2.556	0.540
824.000	486.365	80.003	19.995	103.157	20.073	2.271	0.512
832.000	490.264	80.002	19.996	103.153	20.071	2.432	0.455
840.000	494.128	80.002	19.995	103.154	20.071	2.440	0.504
848.000	497.956	80.003	19.995	103.152	20.070	2.466	0.489
856.000	501.736	80.003	19.995	103.158	20.077	2.051	0.479
864.000	505.598	80.002	19.996	103.165	20.075	2.197	0.481
872.000	509.585	80.002	19.997	103.159	20.077	2.051	0.513
880.000	513.552	80.001	19.995	103.164	20.072	2.377	0.503
888.000	517.701	80.001	19.996	103.168	20.073	2.318	0.499
896.000	521.812	80.000	19.996	103.165	20.072	2.366	0.501
904.000	525.947	80.003	19.995	103.151	20.072	2.363	0.524
912.000	530.158	80.002	19.995	103.155	20.074	2.232	0.522
920.000	534.323	80.002	19.995	103.153	20.073	2.303	0.529
928.000	538.516	80.003	19.995	103.155	20.073	2.274	0.514
936.000	542.757	80.004	19.995	103.150	20.075	2.198	0.569
944.000	547.022	80.002	19.996	103.163	20.078	1.949	0.558
952.000	551.369	80.000	19.997	103.166	20.075	2.139	0.524
960.001	555.795	80.001	19.996	103.148	20.079	1.920	0.563
968.000	560.199	80.000	19.995	103.154	20.078	1.984	0.540
976.000	564.592	80.001	19.996	103.158	20.077	2.040	0.576
984.000	568.917	80.000	19.998	103.156	20.076	2.086	0.538
992.000	573.209	80.001	19.997	103.151	20.076	2.085	0.507
1000.000	577.482	80.002	19.994	103.149	20.075	2.172	0.543
1008.000	581.650	80.002	19.995	103.148	20.077	2.063	0.530
1016.000	585.712	80.004	19.996	103.141	20.075	2.201	0.519
1024.001	589.701	80.001	19.996	103.148	20.075	2.144	0.514
1032.000	593.631	79.999	19.994	103.152	20.075	2.170	0.486
1040.000	597.522	80.001	19.994	103.147	20.078	1.966	0.475
1048.000	601.356	80.000	19.996	103.142	20.078	1.961	0.448
1056.000	605.203	80.001	19.996	103.144	20.078	1.988	0.478
1064.001	609.050	80.002	19.996	103.140	20.081	1.750	0.453
1072.000	612.997	80.002	19.997	103.135	20.077	2.043	0.504
1080.000	616.957	80.002	19.996	103.147	20.082	1.685	0.495
1088.000	620.927	80.002	19.996	103.146	20.080	1.832	0.482
1096.000	624.982	80.003	19.995	103.147	20.078	1.979	0.478
1104.000	629.156	80.001	19.996	103.155	20.078	1.983	0.511
1112.000	633.356	80.000	19.997	103.147	20.077	2.031	0.522
1120.000	637.504	80.003	19.995	103.145	20.081	1.803	0.525
1128.000	641.733	80.002	19.995	103.144	20.079	1.905	0.525
1136.000	646.005	80.000	19.996	103.149	20.079	1.909	0.541
1144.000	650.369	80.002	19.996	103.140	20.084	1.554	0.528
1152.000	654.623	80.003	19.995	103.126	20.082	1.696	0.530
1160.000	658.698	80.002	19.996	103.123	20.084	1.580	0.491
1168.000	662.858	80.001	19.997	103.140	20.080	1.821	0.530
1176.000	666.857	80.002	19.995	103.123	20.084	1.601	0.527
1184.000	670.750	80.001	19.995	103.147	20.085	1.536	0.482
1192.000	674.789	80.000	19.995	103.142	20.084	1.568	0.498
1200.000	678.815	80.002	19.996	103.131	20.084	1.547	0.508
1208.000	682.672	80.001	19.995	103.141	20.082	1.742	0.476
1216.000	686.578	80.000	19.996	103.135	20.080	1.870	0.478
1224.000	690.729	80.002	19.995	103.139	20.079	1.907	0.523
1232.000	695.023	80.002	19.996	103.143	20.078	2.002	0.566
1240.000	699.381	80.001	19.996	103.124	20.078	1.950	0.545
1248.000	703.605	80.001	19.996	103.114	20.079	1.912	0.515
1256.000	707.547	80.003	19.996	103.118	20.080	1.819	0.494
1264.000	711.551	79.999	19.996	103.121	20.079	1.892	0.483
1272.000	715.753	80.001	19.995	103.132	20.078	1.961	0.538
1280.000	720.024	80.001	19.994	103.132	20.078	1.991	0.526
1288.001	724.266	80.000	19.996	103.131	20.075	2.149	0.537
1296.000	728.562	80.000	19.995	103.138	20.078	1.975	0.573
1304.000	732.552	80.002	19.995	103.118	20.077	2.062	0.502
1312.000	736.226	80.003	19.993	103.113	20.078	1.941	0.457
1320.000	740.045	80.002	19.996	103.134	20.079	1.891	0.460
1326.500	743.307	80.001	19.996	103.126	20.078	1.973	0.537

File: Masonite_Board_30K_min_211022_R2.txt
Sample ID:	C:\MCC\MCC Cal\Test\Masonite_Board_30K_min_211022_R2.txt
Sample Weight (mg):	4.83
Heating Rate (C/s):	0.5
Combustor Temp (C):	900
N2 Flow Rate (cc/min):	80
O2 Flow Rate (cc/min):	20
Calibration File:	C:\MCC\MCC Cal\Coeff1 JN10440_30_210304.txt.txt
T Correction Coefficients:	0	1.024463	0
Time Shift (s):	14
*
Time (s)	Temperature (C)	N2 flow rate (cc/min)	O2 flow rate (cc/min)	Flow Rate (cc/min)	Oxygen (%)	HRR (W/g)	Heating rate (C/s)
-0.001	108.339	80.004	19.995	103.033	20.131	-0.067	-0.008
8.000	108.227	79.991	19.996	103.041	20.128	0.120	-0.034
16.000	108.257	80.003	19.995	103.041	20.127	0.180	-0.017
24.000	108.407	80.000	19.994	103.036	20.128	0.170	0.058
32.000	108.289	79.996	19.996	103.080	20.128	0.159	0.013
39.999	108.558	79.991	19.995	103.107	20.117	0.881	0.021
47.999	109.024	80.012	19.994	103.175	20.106	1.573	0.067
55.999	109.907	80.000	19.995	103.191	20.100	2.017	0.126
63.999	111.072	79.999	19.994	103.223	20.097	2.224	0.148
71.999	112.613	80.004	19.995	103.232	20.090	2.688	0.187
79.999	114.538	80.008	19.994	103.252	20.087	2.867	0.305
87.999	116.690	79.997	19.995	103.270	20.084	3.074	0.297
96.000	119.198	80.003	19.995	103.271	20.084	3.098	0.335
103.999	121.904	80.010	19.995	103.271	20.081	3.251	0.337
111.999	124.846	79.998	19.996	103.274	20.077	3.570	0.287
119.999	127.989	80.004	19.995	103.264	20.079	3.379	0.401
127.999	131.208	80.004	19.995	103.267	20.081	3.270	0.403
136.000	134.577	80.004	19.994	103.265	20.082	3.220	0.428
144.000	137.992	80.000	19.995	103.270	20.081	3.260	0.388
152.000	141.539	80.002	19.995	103.265	20.087	2.882	0.427
160.000	145.090	80.001	19.996	103.267	20.085	3.024	0.474
168.000	148.748	80.001	19.998	103.256	20.087	2.893	0.462
176.000	152.444	79.999	19.997	103.265	20.083	3.127	0.500
184.000	156.077	79.999	19.995	103.250	20.084	3.055	0.432
192.000	159.823	80.002	19.995	103.264	20.085	3.011	0.466
200.000	163.614	79.998	19.996	103.254	20.082	3.177	0.467
208.000	167.506	80.003	19.994	103.257	20.078	3.440	0.457
216.000	171.298	80.000	19.994	103.260	20.081	3.289	0.458
224.000	175.249	79.998	19.996	103.260	20.082	3.216	0.498
232.000	179.167	79.999	19.995	103.247	20.082	3.234	0.508
240.000	183.083	79.998	19.995	103.257	20.079	3.407	0.499
248.000	187.159	80.000	19.995	103.247	20.076	3.575	0.493
256.000	191.182	80.001	19.996	103.231	20.078	3.496	0.476
264.000	195.237	79.999	19.995	103.232	20.078	3.476	0.482
272.000	199.291	80.001	19.996	103.230	20.074	3.712	0.480
280.000	203.338	79.999	19.996	103.235	20.081	3.283	0.492
288.000	207.472	80.001	19.997	103.225	20.076	3.637	0.513
296.000	211.526	79.998	19.995	103.288	20.073	3.797	0.478
304.000	215.644	79.998	19.995	103.225	20.070	4.007	0.506
312.000	219.706	79.999	19.995	103.226	20.069	4.057	0.516
320.000	223.687	80.000	19.996	103.224	20.062	4.542	0.476
328.000	227.646	79.999	19.995	103.225	20.057	4.847	0.520
336.000	231.626	80.001	19.995	103.225	20.052	5.205	0.517
344.000	235.545	80.001	19.995	103.227	20.049	5.382	0.475
352.000	239.392	79.999	19.997	103.214	20.039	6.092	0.479
360.000	243.237	80.001	19.995	103.223	20.029	6.742	0.472
368.000	247.060	80.002	19.996	103.224	20.015	7.666	0.515
376.000	250.963	80.000	19.996	103.223	20.000	8.688	0.478
384.000	254.802	79.998	19.996	103.229	19.984	9.726	0.455
392.000	258.691	79.998	19.996	103.231	19.965	11.007	0.477
400.000	262.555	80.000	19.995	103.248	19.938	12.794	0.503
408.000	266.415	80.000	19.994	103.270	19.911	14.610	0.478
416.000	270.384	80.000	19.995	103.278	19.879	16.739	0.505
424.000	274.417	80.001	19.993	103.302	19.844	19.098	0.484
432.000	278.428	80.002	19.994	103.304	19.801	21.959	0.505
440.000	282.443	80.000	19.995	103.352	19.773	23.794	0.487
448.000	286.526	80.001	19.996	103.312	19.736	26.268	0.485
456.000	290.527	80.000	19.995	103.313	19.703	28.502	0.475
464.000	294.552	79.998	19.997	103.318	19.686	29.649	0.481
472.000	298.543	79.997	19.997	103.306	19.670	30.720	0.518
480.000	302.565	80.000	19.995	103.312	19.658	31.498	0.499
488.000	306.616	79.998	19.995	103.321	19.649	32.096	0.517
496.000	310.704	79.999	19.997	103.312	19.637	32.918	0.521
504.000	314.747	80.000	19.996	103.331	19.617	34.259	0.489
512.000	318.803	80.004	19.993	103.343	19.596	35.635	0.502
520.000	322.776	80.002	19.997	103.348	19.562	37.929	0.504
528.000	326.700	80.002	19.996	103.385	19.524	40.447	0.516
536.000	330.706	80.000	19.996	103.385	19.474	43.788	0.487
544.000	334.682	80.000	19.995	103.386	19.410	48.119	0.513
552.000	338.674	80.001	19.996	103.423	19.340	52.811	0.482
560.000	342.693	79.999	19.996	103.455	19.253	58.633	0.492
568.000	346.852	79.998	19.996	103.459	19.159	64.975	0.500
576.000	351.059	80.000	19.995	103.531	19.065	71.254	0.529
584.000	355.281	80.000	19.996	103.560	18.974	77.319	0.540
592.000	359.479	79.998	19.995	103.577	18.898	82.378	0.489
600.000	363.638	80.000	19.996	103.555	18.860	84.925	0.509
608.000	367.711	80.000	19.995	103.533	18.870	84.177	0.482
616.000	371.814	80.001	19.995	103.474	18.944	79.222	0.485
624.000	375.835	79.999	19.996	103.406	19.082	69.930	0.535
632.000	379.863	80.001	19.997	103.328	19.272	57.194	0.521
640.000	383.809	79.999	19.997	103.250	19.496	42.271	0.489
648.000	387.798	79.999	19.995	103.194	19.692	29.179	0.500
656.000	391.809	79.997	19.997	103.175	19.853	18.456	0.528
664.000	395.802	80.000	19.996	103.155	19.941	12.617	0.484
672.000	399.824	80.000	19.995	103.152	19.989	9.370	0.508
680.000	403.808	79.999	19.994	103.151	20.007	8.208	0.484
688.000	407.789	80.004	19.995	103.149	20.014	7.746	0.515
696.000	411.806	80.001	19.994	103.149	20.018	7.479	0.492
704.000	415.767	80.001	19.995	103.159	20.021	7.268	0.488
712.000	419.838	79.999	19.993	103.153	20.021	7.237	0.497
720.000	423.816	79.999	19.995	103.152	20.027	6.862	0.489
728.000	427.880	79.997	19.996	103.153	20.030	6.642	0.516
736.000	432.017	79.994	20.002	103.154	20.036	6.268	0.536
744.000	436.122	80.001	19.997	103.147	20.040	5.976	0.519
752.000	440.225	80.001	19.997	103.145	20.046	5.615	0.515
760.000	444.283	80.000	19.996	103.147	20.055	5.002	0.485
768.000	448.366	80.000	19.996	103.147	20.059	4.743	0.543
776.000	452.387	80.006	19.992	103.143	20.066	4.285	0.453
784.000	456.364	79.999	19.995	103.151	20.070	3.973	0.498
792.000	460.395	80.003	19.991	103.155	20.071	3.939	0.492
800.000	464.526	80.003	19.994	103.149	20.078	3.497	0.510
808.000	468.681	80.002	19.994	103.150	20.078	3.468	0.524
816.000	472.785	80.001	20.000	103.144	20.084	3.061	0.468
824.000	476.842	80.002	19.998	103.147	20.084	3.048	0.057
832.000	481.061	79.997	20.004	103.148	20.089	2.753	0.490
840.000	485.146	80.002	19.997	103.150	20.081	3.245	0.526
848.000	489.320	80.001	19.993	103.150	20.084	3.037	0.501
856.000	493.300	80.006	19.994	103.149	20.087	2.866	0.540
864.000	497.379	80.001	19.997	103.145	20.086	2.935	0.539
872.000	501.490	79.998	19.997	103.141	20.094	2.412	0.521
880.000	505.555	79.998	19.996	103.147	20.095	2.342	0.503
888.000	509.713	80.003	19.995	103.137	20.093	2.443	0.569
896.000	513.690	79.998	20.000	103.144	20.097	2.218	0.513
904.000	517.776	80.000	19.993	103.141	20.095	2.355	0.514
912.000	521.880	80.002	19.994	103.136	20.097	2.182	0.502
920.000	525.920	80.001	19.991	103.144	20.096	2.263	0.530
928.000	529.974	79.998	19.993	103.147	20.096	2.293	0.499
936.000	533.989	80.003	19.993	103.133	20.098	2.165	0.487
944.000	538.068	80.002	20.001	103.141	20.097	2.176	0.505
952.000	542.075	79.997	19.998	103.122	20.097	2.180	0.501
960.000	546.061	79.999	19.993	103.146	20.096	2.302	0.485
968.000	550.109	79.997	20.000	103.148	20.098	2.114	0.510
976.000	554.182	80.001	19.992	103.145	20.096	2.255	0.515
984.000	558.227	80.004	19.994	103.149	20.095	2.326	0.533
992.000	562.221	79.999	19.995	103.142	20.096	2.284	0.460
1000.000	566.192	80.001	19.995	103.129	20.097	2.176	0.484
1008.000	570.199	80.000	19.997	103.131	20.100	2.024	0.505
1016.000	574.247	80.000	19.996	103.129	20.102	1.884	0.530
1024.000	578.277	80.002	19.993	103.144	20.097	2.174	0.499
1031.999	582.238	80.000	19.994	103.134	20.097	2.231	0.518
1039.999	586.205	80.000	19.995	103.138	20.096	2.275	0.488
1047.999	590.331	79.999	19.995	103.147	20.099	2.040	0.511
1055.999	594.561	80.001	19.996	103.133	20.094	2.400	0.503
1063.999	598.855	80.000	19.994	103.124	20.095	2.362	0.524
1071.999	603.117	80.006	19.991	103.137	20.093	2.486	0.517
1079.999	607.417	79.996	19.999	103.133	20.094	2.388	0.552
1087.999	611.786	80.001	19.996	103.141	20.095	2.304	0.521
1095.999	616.090	80.001	19.996	103.124	20.095	2.343	0.558
1103.999	620.319	80.003	19.993	103.134	20.095	2.320	0.543
1111.999	624.489	79.998	19.996	103.135	20.093	2.439	0.529
1119.999	628.620	79.999	19.996	103.128	20.096	2.265	0.517
1127.999	632.637	80.002	19.996	103.119	20.094	2.422	0.459
1135.999	636.691	80.000	19.995	103.122	20.089	2.725	0.505
1143.999	640.709	80.000	19.994	103.147	20.090	2.641	0.506
1151.999	644.858	80.000	19.995	103.118	20.095	2.349	0.507
1159.999	649.078	80.003	19.994	103.123	20.089	2.760	0.522
1167.999	653.390	80.002	19.997	103.125	20.089	2.738	0.581
1175.999	657.612	80.001	19.993	103.117	20.089	2.710	0.541
1183.999	661.890	80.003	19.994	103.116	20.089	2.737	0.517
1191.999	666.087	80.000	19.997	103.112	20.090	2.659	0.527
1199.999	670.104	80.002	19.995	103.109	20.093	2.495	0.489
1207.999	674.167	79.999	19.996	103.117	20.092	2.521	0.516
1215.999	678.208	80.000	19.998	103.115	20.096	2.270	0.473
1223.999	682.187	80.000	19.995	103.115	20.095	2.367	0.466
1231.999	686.118	80.001	19.995	103.120	20.092	2.564	0.508
1239.999	690.048	80.002	19.996	103.114	20.091	2.600	0.491
1247.999	694.000	80.001	19.996	103.112	20.092	2.524	0.520
1255.999	697.960	80.002	19.995	103.111	20.089	2.750	0.522
1263.999	701.916	80.003	19.996	103.111	20.093	2.495	0.508
1271.999	705.905	80.002	19.996	103.112	20.089	2.765	0.511
1279.999	710.097	80.001	19.995	103.128	20.091	2.597	0.532
1287.999	714.390	80.001	19.995	103.123	20.092	2.504	0.530
1295.999	718.803	80.000	19.996	103.117	20.088	2.818	0.576
1303.999	723.195	80.000	19.997	103.112	20.093	2.478	0.518
1312.000	727.582	79.998	19.997	103.115	20.091	2.586	0.587
1319.999	731.914	80.003	19.996	103.121	20.090	2.694	0.539
1327.999	736.154	80.002	19.996	103.113	20.089	2.745	0.487
1335.999	740.401	80.001	19.998	103.112	20.085	3.007	0.518
1342.000	743.491	80.002	19.995	103.112	20.090	2.668	0.530