Folder: fsri_materials_database/01_Data/Masonite_Board/MCC (part 2)

File: Masonite_Board_30K_min_211025_R3.txt
Sample ID:	C:\MCC\MCC Cal\Test\Masonite_Board_30K_min_211023_R3.txt
Sample Weight (mg):	4.63
Heating Rate (C/s):	0.5
Combustor Temp (C):	900
N2 Flow Rate (cc/min):	80
O2 Flow Rate (cc/min):	20
Calibration File:	C:\MCC\MCC Cal\Coeff1 JN10440_30_210304.txt.txt
T Correction Coefficients:	0	1.024463	0
Time Shift (s):	14
*
Time (s)	Temperature (C)	N2 flow rate (cc/min)	O2 flow rate (cc/min)	Flow Rate (cc/min)	Oxygen (%)	HRR (W/g)	Heating rate (C/s)
0.000	107.751	80.000	19.995	103.006	20.064	-0.105	-0.009
8.001	107.726	80.000	19.994	103.010	20.061	0.141	-0.015
16.000	107.751	79.998	19.996	103.001	20.064	-0.040	-0.003
24.000	107.714	79.999	19.996	103.002	20.064	-0.042	-0.006
32.000	107.724	79.997	19.996	103.004	20.063	-0.017	-0.024
40.001	107.759	79.998	19.996	103.187	20.038	1.707	0.041
48.000	108.343	79.995	19.996	103.219	20.031	2.221	0.083
56.001	109.456	79.998	19.996	103.215	20.027	2.523	0.161
64.000	110.998	80.000	19.996	103.223	20.020	2.997	0.208
72.000	112.873	79.998	19.995	103.238	20.022	2.829	0.271
80.000	115.094	79.998	19.994	103.252	20.020	2.973	0.294
88.000	117.632	79.999	19.995	103.269	20.019	3.044	0.332
96.000	120.029	79.998	19.996	102.967	20.056	0.497	0.270
104.001	121.740	79.998	19.996	102.966	20.076	-0.932	0.177
112.000	122.895	79.998	19.996	102.959	20.079	-1.100	0.129
120.000	123.553	79.998	19.996	103.251	20.041	1.530	0.083
128.000	125.006	79.999	19.998	103.359	20.007	3.871	0.231
136.000	127.418	79.999	19.995	103.327	20.007	3.923	0.348
144.000	130.453	80.000	19.996	103.319	20.003	4.169	0.389
152.000	133.908	79.998	19.996	103.314	20.006	3.964	0.434
160.000	137.710	79.998	19.996	103.303	20.009	3.766	0.475
168.000	141.846	80.001	19.995	103.335	20.002	4.209	0.538
176.000	146.284	80.001	19.995	103.324	20.001	4.328	0.555
184.000	150.901	79.998	19.994	103.312	20.007	3.880	0.573
192.000	155.697	79.998	19.996	103.310	20.011	3.650	0.630
200.000	160.422	79.998	19.995	103.279	20.014	3.374	0.585
208.000	165.253	79.998	19.995	103.261	20.018	3.114	0.593
216.000	169.957	79.998	19.995	103.254	20.019	3.060	0.600
224.000	174.591	80.000	19.995	103.238	20.021	2.905	0.576
232.000	179.127	80.001	19.994	103.232	20.023	2.810	0.533
240.000	183.487	79.999	19.994	103.238	20.022	2.859	0.528
248.000	187.827	80.000	19.995	103.231	20.021	2.885	0.536
256.000	191.977	80.000	19.995	103.199	20.023	2.771	0.500
264.000	196.094	79.998	19.995	103.203	20.018	3.099	0.505
272.000	200.041	79.999	19.996	103.201	20.018	3.122	0.488
280.000	203.902	79.998	19.996	103.200	20.022	2.859	0.507
288.000	207.782	79.997	19.996	103.208	20.018	3.154	0.492
296.000	211.649	79.998	19.996	103.211	20.018	3.160	0.481
304.001	215.510	80.000	19.995	103.202	20.012	3.565	0.483
312.000	219.402	79.998	19.996	103.201	20.011	3.632	0.501
320.000	223.258	79.998	19.996	103.199	20.005	4.027	0.495
328.000	227.074	80.000	19.995	103.207	20.000	4.346	0.456
336.000	231.040	80.001	19.996	103.208	19.999	4.474	0.508
344.000	234.915	79.999	19.996	103.223	19.987	5.290	0.504
352.000	238.815	79.999	19.995	103.229	19.981	5.681	0.467
360.000	242.691	79.999	19.995	103.218	19.973	6.280	0.484
368.000	246.666	79.998	19.996	103.226	19.966	6.769	0.499
376.000	250.574	79.997	19.995	103.234	19.951	7.806	0.489
384.000	254.477	80.001	19.995	103.231	19.939	8.607	0.451
392.001	258.474	80.000	19.995	103.238	19.921	9.905	0.495
400.000	262.364	80.000	19.997	103.244	19.896	11.639	0.475
408.000	266.347	80.000	19.996	103.245	19.869	13.528	0.482
416.000	270.299	80.001	19.996	103.258	19.837	15.709	0.490
424.000	274.301	79.998	19.995	103.278	19.804	18.036	0.485
432.000	278.278	79.997	19.995	103.292	19.769	20.462	0.522
440.000	282.262	79.998	19.995	103.314	19.733	22.973	0.478
448.000	286.292	79.999	19.995	103.291	19.703	25.073	0.484
456.000	290.228	79.998	19.995	103.313	19.679	26.732	0.521
464.000	294.316	79.999	19.995	103.313	19.654	28.474	0.501
472.000	298.404	80.000	19.996	103.309	19.641	29.344	0.511
480.000	302.488	79.999	19.996	103.314	19.626	30.451	0.511
488.000	306.566	79.999	19.996	103.331	19.616	31.150	0.515
496.000	310.678	80.001	19.996	103.318	19.601	32.153	0.495
504.000	314.654	79.997	19.995	103.316	19.583	33.443	0.451
512.000	318.721	79.998	19.994	103.317	19.565	34.652	0.501
520.000	322.729	79.998	19.995	103.342	19.534	36.835	0.490
528.000	326.690	79.998	19.996	103.333	19.494	39.621	0.505
536.000	330.613	79.996	19.996	103.366	19.450	42.688	0.499
544.000	334.505	79.998	19.996	103.394	19.393	46.692	0.489
552.000	338.369	80.000	19.996	103.414	19.328	51.232	0.464
560.000	342.218	79.999	19.996	103.432	19.255	56.337	0.483
568.000	346.022	79.999	19.995	103.474	19.174	61.972	0.523
576.000	349.837	80.002	19.996	103.489	19.098	67.289	0.464
584.001	353.713	79.998	19.996	103.510	19.022	72.604	0.484
592.000	357.626	79.996	19.997	103.533	18.956	77.262	0.469
600.000	361.632	79.996	19.996	103.545	18.911	80.337	0.507
608.000	365.671	79.999	19.996	103.525	18.905	80.725	0.509
616.000	369.797	79.998	19.996	103.492	18.952	77.443	0.557
624.000	373.872	79.999	19.995	103.435	19.045	70.844	0.562
632.000	378.088	79.998	19.995	103.354	19.201	59.974	0.507
640.000	382.211	79.999	19.995	103.293	19.396	46.402	0.523
648.000	386.404	80.000	19.996	103.236	19.599	32.279	0.540
656.000	390.572	79.999	19.996	103.197	19.760	21.073	0.517
664.000	394.781	80.000	19.996	103.176	19.861	14.005	0.498
672.000	398.898	79.999	19.996	103.158	19.915	10.310	0.507
680.000	403.028	79.997	19.996	103.163	19.936	8.791	0.523
688.000	407.143	79.998	19.997	103.158	19.942	8.406	0.516
696.000	411.202	79.998	19.996	103.160	19.950	7.858	0.494
704.000	415.177	79.997	19.995	103.162	19.955	7.503	0.501
712.000	419.251	79.999	19.996	103.160	19.957	7.390	0.503
720.000	423.265	80.001	19.995	103.157	19.958	7.302	0.501
728.000	427.295	79.999	19.996	103.158	19.963	6.961	0.545
736.000	431.288	80.001	19.995	103.159	19.966	6.726	0.495
744.000	435.395	80.000	19.995	103.156	19.970	6.455	0.500
752.000	439.372	79.997	19.995	103.161	19.976	6.043	0.478
760.000	443.463	79.998	19.996	103.164	19.986	5.363	0.523
768.000	447.622	79.998	19.996	103.162	19.987	5.297	0.505
776.000	451.870	79.998	19.995	103.152	19.987	5.252	0.563
784.000	456.115	79.998	19.997	103.158	19.995	4.724	0.514
792.000	460.406	80.000	19.995	103.152	20.002	4.243	0.513
800.000	464.632	79.999	19.995	103.150	20.006	3.956	0.535
808.000	468.833	80.000	19.996	103.153	20.006	3.991	0.512
816.000	473.079	79.999	19.996	103.160	20.012	3.539	0.516
824.000	477.308	80.002	19.995	103.158	20.014	3.425	0.524
832.000	481.449	79.999	19.994	103.143	20.012	3.557	0.486
840.000	485.456	79.999	19.996	103.125	20.017	3.168	0.517
848.000	489.363	79.999	19.997	103.143	20.021	2.899	0.483
856.000	493.328	80.000	19.995	103.145	20.017	3.202	0.500
864.000	497.257	79.999	19.995	103.148	20.021	2.933	0.493
872.000	501.218	79.998	19.998	103.147	20.020	2.985	0.488
880.000	505.150	80.000	19.997	103.126	20.023	2.748	0.501
888.000	509.081	79.999	19.996	103.127	20.020	2.962	0.514
896.000	513.165	79.999	19.995	103.143	20.022	2.839	0.517
904.000	517.305	80.002	19.996	103.136	20.019	3.059	0.530
912.000	521.510	79.999	19.995	103.124	20.018	3.118	0.551
920.000	525.631	79.999	19.996	103.122	20.021	2.919	0.531
928.000	529.666	79.998	19.995	103.129	20.019	3.084	0.492
936.000	533.686	79.998	19.996	103.133	20.019	3.046	0.512
944.000	537.759	79.999	19.997	103.139	20.016	3.294	0.516
952.000	541.896	79.997	19.995	103.147	20.017	3.166	0.580
960.000	546.130	79.999	19.996	103.151	20.013	3.488	0.551
968.000	550.425	79.997	19.997	103.135	20.015	3.301	0.544
976.000	554.826	79.999	19.996	103.139	20.019	3.074	0.582
984.000	559.144	80.001	19.996	103.139	20.018	3.147	0.544
992.000	563.498	80.000	19.995	103.144	20.016	3.234	0.526
1000.000	567.816	79.999	19.997	103.153	20.018	3.107	0.555
1008.000	572.042	79.999	19.995	103.153	20.014	3.418	0.524
1016.000	576.331	79.997	19.995	103.149	20.018	3.152	0.537
1024.000	580.538	79.997	19.996	103.132	20.013	3.463	0.536
1032.000	584.652	79.998	19.996	103.129	20.016	3.271	0.497
1040.000	588.747	80.000	19.997	103.130	20.014	3.408	0.532
1048.000	592.833	80.000	19.997	103.122	20.014	3.406	0.510
1056.000	596.923	79.999	19.997	103.119	20.010	3.662	0.499
1064.000	600.946	80.001	19.998	103.141	20.010	3.666	0.496
1072.000	604.891	80.000	19.996	103.141	20.011	3.621	0.473
1080.000	608.871	79.996	19.995	103.121	20.010	3.648	0.499
1088.001	612.858	79.998	19.995	103.125	20.015	3.327	0.493
1096.001	616.872	79.999	19.997	103.118	20.012	3.541	0.488
1104.000	620.825	79.999	19.995	103.121	20.010	3.691	0.506
1112.000	624.691	80.000	19.995	103.132	20.013	3.503	0.471
1120.000	628.543	79.999	19.996	103.116	20.012	3.517	0.487
1128.000	632.368	79.999	19.996	103.147	20.014	3.385	0.513
1136.000	636.294	79.998	19.996	103.123	20.011	3.627	0.470
1144.000	640.212	80.000	19.996	103.111	20.013	3.488	0.512
1152.000	644.127	79.999	19.996	103.124	20.013	3.442	0.494
1160.000	648.101	80.000	19.995	103.124	20.010	3.688	0.493
1168.000	652.308	79.999	19.994	103.119	20.013	3.436	0.525
1176.000	656.545	79.999	19.995	103.122	20.009	3.762	0.504
1184.000	660.794	79.999	19.997	103.129	20.007	3.898	0.519
1192.001	664.919	80.000	19.996	103.116	20.010	3.690	0.513
1200.000	668.928	79.999	19.994	103.121	20.009	3.775	0.548
1208.000	672.875	80.000	19.995	103.108	20.011	3.577	0.497
1216.000	676.797	80.001	19.995	103.099	20.013	3.501	0.502
1224.000	680.620	80.000	19.996	103.101	20.012	3.567	0.453
1232.000	684.411	80.003	19.997	103.115	20.010	3.659	0.446
1240.000	688.199	79.999	19.996	103.109	20.012	3.534	0.475
1248.000	691.955	79.997	19.997	103.096	20.012	3.520	0.462
1256.001	695.829	80.000	19.996	103.107	20.007	3.879	0.495
1264.001	700.121	79.999	19.997	103.124	20.008	3.839	0.521
1272.001	704.632	79.998	19.997	103.125	20.004	4.123	0.591
1280.000	709.339	79.999	19.996	103.119	20.011	3.632	0.596
1288.001	714.077	80.002	19.995	103.114	20.004	4.120	0.582
1296.000	718.927	80.001	19.996	103.112	20.010	3.661	0.617
1304.001	723.506	80.001	19.996	103.113	20.005	4.006	0.562
1312.000	728.052	80.001	19.996	103.088	20.006	3.954	0.573
1320.000	732.414	80.002	19.995	103.093	20.007	3.870	0.541
1328.001	736.755	80.000	19.996	103.092	20.009	3.759	0.503
1336.001	741.021	80.000	19.995	103.096	20.004	4.091	0.511
1340.501	743.426	79.998	19.996	103.091	20.008	3.850	0.550