Folder: fsri_materials_database/01_Data/Countertop_Plastic_Laminate_Laminate/MCC

Note: 01_Data/README.md
# Materials and Products Database
## 01_Data

Raw data generated from each apparatus are included here in plain-text format. The data is organized first by material, next by the short name of test apparatus used, and where applicable additional filtering by test settings.

### material.json

Each material directory contains a json file of the same name as the material. This file links the data stored in the repository as well as data and graphs produced by the accompanying scripts (__02_Scripts__) to the respective landing page for the material on the front-end website.

File: Countertop_Plastic_Laminate_Laminate_MCC_30K_min_211103_R3.txt
Sample ID:	C:\MCC\MCC Cal\Countertop_Plastic_LaminateA_MCC_30K_min_211103_R3.txt
Sample Weight (mg):	4.62
Heating Rate (C/s):	0.5
Combustor Temp (C):	900
N2 Flow Rate (cc/min):	80
O2 Flow Rate (cc/min):	20
Calibration File:	C:\MCC\MCC Cal\Coeff1 JN10440_30_210304.txt.txt
T Correction Coefficients:	0	1.024463	0
Time Shift (s):	14
*
Time (s)	Temperature (C)	N2 flow rate (cc/min)	O2 flow rate (cc/min)	Flow Rate (cc/min)	Oxygen (%)	HRR (W/g)	Heating rate (C/s)
0.000	107.596	80.008	19.996	103.052	20.133	0.142	0.014
8.000	107.606	80.009	19.994	103.057	20.133	0.127	0.014
16.001	107.568	80.007	19.995	103.096	20.128	0.459	-0.012
24.000	107.926	80.005	19.996	103.234	20.108	1.866	0.062
32.000	108.741	80.007	19.995	103.261	20.100	2.409	0.124
40.000	109.969	80.006	19.995	103.264	20.094	2.809	0.178
48.000	111.570	80.006	19.994	103.274	20.097	2.651	0.172
56.000	113.509	80.008	19.994	103.273	20.095	2.778	0.252
64.000	115.627	80.008	19.994	103.291	20.088	3.225	0.270
72.000	118.053	80.009	19.993	103.281	20.086	3.394	0.327
80.000	120.641	80.007	19.994	103.304	20.085	3.433	0.341
88.000	123.522	80.008	19.995	103.298	20.084	3.546	0.373
96.000	126.563	80.008	19.994	103.302	20.083	3.624	0.381
104.000	129.798	80.005	19.993	103.330	20.081	3.755	0.404
112.000	133.277	80.006	19.995	103.332	20.083	3.596	0.450
120.000	136.837	80.007	19.995	103.329	20.082	3.645	0.465
128.000	140.588	80.008	19.995	103.318	20.085	3.430	0.494
136.000	144.369	80.007	19.995	103.321	20.083	3.607	0.480
144.000	148.251	80.007	19.994	103.303	20.086	3.418	0.479
152.000	152.197	80.009	19.995	103.307	20.087	3.316	0.497
160.000	156.113	80.007	19.995	103.303	20.079	3.888	0.456
168.000	160.091	80.008	19.995	103.298	20.082	3.689	0.495
176.000	164.090	80.009	19.994	103.299	20.084	3.523	0.524
184.000	168.060	80.009	19.994	103.292	20.082	3.643	0.466
192.000	172.097	80.008	19.995	103.315	20.083	3.594	0.496
200.000	176.200	80.006	19.995	103.294	20.084	3.535	0.541
208.000	180.347	80.007	19.995	103.290	20.082	3.663	0.525
216.000	184.564	80.006	19.995	103.291	20.084	3.516	0.529
224.000	188.779	80.006	19.995	103.292	20.082	3.691	0.546
232.000	192.971	80.008	19.995	103.284	20.082	3.648	0.516
240.000	197.107	80.008	19.994	103.270	20.085	3.426	0.543
248.000	201.190	80.008	19.995	103.257	20.081	3.738	0.499
256.000	205.297	80.009	19.995	103.261	20.080	3.819	0.519
264.000	209.344	80.012	19.995	103.273	20.081	3.770	0.506
272.000	213.329	80.008	19.994	103.253	20.082	3.692	0.510
280.000	217.315	80.007	19.995	103.256	20.079	3.853	0.515
288.000	221.256	80.007	19.996	103.258	20.078	3.940	0.491
296.000	225.200	80.008	19.995	103.255	20.076	4.064	0.475
304.000	229.174	80.006	19.995	103.255	20.075	4.161	0.489
312.000	233.032	80.007	19.995	103.255	20.072	4.384	0.495
320.000	236.780	80.009	19.996	103.265	20.072	4.365	0.486
328.000	240.565	80.009	19.994	103.254	20.068	4.673	0.469
336.000	244.398	80.008	19.995	103.254	20.065	4.874	0.471
344.000	248.159	80.010	19.994	103.255	20.057	5.430	0.455
352.000	252.047	80.009	19.995	103.257	20.056	5.504	0.519
360.000	255.783	80.009	19.995	103.263	20.047	6.100	0.485
368.001	259.621	80.008	19.994	103.286	20.039	6.653	0.469
376.000	263.440	80.007	19.994	103.273	20.035	6.974	0.474
384.000	267.408	80.007	19.995	103.278	20.019	8.095	0.493
392.000	271.398	80.009	19.995	103.284	20.008	8.838	0.510
400.000	275.334	80.009	19.995	103.290	19.998	9.525	0.516
408.000	279.358	80.009	19.995	103.305	19.981	10.686	0.494
416.000	283.308	80.008	19.996	103.305	19.968	11.600	0.503
424.000	287.321	80.009	19.995	103.325	19.950	12.854	0.524
432.000	291.339	80.010	19.994	103.323	19.927	14.451	0.489
440.000	295.417	80.006	19.995	103.333	19.908	15.823	0.477
448.000	299.431	80.006	19.994	103.338	19.882	17.617	0.476
456.000	303.480	80.008	19.994	103.350	19.851	19.818	0.533
464.000	307.428	80.009	19.995	103.371	19.816	22.254	0.455
472.000	311.402	80.007	19.995	103.389	19.783	24.529	0.491
480.000	315.417	80.007	19.996	103.400	19.744	27.305	0.520
488.000	319.414	80.006	19.994	103.422	19.703	30.135	0.499
496.000	323.428	80.007	19.995	103.453	19.659	33.238	0.512
504.000	327.464	80.006	19.996	103.472	19.615	36.324	0.535
512.000	331.471	80.008	19.995	103.480	19.559	40.192	0.506
520.000	335.580	80.009	19.995	103.480	19.519	42.998	0.482
528.000	339.589	80.007	19.994	103.470	19.490	45.038	0.491
536.000	343.625	80.009	19.995	103.446	19.490	44.968	0.485
544.000	347.637	80.007	19.995	103.401	19.525	42.505	0.467
552.000	351.649	80.008	19.995	103.330	19.593	37.767	0.496
560.001	355.679	80.005	19.995	103.278	19.683	31.514	0.496
568.000	359.721	80.008	19.994	103.257	19.772	25.307	0.501
576.000	363.763	80.009	19.995	103.246	19.843	20.303	0.533
584.000	367.754	80.009	19.995	103.238	19.902	16.244	0.499
592.000	371.781	80.009	19.994	103.234	19.938	13.667	0.485
600.000	375.903	80.008	19.996	103.215	19.958	12.272	0.528
608.000	379.928	80.008	19.996	103.213	19.975	11.156	0.494
616.000	383.967	80.007	19.995	103.219	19.983	10.551	0.516
624.000	388.019	80.010	19.994	103.217	19.985	10.396	0.518
632.000	392.085	80.007	19.994	103.210	19.986	10.387	0.524
640.000	396.096	80.006	19.994	103.220	19.980	10.761	0.484
648.000	400.139	80.006	19.995	103.218	19.981	10.698	0.512
656.000	404.123	80.009	19.995	103.218	19.976	11.023	0.494
664.000	408.212	80.007	19.995	103.212	19.972	11.335	0.525
672.000	412.232	80.012	19.995	103.213	19.966	11.777	0.482
680.000	416.274	80.011	19.995	103.230	19.965	11.842	0.519
688.000	420.383	80.008	19.995	103.221	19.962	12.044	0.534
696.000	424.450	80.006	19.995	103.217	19.955	12.530	0.518
704.000	428.495	80.008	19.996	103.213	19.954	12.558	0.510
712.000	432.517	80.007	19.995	103.219	19.955	12.489	0.494
720.000	436.619	80.008	19.995	103.214	19.955	12.523	0.493
728.000	440.638	80.010	19.995	103.206	19.955	12.548	0.486
736.000	444.646	80.011	19.994	103.206	19.957	12.362	0.496
744.000	448.712	80.009	19.995	103.204	19.961	12.083	0.498
752.000	452.750	80.009	19.994	103.192	19.971	11.401	0.534
760.000	456.829	80.010	19.995	103.193	19.974	11.217	0.511
768.000	460.943	80.008	19.995	103.199	19.980	10.773	0.507
776.000	465.021	80.006	19.995	103.183	19.986	10.345	0.549
784.000	469.205	80.007	19.995	103.205	19.993	9.872	0.534
792.000	473.385	80.007	19.995	103.208	19.995	9.751	0.518
800.000	477.571	80.008	19.995	103.193	19.993	9.863	0.555
808.000	481.683	80.006	19.996	103.174	20.002	9.238	0.540
816.000	485.760	80.008	19.995	103.188	20.006	8.970	0.503
824.000	489.854	80.009	19.994	103.179	20.015	8.354	0.491
832.000	493.957	80.008	19.995	103.186	20.017	8.218	0.502
840.000	498.033	80.009	19.995	103.179	20.020	8.004	0.476
848.000	502.064	80.008	19.995	103.182	20.019	8.040	0.479
856.000	506.119	80.008	19.994	103.180	20.025	7.611	0.480
864.000	510.128	80.007	19.996	103.171	20.028	7.454	0.512
872.001	514.065	80.010	19.995	103.171	20.028	7.460	0.483
880.000	518.138	80.008	19.995	103.174	20.030	7.275	0.509
888.000	522.278	80.006	19.995	103.180	20.035	6.954	0.528
896.000	526.341	80.008	19.996	103.171	20.038	6.703	0.528
904.000	530.471	80.007	19.995	103.172	20.041	6.553	0.502
912.000	534.646	80.010	19.994	103.175	20.044	6.302	0.568
920.000	538.641	80.009	19.995	103.165	20.051	5.839	0.493
928.000	542.701	80.009	19.994	103.171	20.051	5.805	0.503
936.000	546.760	80.008	19.996	103.160	20.057	5.438	0.524
944.000	550.744	80.008	19.994	103.168	20.059	5.291	0.472
952.000	554.757	80.009	19.995	103.173	20.064	4.885	0.513
960.000	558.934	80.007	19.994	103.174	20.063	5.006	0.507
968.000	563.163	80.007	19.996	103.185	20.063	4.991	0.573
976.000	567.359	80.007	19.995	103.167	20.061	5.155	0.513
984.000	571.604	80.007	19.995	103.152	20.059	5.242	0.551
992.000	575.851	80.008	19.995	103.153	20.068	4.665	0.527
1000.000	580.075	80.008	19.996	103.173	20.071	4.408	0.550
1008.000	584.190	80.011	19.994	103.170	20.073	4.318	0.503
1016.000	588.228	80.010	19.994	103.154	20.074	4.190	0.502
1024.000	592.231	80.008	19.995	103.168	20.074	4.203	0.490
1032.000	596.320	80.008	19.996	103.176	20.078	3.948	0.503
1040.000	600.306	80.007	19.994	103.178	20.079	3.850	0.512
1048.000	604.282	80.008	19.995	103.180	20.079	3.889	0.492
1056.000	608.292	80.006	19.995	103.170	20.080	3.821	0.520
1064.001	612.345	80.009	19.996	103.163	20.079	3.845	0.509
1072.000	616.395	80.010	19.995	103.169	20.078	3.916	0.507
1080.000	620.456	80.009	19.995	103.156	20.082	3.647	0.491
1088.000	624.610	80.009	19.996	103.172	20.087	3.324	0.534
1096.001	628.712	80.011	19.995	103.153	20.088	3.240	0.501
1104.000	632.842	80.008	19.994	103.169	20.087	3.325	0.510
1112.000	637.017	80.007	19.994	103.169	20.088	3.264	0.522
1120.000	641.061	80.009	19.995	103.173	20.091	3.060	0.495
1128.000	645.108	80.009	19.994	103.173	20.088	3.255	0.522
1136.000	649.107	80.008	19.995	103.176	20.088	3.211	0.491
1144.000	653.088	80.009	19.995	103.156	20.091	3.001	0.467
1152.000	657.013	80.011	19.994	103.147	20.091	3.012	0.464
1160.000	660.951	80.009	19.994	103.157	20.090	3.115	0.478
1168.000	664.955	80.008	19.995	103.143	20.094	2.805	0.524
1176.001	669.043	80.010	19.995	103.164	20.094	2.806	0.507
1184.001	673.194	80.009	19.995	103.139	20.095	2.771	0.546
1192.001	677.354	80.008	19.996	103.143	20.094	2.792	0.548
1200.000	681.471	80.008	19.995	103.146	20.096	2.680	0.510
1208.001	685.610	80.010	19.995	103.149	20.098	2.544	0.501
1216.000	689.746	80.009	19.995	103.149	20.096	2.712	0.520
1224.000	693.838	80.008	19.994	103.157	20.102	2.257	0.503
1232.001	698.047	80.009	19.994	103.155	20.103	2.215	0.528
1240.000	702.112	80.009	19.994	103.153	20.101	2.357	0.536
1248.000	706.141	80.010	19.996	103.139	20.097	2.642	0.498
1256.000	710.110	80.009	19.995	103.146	20.098	2.559	0.481
1264.000	714.041	80.008	19.993	103.137	20.096	2.706	0.500
1272.000	718.085	80.008	19.995	103.140	20.099	2.480	0.488
1280.000	722.164	80.007	19.996	103.135	20.100	2.389	0.527
1288.000	726.246	80.008	19.996	103.143	20.102	2.251	0.498
1296.000	730.324	80.009	19.995	103.146	20.106	2.024	0.493
1304.000	734.359	80.006	19.994	103.140	20.104	2.132	0.489
1312.000	738.347	80.009	19.994	103.132	20.101	2.321	0.533
1320.000	742.354	80.009	19.995	103.136	20.102	2.278	0.480
1322.000	743.358	80.009	19.995	103.135	20.104	2.119	0.516