Folder: fsri_materials_database/01_Data/Pine_Lap_Siding_Paint/STA/N2/10K_min (part 2)

File: Pine_Lap_Siding_Paint_STA_N2_10KData_220317_R3.csv
##Temp./Â°C,Time/min,Mass loss(subtr.2)/mg,DSC(subtr.2)/(mW/mg),Sensit./(uV/mW)
49.635,10.00917,0.0215,0.002729218,1.07519
53.035,11.33873,0.02275893,0.08980432,1.07342
56.435,11.80768,0.02540215,0.12995,1.07165
59.835,12.21305,0.02449605,0.14874,1.06988
63.235,12.59486,0.02464786,0.16176,1.06811
66.635,12.9664,0.02591895,0.17092,1.06635
70.035,13.3324,0.0271479,0.17494,1.06459
73.435,13.69266,0.02594593,0.17981,1.06283
76.835,14.0504,0.02587427,0.18385,1.06107
80.235,14.40288,0.02593644,0.18947,1.05931
83.635,14.75087,0.0258897,0.19522,1.05755
87.035,15.09772,0.02732627,0.19727,1.0558
90.435,15.44,0.02552847,0.19927,1.05405
93.835,15.7788,0.02687017,0.20299,1.0523
97.235,16.11587,0.02687007,0.20486,1.05055
100.635,16.45135,0.02740914,0.20752,1.04881
104.035,16.7855,0.02686121,0.20961,1.04706
107.435,17.11909,0.02686552,0.21391,1.04532
110.835,17.45243,0.02681762,0.21561,1.04358
114.235,17.78455,0.02688861,0.2175,1.04184
117.635,18.11644,0.02611796,0.21933,1.0401
121.035,18.44762,0.02752952,0.22015,1.03837
124.435,18.77846,0.0272,0.22094,1.03663
127.835,19.10896,0.02851,0.22151,1.0349
131.235,19.43882,0.02753,0.2246,1.03317
134.635,19.76909,0.0285202,0.22417,1.03144
138.035,20.09843,0.02752772,0.22321,1.02971
141.435,20.4267,0.02621012,0.22687,1.02799
144.835,20.75375,0.02885638,0.23097,1.02626
148.235,21.07999,0.02884618,0.23064,1.02454
151.635,21.40674,0.02865286,0.23266,1.02282
155.035,21.7328,0.02743435,0.23574,1.02109
158.435,22.0597,0.02752994,0.23787,1.01937
161.835,22.386,0.02779093,0.23812,1.01765
165.235,22.71275,0.02752945,0.23908,1.01594
168.635,23.03911,0.02753338,0.24381,1.01422
172.035,23.36515,0.02687,0.24491,1.0125
175.435,23.68954,0.0268698,0.2479,1.01079
178.835,24.01381,0.02770861,0.24763,1.00907
182.235,24.33718,0.02753145,0.24955,1.00736
185.635,24.6619,0.02557073,0.25091,1.00564
189.035,24.98568,0.0268722,0.25291,1.00393
192.435,25.30921,0.02654,0.25628,1.00222
195.835,25.63164,0.02520249,0.25313,1.0005
199.235,25.95636,0.02429229,0.25311,0.99879
202.635,26.28026,0.02555027,0.25746,0.99708
206.035,26.6048,0.02411904,0.26223,0.99536
209.435,26.9283,0.02457,0.26453,0.99365
212.835,27.2524,0.02279463,0.26562,0.99194
216.235,27.5757,0.02128043,0.26753,0.99022
219.635,27.8994,0.02128,0.26757,0.98851
223.035,28.22362,0.02028829,0.26986,0.9868
226.435,28.5474,0.02029036,0.2731,0.98508
229.835,28.87166,0.01956876,0.27053,0.98337
233.235,29.19646,0.01633985,0.26799,0.98165
236.635,29.5206,0.01631628,0.27014,0.97993
240.035,29.8453,0.01502001,0.27414,0.97821
243.435,30.16958,0.01436,0.28009,0.97649
246.835,30.4941,0.01180877,0.28492,0.97477
250.235,30.8185,0.0104215,0.28884,0.97305
253.635,31.14357,0.01001951,0.29629,0.97132
257.035,31.46834,0.00648499,0.30456,0.9696
260.435,31.79338,0.00382869,0.30745,0.96787
263.835,32.1186,-9.08528e-05,0.30917,0.96614
267.235,32.44379,-0.003968317,0.31239,0.96441
270.635,32.76876,-0.005916377,0.31095,0.96268
274.035,33.09345,-0.01102525,0.30527,0.96094
277.435,33.4183,-0.01247763,0.30342,0.9592
280.835,33.74368,-0.01513624,0.29784,0.95746
284.235,34.06884,-0.02150001,0.29728,0.95572
287.635,34.39414,-0.02516785,0.29775,0.95397
291.035,34.71978,-0.02874122,0.29475,0.95222
294.435,35.04557,-0.03171278,0.29366,0.95047
297.835,35.37243,-0.03696361,0.29436,0.94872
301.235,35.69958,-0.04127594,0.29631,0.94696
304.635,36.02705,-0.04630584,0.2948,0.9452
308.035,36.35355,-0.0520921,0.29604,0.94343
311.435,36.68099,-0.06014519,0.30487,0.94166
314.835,37.00728,-0.06681337,0.30841,0.93989
318.235,37.33355,-0.07282652,0.30763,0.93812
321.635,37.6604,-0.08281485,0.3069,0.93634
325.035,37.9871,-0.09404724,0.31163,0.93455
328.435,38.31442,-0.10479,0.31215,0.93276
331.835,38.64198,-0.11929,0.30738,0.93097
335.235,38.96909,-0.13195,0.30613,0.92917
338.635,39.29691,-0.14743,0.3016,0.92737
342.035,39.6243,-0.16074,0.30081,0.92556
345.435,39.95208,-0.17464,0.29441,0.92375
348.835,40.28133,-0.18876,0.29405,0.92193
352.235,40.61083,-0.20146,0.28728,0.92011
355.635,40.94079,-0.21243,0.28577,0.91828
359.035,41.27028,-0.2267,0.28092,0.91645
362.435,41.60005,-0.23615,0.28201,0.91461
365.835,41.9294,-0.24691,0.28266,0.91277
369.235,42.25885,-0.25488,0.2758,0.91092
372.635,42.58867,-0.26187,0.27483,0.90906
376.035,42.91941,-0.27027,0.27364,0.9072
379.435,43.25013,-0.27759,0.27611,0.90533
382.835,43.5809,-0.28392,0.27731,0.90346
386.235,43.91195,-0.29145,0.28238,0.90157
389.635,44.2423,-0.2994,0.28928,0.89969
393.035,44.57343,-0.30734,0.29572,0.89779
396.435,44.90509,-0.31953,0.3054,0.89589
399.835,45.23741,-0.33032,0.3123,0.89398
403.235,45.57012,-0.34315,0.32039,0.89207
406.635,45.90337,-0.35624,0.31905,0.89015
410.035,46.23561,-0.37007,0.31754,0.88822
413.435,46.56824,-0.38164,0.30991,0.88628
416.835,46.90118,-0.39305,0.29703,0.88434
420.235,47.23268,-0.40298,0.28542,0.88238
423.635,47.56643,-0.40991,0.27809,0.88042
427.035,47.9005,-0.41944,0.26925,0.87846
430.435,48.23316,-0.42451,0.26489,0.87648
433.835,48.56568,-0.42893,0.26232,0.8745
437.235,48.89813,-0.43381,0.26001,0.87251
440.635,49.2297,-0.43908,0.26019,0.87051
444.035,49.564,-0.44434,0.25917,0.8685
447.435,49.89895,-0.44961,0.26236,0.86648
450.835,50.23415,-0.45363,0.26367,0.86446
454.235,50.56864,-0.45883,0.26613,0.86242
457.635,50.9032,-0.4622,0.26675,0.86038
461.035,51.23773,-0.4677,0.27047,0.85833
464.435,51.57314,-0.47316,0.27056,0.85627
467.835,51.90807,-0.47702,0.2731,0.8542
471.235,52.24237,-0.48229,0.27068,0.85212
474.635,52.57685,-0.48624,0.27106,0.85003
478.035,52.9116,-0.4915,0.26717,0.84793
481.435,53.24666,-0.49414,0.26374,0.84583
484.835,53.58255,-0.49809,0.26326,0.84371
488.235,53.9191,-0.49919,0.25872,0.84159
491.635,54.2555,-0.50488,0.2592,0.83945
495.035,54.5925,-0.50749,0.25864,0.83731
498.435,54.92964,-0.50884,0.26019,0.83515
501.835,55.2667,-0.51149,0.26596,0.83299
505.235,55.6029,-0.51343,0.26952,0.83082
508.635,55.93965,-0.51706,0.2729,0.82863
512.035,56.2769,-0.51972,0.27331,0.82644
515.435,56.61446,-0.52004,0.27472,0.82423
518.835,56.9517,-0.52365,0.2777,0.82202
522.235,57.28773,-0.5243,0.28815,0.8198
525.635,57.62438,-0.52627,0.28732,0.81756
529.035,57.9624,-0.52628,0.28412,0.81532
532.435,58.30044,-0.53154,0.28608,0.81306
535.835,58.6395,-0.53187,0.27073,0.8108
539.235,58.97899,-0.53418,0.25765,0.80852
542.635,59.31873,-0.53484,0.25458,0.80623
546.035,59.6579,-0.53747,0.23724,0.80394
549.435,59.99626,-0.5401,0.2371,0.80163
552.835,60.33334,-0.5401,0.2373,0.79931
556.235,60.6738,-0.54174,0.2345,0.79698
559.635,61.0133,-0.54273,0.23179,0.79464
563.035,61.35233,-0.54569,0.22854,0.79229
566.435,61.69197,-0.547,0.22479,0.78993
569.835,62.03116,-0.54948,0.22107,0.78756
573.235,62.37105,-0.55128,0.22157,0.78518
576.635,62.7109,-0.5526,0.21067,0.78279
580.035,63.0518,-0.55417,0.2076,0.78038
583.435,63.39235,-0.55725,0.20443,0.77797
586.835,63.73314,-0.55721,0.20261,0.77555
590.235,64.07409,-0.55984,0.19835,0.77311
593.635,64.4144,-0.56247,0.20043,0.77066
597.035,64.75477,-0.56379,0.20233,0.76821
600.435,65.09509,-0.56575,0.20631,0.76574
603.835,65.43746,-0.56587,0.20799,0.76326
607.235,65.77977,-0.56883,0.21838,0.76077
610.635,66.12109,-0.57212,0.22898,0.75827
614.035,66.46256,-0.57214,0.23752,0.75576
617.435,66.80447,-0.57608,0.24523,0.75324
620.835,67.14689,-0.57861,0.25517,0.75071
624.235,67.48977,-0.58134,0.26909,0.74816
627.635,67.83161,-0.58659,0.28807,0.74561
631.035,68.17331,-0.58962,0.30642,0.74304
634.435,68.51567,-0.5912,0.32241,0.74047
637.835,68.85835,-0.59798,0.34059,0.73788
641.235,69.20148,-0.60329,0.35228,0.73529
644.635,69.54437,-0.6074,0.37285,0.73268
648.035,69.88752,-0.61412,0.40308,0.73006
651.435,70.22926,-0.62104,0.42921,0.72744
654.835,70.57117,-0.6276,0.45908,0.7248
658.235,70.91401,-0.63585,0.49082,0.72215
661.635,71.2565,-0.64273,0.52493,0.71949
665.035,71.59916,-0.6523,0.56464,0.71682
668.435,71.94128,-0.66341,0.60632,0.71414
671.835,72.28356,-0.67385,0.65204,0.71146
675.235,72.62595,-0.68551,0.70029,0.70876
678.635,72.9687,-0.69855,0.75409,0.70605
682.035,73.31146,-0.71272,0.81466,0.70333
685.435,73.65585,-0.72776,0.87862,0.7006
688.835,73.99971,-0.74635,0.94844,0.69786
692.235,74.34406,-0.76298,1.02468,0.69511
695.635,74.68763,-0.7807,1.10518,0.69235
699.035,75.03132,-0.80531,1.19226,0.68959
702.435,75.37554,-0.82812,1.29148,0.68681
705.835,75.72107,-0.8534,1.39737,0.68402
709.235,76.06615,-0.88166,1.51123,0.68123
712.635,76.41156,-0.91091,1.62635,0.67842
716.035,76.756,-0.94181,1.7509,0.67561
719.435,77.09948,-0.9779,1.88188,0.67278
722.835,77.44255,-1.0156,2.01455,0.66995
726.235,77.78485,-1.05712,2.15142,0.66711
729.635,78.13002,-1.10122,2.28165,0.66426
733.035,78.4747,-1.14673,2.40803,0.6614
736.435,78.82053,-1.1959,2.53014,0.65854
739.835,79.16712,-1.24843,2.6273,0.65566
743.235,79.51285,-1.29921,2.69802,0.65278
746.635,79.8591,-1.35506,2.72629,0.64989
750.035,80.2042,-1.41059,2.65201,0.64699
753.435,80.54782,-1.46125,2.34277,0.64408
756.835,80.88941,-1.50185,1.3154,0.64116
760.235,81.2334,-1.50905,0.15415,0.63824
763.635,81.5791,-1.51169,0.04496043,0.63531
767.035,81.9258,-1.51226,0.04350737,0.63237
770.435,82.27105,-1.51458,0.03309875,0.62942
773.835,82.6155,-1.51561,0.02718217,0.62647
777.235,82.9597,-1.51597,0.02251963,0.62351
780.635,83.30513,-1.51729,0.0196539,0.62054
784.035,83.65075,-1.5163,0.01210824,0.61756
787.435,83.99706,-1.51893,0.00466543,0.61458
790.835,84.34272,-1.51894,0.001730679,0.61159
794.235,84.6889,-1.51893,-0.006129029,0.6086
797.635,85.03532,-1.52025,-0.01407711,0.6056
801.035,85.38099,-1.52235,-0.02176003,0.60259
804.435,85.72561,-1.52124,-0.02613918,0.59958
807.835,86.06985,-1.52256,-0.02812772,0.59656
811.235,86.4153,-1.52255,-0.03660254,0.59353
814.635,86.76043,-1.52517,-0.04419892,0.5905
818.035,87.1071,-1.52453,-0.05379868,0.58747
821.435,87.45419,-1.52453,-0.06222684,0.58443
824.835,87.8017,-1.52651,-0.06679961,0.58138
828.235,88.14949,-1.52652,-0.0700077,0.57833
831.635,88.49679,-1.52781,-0.07815847,0.57527
835.035,88.84214,-1.52618,-0.09123884,0.57221
838.435,89.18694,-1.52782,-0.09852764,0.56914
841.835,89.53308,-1.52914,-0.10713,0.56607
845.235,89.88025,-1.53046,-0.12141,0.563
846.335,89.9924,-1.53045,-0.12357,0.562