Folder: fsri_materials_database/01_Data/Pine_Lap_Siding_Paint/STA/N2/30K_min

Note: 01_Data/README.md
# Materials and Products Database
## 01_Data

Raw data generated from each apparatus are included here in plain-text format. The data is organized first by material, next by the short name of test apparatus used, and where applicable additional filtering by test settings.

### material.json

Each material directory contains a json file of the same name as the material. This file links the data stored in the repository as well as data and graphs produced by the accompanying scripts (__02_Scripts__) to the respective landing page for the material on the front-end website.

File: Pine_Lap_Siding_Paint_STA_N2_30KData_220315_R1.csv
##Temp./Â°C,Time/min,Mass loss(subtr.2)/mg,DSC(subtr.2)/(mW/mg),Sensit./(uV/mW)
48.601,10.00667,-0.01448,0.00207062,1.08906
51.601,10.8552,-0.01607771,0.11293,1.08653
54.601,11.08071,-0.01654477,0.1894,1.08402
57.601,11.25352,-0.01658483,0.24935,1.08152
60.601,11.40223,-0.01532527,0.29629,1.07904
63.601,11.53642,-0.01586508,0.33575,1.07657
66.601,11.66227,-0.01609864,0.36913,1.07412
69.601,11.78222,-0.01834414,0.39952,1.07169
72.601,11.8978,-0.01667288,0.42528,1.06927
75.601,12.01046,-0.01743525,0.4454,1.06687
78.601,12.1206,-0.01764993,0.46409,1.06448
81.601,12.22904,-0.01996012,0.48418,1.06211
84.601,12.3355,-0.01990804,0.4986,1.05975
87.601,12.4405,-0.02005721,0.51332,1.05741
90.601,12.5444,-0.01874544,0.52539,1.05508
93.601,12.64735,-0.01995884,0.53533,1.05277
96.601,12.74956,-0.02139286,0.54712,1.05047
99.601,12.85138,-0.02252852,0.55511,1.04819
102.601,12.95282,-0.02268396,0.56463,1.04593
105.601,13.05392,-0.02065652,0.56977,1.04367
108.601,13.15441,-0.02007999,0.57777,1.04144
111.601,13.25486,-0.021065,0.58383,1.03922
114.601,13.35508,-0.02171124,0.59035,1.03701
117.601,13.45526,-0.02171001,0.59829,1.03482
120.601,13.55478,-0.02266604,0.60213,1.03264
123.601,13.65417,-0.02137882,0.60865,1.03048
126.601,13.75262,-0.02079209,0.61374,1.02834
129.601,13.8509,-0.02269986,0.62004,1.0262
132.601,13.94899,-0.0233599,0.62693,1.02408
135.601,14.04654,-0.02336,0.63309,1.02198
138.601,14.14335,-0.02467656,0.63904,1.01989
141.601,14.24,-0.02468,0.64583,1.01781
144.601,14.33635,-0.02633011,0.65403,1.01575
147.601,14.4321,-0.02633,0.65839,1.0137
150.601,14.5275,-0.02709054,0.66601,1.01167
153.601,14.6228,-0.02763997,0.67314,1.00965
156.601,14.71776,-0.02697279,0.67739,1.00764
159.601,14.81254,-0.02665,0.68361,1.00565
162.601,14.9071,-0.02664983,0.6887,1.00367
165.601,15.00155,-0.02599,0.69688,1.0017
168.601,15.09554,-0.02598999,0.70254,0.99975
171.601,15.1896,-0.0250983,0.70677,0.99781
174.601,15.28328,-0.02764001,0.7128,0.99588
177.601,15.3766,-0.02828991,0.71936,0.99397
180.601,15.4698,-0.02829,0.72581,0.99206
183.601,15.56275,-0.02829,0.73306,0.99017
186.601,15.65528,-0.0282903,0.73936,0.98829
189.601,15.7475,-0.02895,0.74683,0.98643
192.601,15.8397,-0.02895,0.75364,0.98457
195.601,15.9315,-0.02914449,0.75871,0.98273
198.601,16.02336,-0.03026873,0.76281,0.9809
201.601,16.11514,-0.03247327,0.76803,0.97908
204.601,16.20663,-0.03291,0.77357,0.97728
207.601,16.2983,-0.03291,0.77939,0.97548
210.601,16.38972,-0.03291105,0.78231,0.97369
213.601,16.4809,-0.03290994,0.7875,0.97192
216.601,16.57216,-0.0345468,0.7924,0.97016
219.601,16.66348,-0.03456298,0.80206,0.9684
222.601,16.75456,-0.03618996,0.80726,0.96666
225.601,16.84553,-0.03684381,0.81148,0.96493
228.601,16.93659,-0.03817354,0.81838,0.96321
231.601,17.0274,-0.03817101,0.82501,0.96149
234.601,17.11814,-0.03948,0.83082,0.95979
237.601,17.2089,-0.03958282,0.83621,0.9581
240.601,17.29972,-0.03980994,0.8413,0.95641
243.601,17.39034,-0.04112999,0.84671,0.95474
246.601,17.48111,-0.04113031,0.85215,0.95307
249.601,17.57174,-0.04245,0.85776,0.95142
252.601,17.6623,-0.04245002,0.86524,0.94977
255.601,17.75277,-0.04507925,0.8701,0.94813
258.601,17.8433,-0.04375991,0.8822,0.9465
261.601,17.93382,-0.04507966,0.88942,0.94487
264.601,18.0241,-0.04771973,0.90088,0.94326
267.601,18.1146,-0.04904597,0.90824,0.94165
270.601,18.20494,-0.05002071,0.92181,0.94005
273.601,18.29549,-0.05133463,0.93011,0.93845
276.601,18.386,-0.05292672,0.94089,0.93687
279.601,18.47682,-0.05527877,0.95004,0.93529
282.601,18.5676,-0.0590854,0.95571,0.93372
285.601,18.6586,-0.0606542,0.95807,0.93215
288.601,18.74928,-0.06064429,0.95893,0.93059
291.601,18.8404,-0.06470988,0.95582,0.92903
294.601,18.93169,-0.06792281,0.94823,0.92749
297.601,19.02271,-0.07107366,0.94272,0.92594
300.601,19.1138,-0.07373343,0.93766,0.92441
303.601,19.2053,-0.07584873,0.93227,0.92287
306.601,19.29655,-0.07738337,0.92986,0.92135
309.601,19.38792,-0.07897601,0.92778,0.91983
312.601,19.47918,-0.08167413,0.92764,0.91831
315.601,19.57046,-0.08543399,0.92761,0.91679
318.601,19.6618,-0.08841677,0.93097,0.91529
321.601,19.75329,-0.08971987,0.93158,0.91378
324.601,19.84479,-0.09236112,0.93788,0.91228
327.601,19.9364,-0.09510333,0.94092,0.91078
330.601,20.02798,-0.09828623,0.94921,0.90929
333.601,20.11966,-0.10384,0.95437,0.9078
336.601,20.21155,-0.10622,0.96389,0.90631
339.601,20.30336,-0.11143,0.96743,0.90482
342.601,20.39524,-0.11653,0.97322,0.90334
345.601,20.4873,-0.12538,0.97173,0.90186
348.601,20.5791,-0.13268,0.97685,0.90038
351.601,20.67139,-0.13831,0.97654,0.8989
354.601,20.7634,-0.14621,0.97412,0.89743
357.601,20.85577,-0.15538,0.97024,0.89595
360.601,20.94789,-0.16393,0.96962,0.89448
363.601,21.04028,-0.17354,0.96589,0.89301
366.601,21.13265,-0.18135,0.95983,0.89154
369.601,21.2252,-0.18837,0.95624,0.89007
372.601,21.31767,-0.19667,0.95505,0.8886
375.601,21.4103,-0.20362,0.94723,0.88713
378.601,21.50303,-0.20848,0.94381,0.88566
381.601,21.5957,-0.21486,0.9362,0.88419
384.601,21.68852,-0.21989,0.93388,0.88272
387.601,21.78138,-0.22459,0.93642,0.88125
390.601,21.87446,-0.2297,0.93765,0.87978
393.601,21.96741,-0.23435,0.94129,0.87831
396.601,22.0605,-0.24011,0.95104,0.87684
399.601,22.1538,-0.24694,0.95935,0.87536
402.601,22.24711,-0.252,0.97269,0.87389
405.601,22.3403,-0.25967,0.98738,0.87241
408.601,22.43391,-0.26707,1.00648,0.87093
411.601,22.5274,-0.27661,1.02712,0.86945
414.601,22.62092,-0.28424,1.0459,0.86796
417.601,22.7146,-0.29359,1.06928,0.86647
420.601,22.80827,-0.30471,1.08831,0.86498
423.601,22.90225,-0.31764,1.10639,0.86349
426.601,22.99634,-0.32967,1.11978,0.86199
429.601,23.0905,-0.34092,1.11774,0.86049
432.601,23.18453,-0.35411,1.11027,0.85899
435.601,23.27887,-0.37047,1.09154,0.85748
438.601,23.37332,-0.38182,1.06168,0.85597
441.601,23.46774,-0.39224,1.03303,0.85446
444.601,23.5622,-0.39942,0.99921,0.85294
447.601,23.65719,-0.40803,0.9718,0.85141
450.601,23.752,-0.41463,0.95049,0.84988
453.601,23.84678,-0.41847,0.9354,0.84835
456.601,23.94165,-0.42475,0.92243,0.84681
459.601,24.0369,-0.4273,0.91426,0.84527
462.601,24.13198,-0.43318,0.91448,0.84372
465.601,24.22748,-0.43884,0.91421,0.84216
468.601,24.3228,-0.44235,0.91683,0.8406
471.601,24.41807,-0.44529,0.92067,0.83904
474.601,24.51361,-0.45197,0.92392,0.83746
477.601,24.6091,-0.45769,0.92626,0.83588
480.601,24.70443,-0.4621,0.93065,0.8343
483.601,24.80019,-0.46518,0.9299,0.83271
486.601,24.89586,-0.47004,0.927,0.83111
489.601,24.99152,-0.47477,0.92644,0.8295
492.601,25.08707,-0.47944,0.92082,0.82789
495.601,25.183,-0.48381,0.91752,0.82627
498.601,25.27881,-0.48824,0.91183,0.82465
501.601,25.3747,-0.49084,0.8999,0.82301
504.601,25.47064,-0.49481,0.89645,0.82137
507.601,25.56638,-0.49673,0.89122,0.81972
510.601,25.66282,-0.50172,0.88839,0.81806
513.601,25.75897,-0.5048,0.88562,0.8164
516.601,25.85509,-0.50746,0.88518,0.81473
519.601,25.95137,-0.5089,0.88667,0.81304
522.601,26.0482,-0.51136,0.89079,0.81135
525.601,26.14474,-0.51262,0.89867,0.80965
528.601,26.24125,-0.51531,0.90466,0.80795
531.601,26.338,-0.51662,0.90991,0.80623
534.601,26.43468,-0.51729,0.92023,0.80451
537.601,26.5314,-0.51854,0.92807,0.80277
540.601,26.6282,-0.52201,0.93216,0.80103
543.601,26.7252,-0.52353,0.94128,0.79927
546.601,26.82204,-0.52485,0.93959,0.79751
549.601,26.9192,-0.52617,0.94923,0.79574
552.601,27.016,-0.52891,0.96639,0.79396
555.601,27.1131,-0.53022,0.97452,0.79217
558.601,27.21015,-0.53154,0.98429,0.79037
561.601,27.30722,-0.5332,0.98979,0.78856
564.601,27.40455,-0.53516,0.98579,0.78674
567.601,27.50195,-0.53844,0.97067,0.78491
570.601,27.59957,-0.53976,0.95098,0.78306
573.601,27.69715,-0.54108,0.93656,0.78121
576.601,27.79485,-0.54239,0.91834,0.77935
579.601,27.8926,-0.54371,0.90043,0.77748
582.601,27.99056,-0.54516,0.8771,0.7756
585.601,28.0887,-0.54634,0.85437,0.7737
588.601,28.1866,-0.54766,0.83273,0.7718
591.601,28.2846,-0.54764,0.81281,0.76988
594.601,28.38275,-0.55004,0.7967,0.76796
597.601,28.48113,-0.55128,0.77542,0.76602
600.601,28.57933,-0.55259,0.76001,0.76407
603.601,28.6776,-0.55424,0.75178,0.76211
606.601,28.7761,-0.55556,0.7366,0.76014
609.601,28.8746,-0.55687,0.72908,0.75816
612.601,28.97314,-0.55556,0.73007,0.75617
615.601,29.07175,-0.55819,0.72458,0.75417
618.601,29.1703,-0.5582,0.72827,0.75215
621.601,29.26898,-0.56212,0.73023,0.75013
624.601,29.3677,-0.56323,0.74151,0.74809
627.601,29.46653,-0.56544,0.75262,0.74604
630.601,29.56545,-0.56675,0.76316,0.74398
633.601,29.66433,-0.56872,0.77707,0.74191
636.601,29.76343,-0.57135,0.79846,0.73982
639.601,29.86252,-0.57398,0.81612,0.73773
642.601,29.96138,-0.57529,0.84271,0.73562
645.601,30.06073,-0.57806,0.86612,0.7335
648.601,30.1598,-0.58142,0.89251,0.73137
651.601,30.25934,-0.58341,0.91965,0.72923
654.601,30.35844,-0.58614,0.94739,0.72708
657.601,30.45795,-0.58874,0.98482,0.72491
660.601,30.5573,-0.59272,1.01944,0.72274
663.601,30.6569,-0.59618,1.05559,0.72055
666.601,30.7564,-0.60058,1.093,0.71835
669.601,30.8559,-0.60488,1.1357,0.71614
672.601,30.9556,-0.60885,1.18076,0.71391
675.601,31.05521,-0.61378,1.23182,0.71168
678.601,31.1549,-0.61787,1.28458,0.70943
681.601,31.2545,-0.62424,1.3416,0.70717
684.601,31.3543,-0.6305,1.39593,0.7049
687.601,31.45409,-0.63616,1.46055,0.70262
690.601,31.5539,-0.64428,1.5217,0.70033
693.601,31.65365,-0.64989,1.59479,0.69802
696.601,31.7537,-0.65828,1.67167,0.69571
699.601,31.85363,-0.66617,1.75711,0.69338
702.601,31.9536,-0.67392,1.84425,0.69104
705.601,32.05355,-0.68525,1.94169,0.68869
708.601,32.15352,-0.69325,2.04259,0.68633
711.601,32.2536,-0.70411,2.15352,0.68395
714.601,32.35385,-0.71662,2.27337,0.68157
717.601,32.4538,-0.72803,2.40506,0.67917
720.601,32.554,-0.74039,2.54232,0.67676
723.601,32.65412,-0.75489,2.68759,0.67434
726.601,32.75443,-0.76854,2.84517,0.67191
729.601,32.8548,-0.78541,3.00938,0.66947
732.601,32.95528,-0.80295,3.18293,0.66702
735.601,33.0556,-0.81969,3.36596,0.66455
738.601,33.1563,-0.83969,3.55564,0.66208
741.601,33.25692,-0.86084,3.74919,0.65959
743.801,33.33075,-0.87607,3.89771,0.65776

File: Pine_Lap_Siding_Paint_STA_N2_30KData_220317_R2.csv
##Temp./Â°C,Time/min,Mass loss(subtr.2)/mg,DSC(subtr.2)/(mW/mg),Sensit./(uV/mW)
48.876,10.01,0.00428,0.0005229193,1.08882
52.276,10.89339,0.00506079,0.11749,1.08596
55.676,11.13309,0.005286185,0.19679,1.08312
59.076,11.31669,0.003169383,0.2555,1.0803
62.476,11.47775,0.004783759,0.30544,1.0775
65.876,11.6236,0.003829799,0.34687,1.07471
69.276,11.76088,0.002619174,0.37997,1.07195
72.676,11.89228,0.002895075,0.40774,1.06921
76.076,12.01982,0.00351515,0.4333,1.06649
79.476,12.1439,0.00161814,0.45321,1.06378
82.876,12.2662,0.00204756,0.47103,1.0611
86.276,12.38626,0.004313809,0.48715,1.05844
89.676,12.50469,0.002680867,0.49866,1.0558
93.076,12.62173,0.004310114,0.51014,1.05317
96.476,12.7379,-0.00151682,0.51966,1.05057
99.876,12.85327,-6.305592e-05,0.52806,1.04798
103.276,12.96809,-0.0002080383,0.53158,1.04542
106.676,13.08244,0.000933623,0.53985,1.04287
110.076,13.19684,-0.0002245345,0.54553,1.04034
113.476,13.3107,-0.00155609,0.55141,1.03784
116.876,13.42401,-0.00152604,0.55722,1.03535
120.276,13.5368,-0.00153182,0.56548,1.03288
123.676,13.6494,-0.00285,0.56672,1.03043
127.076,13.7612,-0.001539719,0.573,1.028
130.476,13.87235,-0.001552119,0.57698,1.02558
133.876,13.9832,-0.001533205,0.58141,1.02319
137.276,14.093,-0.00167386,0.58665,1.02081
140.676,14.2028,-0.002848945,0.59083,1.01845
144.076,14.3126,-0.00149313,0.59652,1.01611
147.476,14.42126,-0.001539999,0.60119,1.01379
150.876,14.5297,-0.00285856,0.60394,1.01148
154.276,14.6375,-0.002872257,0.61057,1.0092
157.676,14.74533,-0.003205547,0.61555,1.00693
161.076,14.8526,-0.00317986,0.61987,1.00467
164.476,14.96001,-0.004499999,0.62439,1.00244
167.876,15.06688,-0.00482931,0.62888,1.00022
171.276,15.17345,-0.00483,0.63498,0.99802
174.676,15.2798,-0.00483,0.6396,0.99583
178.076,15.38592,-0.004812987,0.64398,0.99366
181.476,15.4916,-0.00581,0.64977,0.99151
184.876,15.5968,-0.0054255,0.65416,0.98937
188.276,15.70164,-0.00569024,0.65985,0.98725
191.676,15.8063,-0.00700961,0.6673,0.98514
195.076,15.91075,-0.00702378,0.67152,0.98305
198.476,16.01504,-0.00800999,0.67555,0.98098
201.876,16.11929,-0.00801,0.68005,0.97892
205.276,16.22319,-0.00801,0.68557,0.97687
208.676,16.3271,-0.008036658,0.69006,0.97484
212.076,16.43076,-0.008990001,0.69522,0.97282
215.476,16.53451,-0.00899,0.69865,0.97082
218.876,16.63808,-0.008987993,0.70404,0.96883
222.276,16.74169,-0.009364653,0.70705,0.96685
225.676,16.84506,-0.01096827,0.71459,0.96489
229.076,16.94843,-0.01097348,0.71532,0.96293
232.476,17.05161,-0.01031,0.72129,0.961
235.876,17.1547,-0.01170727,0.72592,0.95907
239.276,17.25769,-0.01392421,0.73217,0.95716
242.676,17.36081,-0.01524997,0.7344,0.95525
246.076,17.4637,-0.01558018,0.73935,0.95336
249.476,17.56658,-0.01552841,0.74724,0.95149
252.876,17.6694,-0.01821506,0.75615,0.94962
256.276,17.7722,-0.01953578,0.7608,0.94776
259.676,17.87497,-0.01953,0.76844,0.94591
263.076,17.97759,-0.01999109,0.77766,0.94408
266.476,18.08041,-0.0225165,0.78305,0.94225
269.876,18.1831,-0.02446065,0.7946,0.94043
273.276,18.2857,-0.02576317,0.80588,0.93863
276.676,18.38832,-0.02729977,0.81696,0.93683
280.076,18.491,-0.02841186,0.82561,0.93504
283.476,18.5937,-0.03074295,0.82728,0.93326
286.876,18.69651,-0.03365265,0.83107,0.93149
290.276,18.7994,-0.03428252,0.8308,0.92972
293.676,18.90211,-0.03632494,0.8244,0.92796
297.076,19.00497,-0.03889185,0.82088,0.92621
300.476,19.10799,-0.04158093,0.81614,0.92447
303.876,19.21098,-0.04551914,0.80997,0.92273
307.276,19.3139,-0.04690332,0.8082,0.921
310.676,19.41699,-0.05075554,0.80608,0.91928
314.076,19.52006,-0.05210339,0.80707,0.91756
317.476,19.62325,-0.05500882,0.80887,0.91585
320.876,19.72658,-0.05668883,0.81015,0.91414
324.276,19.82985,-0.05999146,0.81553,0.91244
327.676,19.9335,-0.06394708,0.81749,0.91074
331.076,20.03699,-0.06840238,0.82116,0.90905
334.476,20.14055,-0.07282782,0.82634,0.90736
337.876,20.2444,-0.07607215,0.82957,0.90568
341.276,20.3481,-0.0817134,0.83684,0.90399
344.676,20.4521,-0.08815365,0.84063,0.90232
348.076,20.55611,-0.09347276,0.84032,0.90064
351.476,20.66018,-0.10102,0.84088,0.89896
354.876,20.76437,-0.11009,0.83637,0.89729
358.276,20.86871,-0.11923,0.83383,0.89562
361.676,20.973,-0.1294,0.82983,0.89396
365.076,21.07747,-0.13615,0.82187,0.89229
368.476,21.18222,-0.14404,0.81813,0.89062
371.876,21.28689,-0.15069,0.81214,0.88896
375.276,21.39163,-0.15698,0.80678,0.88729
378.676,21.49653,-0.1636,0.8025,0.88563
382.076,21.60138,-0.17088,0.80091,0.88396
385.476,21.70652,-0.1772,0.79849,0.8823
388.876,21.81188,-0.18215,0.79996,0.88063
392.276,21.91723,-0.18876,0.80495,0.87896
395.676,22.02269,-0.19556,0.80986,0.87729
399.076,22.1284,-0.20149,0.81959,0.87562
402.476,22.23411,-0.20857,0.83317,0.87395
405.876,22.33986,-0.21673,0.85002,0.87227
409.276,22.4459,-0.2243,0.87497,0.87059
412.676,22.55194,-0.23502,0.89766,0.86891
416.076,22.6579,-0.24739,0.9227,0.86723
419.476,22.7643,-0.25705,0.95169,0.86554
422.876,22.87073,-0.27172,0.97292,0.86385
426.276,22.97723,-0.28622,0.99264,0.86215
429.676,23.08407,-0.30154,0.99505,0.86045
433.076,23.19085,-0.31617,0.98329,0.85875
436.476,23.2978,-0.33002,0.95503,0.85704
439.876,23.4045,-0.34275,0.91691,0.85533
443.276,23.51172,-0.35427,0.87281,0.85361
446.676,23.61889,-0.36448,0.83582,0.85188
450.076,23.72622,-0.37176,0.80428,0.85015
453.476,23.83376,-0.37715,0.77902,0.84841
456.876,23.94128,-0.38268,0.76349,0.84667
460.276,24.04908,-0.38722,0.75536,0.84492
463.676,24.1569,-0.39337,0.75116,0.84316
467.076,24.2647,-0.39804,0.75461,0.8414
470.476,24.37278,-0.40353,0.75828,0.83962
473.876,24.48077,-0.40996,0.76172,0.83784
477.276,24.5892,-0.41464,0.76851,0.83606
480.676,24.69736,-0.41853,0.77204,0.83426
484.076,24.8057,-0.42501,0.77425,0.83246
487.476,24.91429,-0.43064,0.77327,0.83064
490.876,25.0226,-0.43465,0.77149,0.82882
494.276,25.13113,-0.43823,0.7651,0.82699
497.676,25.23966,-0.44224,0.75948,0.82515
501.076,25.34825,-0.44778,0.75007,0.8233
504.476,25.4571,-0.45202,0.74071,0.82144
507.876,25.5659,-0.45495,0.73152,0.81957
511.276,25.6749,-0.45752,0.72412,0.81769
514.676,25.7836,-0.46006,0.72185,0.8158
518.076,25.89304,-0.46272,0.7202,0.8139
521.476,26.0023,-0.46467,0.72618,0.81199
524.876,26.11161,-0.46858,0.72563,0.81007
528.276,26.2211,-0.47077,0.7349,0.80813
531.676,26.33073,-0.47389,0.74533,0.80619
535.076,26.4405,-0.47518,0.75796,0.80423
538.476,26.5502,-0.47648,0.76911,0.80226
541.876,26.6603,-0.47924,0.78267,0.80028
545.276,26.7705,-0.47921,0.79641,0.79829
548.676,26.88058,-0.48186,0.80704,0.79629
552.076,26.991,-0.48423,0.80583,0.79427
555.476,27.1013,-0.48589,0.80929,0.79224
558.876,27.2117,-0.48892,0.82091,0.7902
562.276,27.3221,-0.49239,0.82439,0.78815
565.676,27.4327,-0.49238,0.82669,0.78608
569.076,27.5434,-0.49632,0.82728,0.784
572.476,27.6544,-0.49765,0.82435,0.78191
575.876,27.7653,-0.49827,0.79782,0.7798
579.276,27.87642,-0.50111,0.76864,0.77768
582.676,27.98745,-0.5017,0.74538,0.77555
586.076,28.0988,-0.50171,0.7243,0.7734
589.476,28.2101,-0.50786,0.69762,0.77124
592.876,28.32167,-0.50785,0.66739,0.76907
596.276,28.43327,-0.50916,0.63964,0.76688
599.676,28.54492,-0.51049,0.61511,0.76467
603.076,28.65625,-0.5119,0.59312,0.76246
606.476,28.7677,-0.51548,0.57585,0.76023
609.876,28.87971,-0.51412,0.56082,0.75798
613.276,28.9917,-0.51539,0.55415,0.75572
616.676,29.1035,-0.51673,0.54783,0.75345
620.076,29.21537,-0.51856,0.54738,0.75116
623.476,29.32791,-0.51937,0.54678,0.74885
626.876,29.43995,-0.52068,0.55393,0.74654
630.276,29.55205,-0.52346,0.56603,0.7442
633.676,29.66426,-0.52596,0.57782,0.74186
637.076,29.7764,-0.52594,0.59597,0.73949
640.476,29.88867,-0.52856,0.61834,0.73712
643.876,30.00086,-0.53123,0.64123,0.73472
647.276,30.1132,-0.53379,0.66737,0.73232
650.676,30.2255,-0.5354,0.6951,0.72989
654.076,30.3378,-0.53948,0.72862,0.72746
657.476,30.4502,-0.54207,0.76046,0.725
660.876,30.56257,-0.54471,0.79431,0.72254
664.276,30.67486,-0.54912,0.83118,0.72006
667.676,30.7873,-0.55344,0.87323,0.71756
671.076,30.89994,-0.5583,0.91301,0.71505
674.476,31.0128,-0.56454,0.95928,0.71252
677.876,31.12557,-0.56682,1.00574,0.70998
681.276,31.23852,-0.57276,1.05553,0.70742
684.676,31.3517,-0.57764,1.11415,0.70485
688.076,31.4645,-0.58377,1.1717,0.70226
691.476,31.5775,-0.58888,1.23298,0.69966
694.876,31.69071,-0.59553,1.30761,0.69704
698.276,31.8039,-0.60413,1.38512,0.69441
701.676,31.9174,-0.61188,1.46996,0.69176
705.076,32.03089,-0.62234,1.55945,0.6891
708.476,32.14432,-0.63042,1.66391,0.68642
711.876,32.25775,-0.639,1.77548,0.68373
715.276,32.37145,-0.65168,1.89862,0.68103
718.676,32.485,-0.66085,2.02853,0.67831
722.076,32.59858,-0.67489,2.17689,0.67557
725.476,32.71202,-0.68987,2.32489,0.67282
728.876,32.82565,-0.70162,2.49161,0.67006
732.276,32.93949,-0.71826,2.66362,0.66728
735.676,33.05314,-0.73698,2.84493,0.66449
739.076,33.16703,-0.75384,3.03661,0.66168
742.476,33.28076,-0.77486,3.24295,0.65886
745.876,33.39461,-0.79677,3.46038,0.65603
749.276,33.50865,-0.82219,3.70035,0.65318
752.676,33.62259,-0.84616,3.94929,0.65032
756.076,33.73665,-0.87332,4.21409,0.64745
759.476,33.8514,-0.90242,4.49095,0.64456
762.876,33.96543,-0.9342,4.77755,0.64166
766.276,34.0798,-0.9689,5.08694,0.63874
769.676,34.1942,-1.00598,5.39737,0.63581
773.076,34.3082,-1.04326,5.71054,0.63287
776.476,34.42326,-1.0848,6.02791,0.62992
779.876,34.53787,-1.12713,6.32828,0.62695
783.276,34.6526,-1.17503,6.60862,0.62397
786.676,34.76753,-1.22594,6.84678,0.62098
790.076,34.88219,-1.27395,6.9988,0.61798
793.476,34.9968,-1.32211,6.963,0.61496
796.876,35.11139,-1.37376,6.57379,0.61193
800.276,35.22545,-1.4192,5.3821,0.60889
803.676,35.3386,-1.44819,2.18695,0.60584
807.076,35.45139,-1.45477,0.59947,0.60277
810.476,35.565,-1.45546,0.20087,0.5997
813.876,35.67921,-1.45476,0.08088859,0.59661
817.276,35.7939,-1.45479,0.03463136,0.59352
820.676,35.90865,-1.45663,0.01489894,0.59041
824.076,36.02325,-1.45739,0.00109629,0.58729
827.476,36.1379,-1.4574,-0.0108638,0.58416
830.876,36.25251,-1.45873,-0.01709099,0.58102
834.276,36.36755,-1.46001,-0.02156365,0.57787
837.676,36.48233,-1.46003,-0.02827416,0.57471
841.076,36.5971,-1.46123,-0.04188119,0.57154
843.076,36.66506,-1.46036,-0.04628056,0.56967