Folder: fsri_materials_database/01_Data/Pine_Lap_Siding_Paint/STA/N2/30K_min (part 2)

File: Pine_Lap_Siding_Paint_STA_N2_30KData_220317_R3.csv
##Temp./Â°C,Time/min,Mass loss(subtr.2)/mg,DSC(subtr.2)/(mW/mg),Sensit./(uV/mW)
48.88,10.01,0.01974,-0.000176058,1.08882
52.18,10.88466,0.02183378,0.12095,1.08604
55.48,11.1209,0.02049888,0.20171,1.08328
58.78,11.30263,0.02151722,0.26693,1.08054
62.08,11.45938,0.02153543,0.31878,1.07782
65.38,11.60251,0.02172996,0.36513,1.07512
68.68,11.73673,0.02370413,0.39883,1.07243
71.98,11.86487,0.02429178,0.43179,1.06977
75.28,11.98916,0.02424713,0.4605,1.06712
78.58,12.11023,0.02293677,0.48605,1.06449
81.88,12.22893,0.01932266,0.50544,1.06189
85.18,12.34499,0.02347262,0.52382,1.05929
88.48,12.46004,0.022701,0.53876,1.05672
91.78,12.5737,0.02279664,0.55302,1.05417
95.08,12.68639,0.02356455,0.56382,1.05163
98.38,12.7986,0.02358984,0.57604,1.04912
101.68,12.91065,0.02462143,0.58285,1.04662
104.98,13.0218,0.02337263,0.58958,1.04414
108.28,13.1325,0.02245622,0.59693,1.04168
111.58,13.24289,0.02229709,0.60472,1.03923
114.88,13.3532,0.02225994,0.61199,1.03681
118.18,13.4632,0.02093642,0.6161,1.0344
121.48,13.5725,0.02206339,0.6235,1.03201
124.78,13.68135,0.02095,0.63276,1.02964
128.08,13.7899,0.02192994,0.63743,1.02728
131.38,13.8977,0.02223506,0.64418,1.02494
134.68,14.0053,0.02224033,0.64995,1.02262
137.98,14.11176,0.02028767,0.65784,1.02032
141.28,14.21819,0.02161021,0.66704,1.01804
144.58,14.32402,0.02108928,0.67212,1.01577
147.88,14.42944,0.02161,0.6778,1.01351
151.18,14.5347,0.02161,0.68569,1.01128
154.48,14.63926,0.02161,0.69433,1.00906
157.78,14.74385,0.02297249,0.70049,1.00686
161.08,14.84791,0.02243287,0.70638,1.00467
164.38,14.9518,0.02159958,0.71339,1.0025
167.68,15.05585,0.02060996,0.72174,1.00035
170.98,15.15934,0.02061713,0.72517,0.99821
174.28,15.26251,0.02062,0.73441,0.99609
177.58,15.36545,0.02062,0.74221,0.99398
180.88,15.4678,0.02034388,0.751,0.99189
184.18,15.5701,0.01831001,0.75955,0.98981
187.48,15.67195,0.01963044,0.76797,0.98775
190.78,15.77341,0.01963568,0.77403,0.9857
194.08,15.87478,0.01822231,0.7829,0.98367
197.38,15.97592,0.01962815,0.79054,0.98165
200.68,16.07692,0.01714031,0.79769,0.97964
203.98,16.17774,0.01708559,0.80611,0.97765
207.28,16.27867,0.0196294,0.81226,0.97567
210.58,16.37931,0.01766002,0.81764,0.97371
213.88,16.47982,0.017,0.82534,0.97176
217.18,16.5805,0.017,0.83136,0.96982
220.48,16.6809,0.01568083,0.83978,0.96789
223.78,16.78095,0.01569223,0.84562,0.96598
227.08,16.88141,0.01501964,0.85217,0.96408
230.38,16.98141,0.01435336,0.85867,0.96219
233.68,17.08155,0.01305203,0.86562,0.96031
236.98,17.18161,0.01173021,0.87291,0.95845
240.28,17.2816,0.01140867,0.88051,0.95659
243.58,17.38148,0.01141192,0.8865,0.95475
246.88,17.48121,0.01009001,0.89123,0.95292
250.18,17.58087,0.01009,0.8981,0.9511
253.48,17.68061,0.009379195,0.90512,0.94929
256.78,17.7804,0.007465665,0.91609,0.94749
260.08,17.87983,0.006150472,0.9221,0.9457
263.38,17.97954,0.006111015,0.9316,0.94391
266.68,18.07913,0.003509048,0.93727,0.94214
269.98,18.1787,0.0009660767,0.94824,0.94038
273.28,18.27836,0.000870333,0.9537,0.93862
276.58,18.37804,-0.003060276,0.95807,0.93688
279.88,18.47788,-0.004431484,0.96037,0.93514
283.18,18.57761,-0.005899862,0.95496,0.93341
286.48,18.67756,-0.007333913,0.94919,0.93169
289.78,18.77729,-0.01004237,0.94268,0.92998
293.08,18.87734,-0.01271539,0.92983,0.92827
296.38,18.97737,-0.01525945,0.92146,0.92657
299.68,19.0774,-0.01799562,0.91607,0.92488
302.98,19.1773,-0.02061172,0.90981,0.92319
306.28,19.27737,-0.02431051,0.90139,0.92151
309.58,19.37743,-0.02798352,0.89808,0.91984
312.88,19.4775,-0.03218998,0.89708,0.91817
316.18,19.57752,-0.03615736,0.89615,0.9165
319.48,19.6773,-0.03904084,0.89395,0.91484
322.78,19.77771,-0.04277046,0.89571,0.91319
326.08,19.8783,-0.047804,0.89732,0.91154
329.38,19.97896,-0.05115673,0.90173,0.9099
332.68,20.07938,-0.05584599,0.90847,0.90825
335.98,20.17952,-0.05961859,0.91182,0.90662
339.28,20.28053,-0.06785043,0.92038,0.90498
342.58,20.38103,-0.07445419,0.92529,0.90335
345.88,20.4819,-0.08481732,0.92644,0.90172
349.18,20.58279,-0.09226479,0.92809,0.90009
352.48,20.6837,-0.10032,0.9289,0.89847
355.78,20.78511,-0.11191,0.92266,0.89685
359.08,20.8865,-0.12363,0.92201,0.89523
362.38,20.98771,-0.13482,0.9182,0.89361
365.68,21.0894,-0.1491,0.91577,0.89199
368.98,21.1909,-0.15921,0.91152,0.89038
372.28,21.29263,-0.16731,0.90956,0.88876
375.58,21.3945,-0.17828,0.90387,0.88714
378.88,21.49629,-0.18692,0.90236,0.88553
382.18,21.5983,-0.19527,0.89854,0.88391
385.48,21.70055,-0.20284,0.88882,0.88229
388.78,21.80255,-0.21068,0.88359,0.88068
392.08,21.90505,-0.21694,0.88322,0.87906
395.38,22.00761,-0.2222,0.8851,0.87744
398.68,22.1101,-0.22815,0.89168,0.87582
401.98,22.21291,-0.23646,0.9076,0.87419
405.28,22.31587,-0.24344,0.92389,0.87257
408.58,22.41868,-0.25147,0.94357,0.87094
411.88,22.52175,-0.26111,0.96702,0.86931
415.18,22.62496,-0.26937,0.99206,0.86767
418.48,22.7284,-0.28117,1.01785,0.86604
421.78,22.83175,-0.29303,1.04219,0.8644
425.08,22.9354,-0.30595,1.05764,0.86275
428.38,23.039,-0.32211,1.067,0.8611
431.68,23.14272,-0.33489,1.06263,0.85945
434.98,23.2468,-0.34984,1.0445,0.85779
438.28,23.35053,-0.36047,1.01197,0.85613
441.58,23.4545,-0.37173,0.97544,0.85447
444.88,23.5588,-0.38329,0.93944,0.85279
448.18,23.66285,-0.38876,0.90571,0.85112
451.48,23.7669,-0.39683,0.8835,0.84943
454.78,23.8716,-0.39976,0.86909,0.84775
458.08,23.97616,-0.40639,0.85642,0.84605
461.38,24.08079,-0.41126,0.8528,0.84435
464.68,24.18543,-0.41568,0.85148,0.84264
467.98,24.2902,-0.42165,0.84983,0.84093
471.28,24.39509,-0.4262,0.85443,0.8392
474.58,24.49983,-0.42842,0.8609,0.83747
477.88,24.6047,-0.43434,0.86368,0.83574
481.18,24.7099,-0.43863,0.86998,0.83399
484.48,24.81512,-0.44478,0.8718,0.83224
487.78,24.92047,-0.44937,0.8753,0.83048
491.08,25.02569,-0.45328,0.87155,0.82871
494.38,25.13101,-0.4567,0.86572,0.82693
497.68,25.2368,-0.46251,0.866,0.82515
500.98,25.34235,-0.46635,0.85804,0.82335
504.28,25.448,-0.47026,0.84779,0.82155
507.58,25.55369,-0.47155,0.84513,0.81973
510.88,25.65961,-0.47298,0.8381,0.81791
514.18,25.76551,-0.47646,0.83592,0.81608
517.48,25.87161,-0.47975,0.83644,0.81423
520.78,25.97791,-0.48277,0.8373,0.81238
524.08,26.08427,-0.48572,0.84334,0.81052
527.38,26.19071,-0.487,0.84792,0.80864
530.68,26.2973,-0.48837,0.85436,0.80676
533.98,26.40363,-0.49097,0.86374,0.80486
537.28,26.51003,-0.49359,0.869,0.80296
540.58,26.617,-0.49467,0.87418,0.80104
543.88,26.72379,-0.49619,0.87565,0.79911
547.18,26.8312,-0.49754,0.87837,0.79717
550.48,26.9385,-0.5003,0.87879,0.79522
553.78,27.04562,-0.50285,0.87348,0.79326
557.08,27.1526,-0.50664,0.88928,0.79128
560.38,27.25985,-0.50796,0.89542,0.7893
563.68,27.3673,-0.5073,0.89941,0.7873
566.98,27.4747,-0.50795,0.90066,0.78529
570.28,27.5822,-0.50981,0.89794,0.78326
573.58,27.68992,-0.5106,0.88215,0.78123
576.88,27.79774,-0.51194,0.85236,0.77918
580.18,27.90581,-0.51455,0.83672,0.77712
583.48,28.0138,-0.51584,0.81525,0.77504
586.78,28.122,-0.51717,0.79633,0.77296
590.08,28.2302,-0.51981,0.77234,0.77086
593.38,28.3384,-0.51975,0.74134,0.76874
596.68,28.4471,-0.52114,0.71599,0.76662
599.98,28.5554,-0.52381,0.69422,0.76448
603.28,28.66385,-0.52375,0.67144,0.76232
606.58,28.7725,-0.52606,0.65381,0.76016
609.88,28.8813,-0.52606,0.63643,0.75798
613.18,28.99,-0.52738,0.63003,0.75579
616.48,29.09846,-0.52731,0.62297,0.75358
619.78,29.20764,-0.53001,0.62056,0.75136
623.08,29.31656,-0.53368,0.62441,0.74912
626.38,29.42557,-0.53637,0.63232,0.74688
629.68,29.5346,-0.53506,0.64688,0.74461
632.98,29.64353,-0.53769,0.66439,0.74234
636.28,29.75272,-0.539,0.68914,0.74005
639.58,29.8619,-0.54081,0.71217,0.73774
642.88,29.971,-0.54163,0.73939,0.73543
646.18,30.0799,-0.54438,0.76432,0.73309
649.48,30.1891,-0.54766,0.79345,0.73075
652.78,30.298,-0.55038,0.81992,0.72839
656.08,30.407,-0.55356,0.85412,0.72601
659.38,30.51615,-0.55807,0.89511,0.72363
662.68,30.62513,-0.5617,0.93213,0.72122
665.98,30.73423,-0.56384,0.97511,0.71881
669.28,30.8434,-0.56979,1.02106,0.71637
672.58,30.9527,-0.5752,1.06945,0.71393
675.88,31.06196,-0.58033,1.12146,0.71147
679.18,31.17117,-0.58467,1.18082,0.709
682.48,31.28033,-0.591,1.24235,0.70651
685.78,31.38965,-0.60119,1.30551,0.70401
689.08,31.499,-0.60494,1.37228,0.70149
692.38,31.60853,-0.61226,1.44329,0.69896
695.68,31.7181,-0.62019,1.52751,0.69642
698.98,31.8276,-0.62834,1.61413,0.69386
702.28,31.93706,-0.63779,1.7107,0.69129
705.58,32.0467,-0.64882,1.81212,0.6887
708.88,32.1565,-0.65869,1.92619,0.6861
712.18,32.26663,-0.6719,2.05317,0.68349
715.48,32.37657,-0.68303,2.19196,0.68086
718.78,32.48681,-0.69745,2.34226,0.67822
722.08,32.5968,-0.71263,2.50246,0.67557
725.38,32.70682,-0.72649,2.66688,0.6729
728.68,32.81734,-0.74433,2.84462,0.67022
731.98,32.92783,-0.76508,3.02733,0.66752
735.28,33.03825,-0.78393,3.22806,0.66482
738.58,33.14878,-0.80821,3.43014,0.66209
741.88,33.25935,-0.82895,3.64315,0.65936
745.18,33.37012,-0.85426,3.88251,0.65661
748.48,33.4809,-0.88263,4.12747,0.65385
751.78,33.59168,-0.90996,4.38209,0.65108
755.08,33.70251,-0.94286,4.64734,0.64829
758.38,33.81342,-0.97509,4.92455,0.64549
761.68,33.92451,-1.01109,5.21136,0.64268
764.98,34.03543,-1.04874,5.50832,0.63985
768.28,34.1466,-1.08942,5.79693,0.63702
771.58,34.2571,-1.13359,6.07814,0.63417
774.88,34.36842,-1.17828,6.33332,0.63131
778.18,34.47961,-1.2237,6.55188,0.62843
781.48,34.5907,-1.27069,6.70405,0.62555
784.78,34.70178,-1.31875,6.70894,0.62265
788.08,34.8127,-1.36723,6.40917,0.61974
791.38,34.92322,-1.41393,5.40694,0.61682
794.68,35.03298,-1.44462,2.42127,0.61389
797.98,35.14156,-1.45317,0.6874,0.61094
801.28,35.25205,-1.45401,0.24634,0.60799
804.58,35.36293,-1.45399,0.12861,0.60502
807.88,35.47374,-1.45432,0.08477533,0.60205
811.18,35.58467,-1.45515,0.05643463,0.59906
814.48,35.69583,-1.45704,0.04678531,0.59606
817.78,35.8068,-1.45827,0.0330204,0.59306
821.08,35.91802,-1.45663,0.02780201,0.59004
824.38,36.02918,-1.45795,0.02239492,0.58701
827.68,36.14036,-1.45664,0.01285056,0.58397
830.98,36.2519,-1.46031,0.01073883,0.58092
834.28,36.3634,-1.4574,0.005273226,0.57787
837.58,36.4748,-1.46003,0.0004007389,0.5748
840.88,36.5865,-1.46005,-0.004883354,0.57172
843.18,36.66489,-1.46158,-0.01196036,0.56957