Folder: fsri_materials_database/01_Data/Pine_Lap_Siding_Paint/STA/N2/3K_min

Note: 01_Data/README.md
# Materials and Products Database
## 01_Data

Raw data generated from each apparatus are included here in plain-text format. The data is organized first by material, next by the short name of test apparatus used, and where applicable additional filtering by test settings.

### material.json

Each material directory contains a json file of the same name as the material. This file links the data stored in the repository as well as data and graphs produced by the accompanying scripts (__02_Scripts__) to the respective landing page for the material on the front-end website.

File: Pine_Lap_Siding_Paint_STA_N2_3KData_220316_R1.csv
##Temp./Â°C,Time/min,Mass loss(subtr.2)/mg,DSC(subtr.2)/(mW/mg),Sensit./(uV/mW)
50.07,10.0158,-0.01876,-0.00307851,1.04803
53.47,12.37888,-0.02132333,0.04229946,1.04653
56.87,13.65449,-0.02288543,0.04745814,1.04503
60.27,14.8579,-0.02570313,0.0514658,1.04354
63.67,16.03109,-0.02697014,0.05145415,1.04206
67.07,17.18544,-0.02699344,0.0531434,1.04058
70.47,18.334,-0.02993969,0.05367329,1.03911
73.87,19.47788,-0.02993025,0.05361792,1.03764
77.27,20.61478,-0.03256993,0.05526801,1.03618
80.67,21.74841,-0.03258068,0.05998399,1.03472
84.07,22.8808,-0.03585265,0.05649002,1.03327
87.47,24.01432,-0.03586478,0.05760985,1.03182
90.87,25.14599,-0.03585645,0.05763208,1.03038
94.27,26.277,-0.03741397,0.05694984,1.02895
97.67,27.41191,-0.03852614,0.05864317,1.02752
101.07,28.53653,-0.04091175,0.05937858,1.02609
104.47,29.66119,-0.04221521,0.0614819,1.02467
107.87,30.7876,-0.04094358,0.05990649,1.02325
111.27,31.9032,-0.04231675,0.06307784,1.02183
114.67,33.02326,-0.04485724,0.05999505,1.02042
118.07,34.14378,-0.04550675,0.05955518,1.01902
121.47,35.2626,-0.04551972,0.06150404,1.01761
124.87,36.3801,-0.04820413,0.06487852,1.01621
128.27,37.5015,-0.04916366,0.06518687,1.01482
131.67,38.6222,-0.04947874,0.06295772,1.01342
135.07,39.73808,-0.05046247,0.06416496,1.01203
138.47,40.8545,-0.05012988,0.06073143,1.01064
141.87,41.9692,-0.05243,0.06370851,1.00926
145.27,43.0818,-0.05176496,0.06823121,1.00787
148.67,44.1935,-0.05275937,0.06952373,1.00649
152.07,45.31115,-0.05140161,0.06847339,1.00511
155.47,46.4256,-0.05395745,0.07011629,1.00374
158.87,47.53051,-0.05627,0.07236475,1.00236
162.27,48.63534,-0.05856887,0.07508768,1.00099
165.67,49.7462,-0.06021903,0.07528621,0.99961
169.07,50.85602,-0.06182173,0.07657654,0.99824
172.47,51.96315,-0.06415995,0.07466617,0.99687
175.87,53.0729,-0.06612974,0.0741875,0.9955
179.27,54.1888,-0.06646998,0.07326833,0.99413
182.67,55.29585,-0.06876802,0.07364081,0.99276
186.07,56.4033,-0.06878009,0.07431424,0.99139
189.47,57.5069,-0.07012367,0.07788285,0.99001
192.87,58.61645,-0.07176886,0.0778044,0.98864
196.27,59.72843,-0.07239122,0.07925632,0.98727
199.67,60.83251,-0.07239002,0.07700113,0.9859
203.07,61.93625,-0.07256583,0.08052592,0.98452
206.47,63.04099,-0.07640143,0.08023159,0.98315
209.87,64.14215,-0.07626126,0.08390315,0.98177
213.27,65.24933,-0.07721835,0.08382207,0.98039
216.67,66.34929,-0.07853,0.08722972,0.97901
220.07,67.44753,-0.07821674,0.08665646,0.97763
223.47,68.5442,-0.07952001,0.08694727,0.97625
226.87,69.64411,-0.08084348,0.08720621,0.97486
230.27,70.74554,-0.08342939,0.08550475,0.97347
233.67,71.8515,-0.08303073,0.08978152,0.97208
237.07,72.94962,-0.08730855,0.09559756,0.97068
240.47,74.0465,-0.08994932,0.09484125,0.96928
243.87,75.14582,-0.09256172,0.09857296,0.96788
247.27,76.25325,-0.09714856,0.09974848,0.96648
250.67,77.35354,-0.09822586,0.09955847,0.96507
254.07,78.4526,-0.10212,0.09805323,0.96365
257.47,79.55519,-0.10704,0.09860444,0.96223
260.87,80.6562,-0.10957,0.09697557,0.96081
264.27,81.75244,-0.11337,0.09890409,0.95938
267.67,82.85571,-0.11689,0.09610333,0.95795
271.07,83.96167,-0.12055,0.09447728,0.95651
274.47,85.066,-0.12482,0.09855209,0.95506
277.87,86.16426,-0.12908,0.09513512,0.95361
281.27,87.27,-0.13436,0.09859565,0.95216
284.67,88.37108,-0.14051,0.10146,0.9507
288.07,89.47806,-0.14565,0.10237,0.94923
291.47,90.58972,-0.15213,0.10094,0.94776
294.87,91.70013,-0.1585,0.1074,0.94627
298.27,92.80413,-0.16672,0.10991,0.94479
301.67,93.9123,-0.17453,0.10981,0.94329
305.07,95.0196,-0.18513,0.11388,0.94179
308.47,96.12432,-0.19493,0.11283,0.94028
311.87,97.23992,-0.20855,0.1097,0.93876
315.27,98.34496,-0.22533,0.11356,0.93724
318.67,99.4543,-0.23772,0.11536,0.9357
322.07,100.568,-0.25203,0.11124,0.93416
325.47,101.675,-0.26612,0.11048,0.93261
328.87,102.787,-0.28148,0.10979,0.93105
332.27,103.906,-0.29362,0.10793,0.92949
335.67,105.017,-0.3092,0.11062,0.92791
339.07,106.125,-0.32094,0.10523,0.92633
342.47,107.234,-0.32994,0.10841,0.92473
345.87,108.3435,-0.34046,0.10706,0.92313
349.27,109.453,-0.3485,0.10256,0.92151
352.67,110.571,-0.35725,0.10055,0.91989
356.07,111.689,-0.36379,0.10249,0.91825
359.47,112.807,-0.3711,0.1057,0.91661
362.87,113.914,-0.37998,0.1081,0.91495
366.27,115.025,-0.38983,0.10839,0.91329
369.67,116.146,-0.39895,0.10883,0.91161
373.07,117.2661,-0.4122,0.11303,0.90993
376.47,118.381,-0.42566,0.11752,0.90823
379.87,119.496,-0.4403,0.11963,0.90652
383.27,120.61,-0.45468,0.11836,0.9048
386.67,121.733,-0.47155,0.12041,0.90306
390.07,122.848,-0.48615,0.12063,0.90132
393.47,123.966,-0.50202,0.11312,0.89956
396.87,125.084,-0.51257,0.10891,0.89779
400.27,126.206,-0.52079,0.10547,0.89601
403.67,127.3349,-0.52869,0.1045,0.89422
407.07,128.453,-0.53263,0.0994511,0.89242
410.47,129.578,-0.5379,0.10249,0.8906
413.87,130.701,-0.5432,0.1025,0.88877
417.27,131.822,-0.54908,0.10497,0.88692
420.67,132.937,-0.55323,0.1072,0.88507
424.07,134.058,-0.55696,0.10821,0.8832
427.47,135.182,-0.56257,0.11276,0.88131
430.87,136.303,-0.56935,0.11249,0.87942
434.27,137.428,-0.57639,0.11514,0.87751
437.67,138.558,-0.58156,0.11254,0.87558
441.07,139.672,-0.58815,0.11707,0.87365
444.47,140.796,-0.5934,0.11876,0.8717
447.87,141.93,-0.598,0.12062,0.86973
451.27,143.0521,-0.60292,0.12415,0.86775
454.67,144.18,-0.60854,0.12025,0.86576
458.07,145.311,-0.61248,0.12078,0.86375
461.47,146.437,-0.61542,0.12538,0.86173
464.87,147.563,-0.62187,0.12579,0.85969
468.27,148.695,-0.6239,0.12582,0.85764
471.67,149.819,-0.62676,0.13157,0.85558
475.07,150.944,-0.63004,0.13122,0.8535
478.47,152.075,-0.63134,0.14152,0.8514
481.87,153.201,-0.63498,0.14324,0.84929
485.27,154.337,-0.63755,0.14552,0.84717
488.67,155.466,-0.64026,0.14809,0.84503
492.07,156.599,-0.64123,0.13735,0.84287
495.47,157.734,-0.64387,0.1424,0.8407
498.87,158.86,-0.64451,0.13477,0.83852
502.27,159.997,-0.6465,0.13187,0.83632
505.67,161.129,-0.64839,0.13299,0.8341
509.07,162.261,-0.64887,0.13361,0.83187
512.47,163.397,-0.6511,0.13646,0.82963
515.87,164.53,-0.65241,0.14009,0.82736
519.27,165.661,-0.65472,0.13941,0.82509
522.67,166.801,-0.6537,0.14406,0.82279
526.07,167.947,-0.65505,0.14782,0.82049
529.47,169.076,-0.6551,0.14536,0.81816
532.87,170.205,-0.65517,0.15113,0.81582
536.27,171.343,-0.65742,0.15021,0.81347
539.67,172.482,-0.6603,0.15069,0.8111
543.07,173.62,-0.65865,0.15596,0.80871
546.47,174.756,-0.6622,0.15433,0.80631
549.87,175.887,-0.6635,0.15861,0.80389
553.27,177.029,-0.66362,0.15499,0.80146
556.67,178.172,-0.66474,0.15374,0.79901
560.07,179.305,-0.66579,0.1528,0.79654
563.47,180.441,-0.6674,0.15731,0.79406
566.87,181.584,-0.66974,0.15678,0.79157
570.27,182.732,-0.66877,0.16139,0.78906
573.67,183.867,-0.67172,0.1675,0.78653
577.07,185.001,-0.6736,0.16823,0.78399
580.47,186.141,-0.67674,0.17563,0.78143
583.87,187.289,-0.67822,0.17516,0.77886
587.27,188.43,-0.67994,0.1828,0.77627
590.67,189.564,-0.68389,0.18883,0.77366
594.07,190.708,-0.68632,0.19751,0.77104
597.47,191.8534,-0.6919,0.20135,0.76841
600.87,192.993,-0.69784,0.21441,0.76576
604.27,194.131,-0.70332,0.22274,0.76309
607.67,195.2741,-0.71033,0.22615,0.76041
611.07,196.416,-0.71855,0.23879,0.75772
614.47,197.564,-0.72514,0.25073,0.755
617.87,198.707,-0.73302,0.26385,0.75228
621.27,199.854,-0.74455,0.28053,0.74954
624.67,200.996,-0.75367,0.28717,0.74678
628.07,202.141,-0.76345,0.30429,0.74401
631.47,203.284,-0.77636,0.31864,0.74122
634.87,204.431,-0.79149,0.33758,0.73842
638.27,205.582,-0.80503,0.35206,0.73561
641.67,206.7297,-0.82472,0.37344,0.73278
645.07,207.869,-0.84353,0.40002,0.72993
648.47,209.009,-0.86371,0.4251,0.72708
651.87,210.16,-0.88621,0.4549,0.7242
655.27,211.31,-0.91226,0.47933,0.72132
658.67,212.453,-0.93977,0.50638,0.71842
662.07,213.595,-0.96919,0.53782,0.7155
665.47,214.739,-1.00046,0.57271,0.71257
668.87,215.891,-1.03777,0.60505,0.70963
672.27,217.041,-1.07604,0.64463,0.70668
675.67,218.183,-1.11498,0.67954,0.70371
679.07,219.332,-1.15872,0.71365,0.70072
682.47,220.486,-1.20585,0.75294,0.69773
685.87,221.63,-1.25697,0.79304,0.69472
689.27,222.776,-1.30835,0.82203,0.6917
692.67,223.923,-1.36285,0.84495,0.68866
696.07,225.0716,-1.42031,0.85861,0.68562
699.47,226.226,-1.47642,0.84075,0.68256
702.87,227.374,-1.53219,0.76641,0.67948
706.27,228.5201,-1.57677,0.553,0.6764
709.67,229.662,-1.58868,0.11194,0.6733
713.07,230.819,-1.59084,0.103,0.67019
716.47,231.967,-1.5904,0.10184,0.66707
719.87,233.111,-1.59111,0.098703,0.66394
723.27,234.271,-1.59048,0.09243206,0.6608
726.67,235.417,-1.59143,0.08588694,0.65764
730.07,236.565,-1.59428,0.08852331,0.65448
733.47,237.727,-1.59567,0.08454397,0.6513
736.87,238.8725,-1.59529,0.07895291,0.64811
740.27,240.024,-1.59528,0.07625575,0.64491
743.67,241.182,-1.59659,0.07443161,0.6417
747.07,242.328,-1.59694,0.0647658,0.63848
750.47,243.472,-1.59647,0.06270502,0.63525
753.87,244.629,-1.59813,0.06391036,0.63201
757.27,245.7783,-1.59846,0.06382312,0.62876
760.67,246.928,-1.59908,0.05810141,0.6255
764.07,248.09,-1.59976,0.06116853,0.62223
767.47,249.239,-1.6006,0.06173681,0.61896
770.87,250.392,-1.60245,0.06059087,0.61567
774.27,251.54,-1.60172,0.06348657,0.61237
777.67,252.69,-1.60205,0.06080184,0.60907
781.07,253.839,-1.60308,0.06601613,0.60575
784.47,254.996,-1.60471,0.06286788,0.60243
787.87,256.153,-1.60504,0.06703881,0.5991
791.27,257.308,-1.60561,0.05789287,0.59576
794.67,258.455,-1.60701,0.06576582,0.59242
798.07,259.617,-1.60898,0.06311507,0.58906
801.47,260.764,-1.60866,0.06739748,0.5857
804.87,261.933,-1.60966,0.06355853,0.58234
808.27,263.081,-1.6103,0.06795235,0.57896
811.67,264.241,-1.61191,0.06477076,0.57558
815.07,265.397,-1.61053,0.06479229,0.57219
818.47,266.552,-1.6126,0.06671487,0.5688
821.87,267.708,-1.61293,0.0656257,0.5654
825.27,268.862,-1.61458,0.06474192,0.56199
828.67,270.022,-1.61389,0.06224213,0.55858
832.07,271.1717,-1.61541,0.05983038,0.55516
835.47,272.338,-1.62686,0.05543983,0.55174
838.87,273.494,-1.61743,0.05003996,0.54831
842.27,274.651,-1.61677,0.03814389,0.54488
845.67,275.807,-1.61874,0.04448013,0.54144
848.17,276.655,-1.61991,0.03836093,0.53891