Folder: fsri_materials_database/01_Data/Rubber_Foam_Pipe_Insulation/STA/N2/10K_min

Note: 01_Data/README.md
# Materials and Products Database
## 01_Data

Raw data generated from each apparatus are included here in plain-text format. The data is organized first by material, next by the short name of test apparatus used, and where applicable additional filtering by test settings.

### material.json

Each material directory contains a json file of the same name as the material. This file links the data stored in the repository as well as data and graphs produced by the accompanying scripts (__02_Scripts__) to the respective landing page for the material on the front-end website.

File: Rubber_Foam_Pipe_Insulation_STA_N2_10KData_220921_R1.csv
##Temp./Â°C,Time/min,Mass loss(subtr.2)/mg,DSC(subtr.2)/(mW/mg),Sensit./(uV/mW)
50.19,10.00917,0.00494,0.0114592,1.02684
53.09,11.42639,0.00680438,0.33052,1.02659
55.99,11.9252,0.0059178,0.49565,1.02633
58.89,12.34539,0.00749377,0.60473,1.02607
61.79,12.7311,0.007574137,0.67972,1.0258
64.69,13.09426,0.008001683,0.72387,1.02553
67.59,13.4445,0.00780818,0.7492,1.02525
70.49,13.7827,0.00673973,0.76926,1.02497
73.39,14.11234,0.006492205,0.78702,1.02468
76.29,14.4353,0.005097242,0.80932,1.02439
79.19,14.7511,0.005059999,0.83451,1.02408
82.09,15.0633,0.004914208,0.86305,1.02378
84.99,15.36616,0.004627437,0.88733,1.02346
87.89,15.66944,0.00132126,0.90592,1.02314
90.79,15.9683,0.0013139,0.92671,1.02282
93.69,16.2636,-0.001310571,0.94611,1.02249
96.59,16.55588,-0.002206583,0.96693,1.02215
99.49,16.84541,-0.003951121,0.98604,1.0218
102.39,17.13409,-0.006586,1.01016,1.02145
105.29,17.4207,-0.0079008,1.02779,1.02109
108.19,17.70574,-0.008610365,1.04205,1.02072
111.09,17.98979,-0.01189899,1.05333,1.02035
113.99,18.27446,-0.01348761,1.07308,1.01997
116.89,18.5577,-0.01448985,1.09325,1.01958
119.79,18.84011,-0.01778019,1.10641,1.01919
122.69,19.12248,-0.01906514,1.09489,1.01878
125.59,19.404,-0.0221209,1.08991,1.01837
128.49,19.68471,-0.0247033,1.09407,1.01796
131.39,19.9639,-0.02660781,1.09874,1.01753
134.29,20.2435,-0.02864982,1.10827,1.0171
137.19,20.52225,-0.03193998,1.1172,1.01665
140.09,20.8005,-0.03391571,1.1248,1.0162
142.99,21.07846,-0.0381975,1.13152,1.01575
145.89,21.3554,-0.0421644,1.13784,1.01528
148.79,21.63254,-0.04410675,1.14529,1.01481
151.69,21.90833,-0.04837974,1.15065,1.01432
154.59,22.18446,-0.05105001,1.15379,1.01383
157.49,22.45947,-0.05499,1.16159,1.01333
160.39,22.73489,-0.0589642,1.17025,1.01282
163.29,23.01022,-0.0655368,1.18391,1.0123
166.19,23.28584,-0.07047843,1.20079,1.01178
169.09,23.5615,-0.07734889,1.21907,1.01124
171.99,23.83766,-0.08529497,1.24345,1.01069
174.89,24.11355,-0.09183937,1.27301,1.01014
177.79,24.38948,-0.10146,1.30245,1.00957
180.69,24.66517,-0.1128,1.3364,1.009
183.59,24.94047,-0.1235,1.37109,1.00841
186.49,25.2155,-0.13548,1.40702,1.00782
189.39,25.49008,-0.1495,1.44338,1.00722
192.29,25.7656,-0.16395,1.47828,1.0066
195.19,26.04066,-0.18158,1.51157,1.00598
198.09,26.3153,-0.19956,1.54216,1.00534
200.99,26.59099,-0.21767,1.57038,1.0047
203.89,26.8658,-0.23914,1.58997,1.00404
206.79,27.14142,-0.25895,1.61001,1.00338
209.69,27.4162,-0.28127,1.62043,1.0027
212.59,27.692,-0.30462,1.6307,1.00201
215.49,27.967,-0.32784,1.64176,1.00132
218.39,28.24237,-0.35361,1.65856,1.00061
221.29,28.5168,-0.37872,1.68848,0.99989
224.19,28.7916,-0.40748,1.74435,0.99916
227.09,29.0677,-0.43857,1.83071,0.99841
229.99,29.343,-0.47314,1.9523,0.99766
232.89,29.6196,-0.51365,2.10881,0.99689
235.79,29.8961,-0.56158,2.29617,0.99611
238.69,30.17437,-0.6173,2.52522,0.99533
241.59,30.45247,-0.68313,2.68538,0.99452
244.49,30.7287,-0.75453,2.28643,0.99371
247.39,31.00285,-0.82732,1.82072,0.99289
250.29,31.2761,-0.91378,1.67438,0.99205
253.19,31.55058,-1.01901,1.75204,0.9912
256.09,31.82592,-1.14346,1.80011,0.99034
258.99,32.101,-1.28726,1.63039,0.98946
261.89,32.37441,-1.4772,0.99522,0.98858
264.79,32.64035,-1.79404,-1.57334,0.98768
267.69,32.9,-2.21964,-2.32585,0.98677
270.59,33.17502,-2.47517,-0.0563782,0.98584
273.49,33.4595,-2.60625,1.32982,0.9849
276.39,33.7438,-2.70444,1.95441,0.98395
279.29,34.02772,-2.79016,2.27432,0.98299
282.19,34.30892,-2.87022,2.44121,0.98201
285.09,34.5892,-2.94428,2.47722,0.98102
287.99,34.86842,-3.01402,2.39178,0.98002
290.89,35.1463,-3.0765,2.2125,0.979
293.79,35.42315,-3.1343,2.01436,0.97797
296.69,35.69948,-3.18661,1.8397,0.97692
299.59,35.97591,-3.2362,1.70124,0.97587
302.49,36.25201,-3.2829,1.599,0.97479
305.39,36.52755,-3.32889,1.52413,0.97371
308.29,36.80381,-3.37171,1.47412,0.97261
311.19,37.0801,-3.4161,1.44126,0.9715
314.09,37.35725,-3.46078,1.41632,0.97037
316.99,37.6342,-3.50369,1.40346,0.96923
319.89,37.912,-3.54803,1.39428,0.96807
322.79,38.18928,-3.58904,1.38753,0.9669
325.69,38.46776,-3.63405,1.39021,0.96571
328.59,38.7466,-3.67847,1.39685,0.96451
331.49,39.02507,-3.72243,1.40942,0.9633
334.39,39.30405,-3.76925,1.42363,0.96207
337.29,39.58312,-3.81493,1.43348,0.96083
340.19,39.8609,-3.86187,1.43976,0.95957
343.09,40.14095,-3.90913,1.44195,0.9583
345.99,40.4195,-3.95624,1.44231,0.95701
348.89,40.69897,-4.00397,1.42904,0.9557
351.79,40.97653,-4.05074,1.39992,0.95439
354.69,41.25597,-4.09706,1.35911,0.95305
357.59,41.53646,-4.14354,1.31398,0.95171
360.49,41.81682,-4.18706,1.26903,0.95034
363.39,42.0968,-4.23403,1.24353,0.94896
366.29,42.37713,-4.27933,1.26541,0.94757
369.19,42.65794,-4.32996,1.37525,0.94616
372.09,42.93926,-4.38816,1.5284,0.94474
374.99,43.22166,-4.4512,1.61804,0.9433
377.89,43.50328,-4.51546,1.62145,0.94184
380.79,43.78532,-4.57682,1.57459,0.94037
383.69,44.06623,-4.63738,1.5079,0.93888
386.59,44.3474,-4.69498,1.42476,0.93738
389.49,44.62791,-4.74948,1.34056,0.93586
392.39,44.90872,-4.80259,1.25952,0.93433
395.29,45.18929,-4.85331,1.18554,0.93278
398.19,45.46976,-4.90345,1.13101,0.93121
401.09,45.75078,-4.95466,1.09125,0.92963
403.99,46.03257,-5.00509,1.067,0.92804
406.89,46.31475,-5.05804,1.05296,0.92642
409.79,46.5968,-5.113,1.04326,0.92479
412.69,46.87852,-5.17055,1.03859,0.92315
415.59,47.15981,-5.23281,1.03386,0.92149
418.49,47.44238,-5.29612,1.03652,0.91981
421.39,47.72426,-5.36358,1.04074,0.91812
424.29,48.0066,-5.43537,1.05305,0.91641
427.19,48.28926,-5.51553,1.07625,0.91469
430.09,48.5721,-5.59938,1.10927,0.91295
432.99,48.85491,-5.68959,1.14777,0.91119
435.89,49.13902,-5.78705,1.19388,0.90942
438.79,49.42223,-5.8894,1.24317,0.90763
441.69,49.7057,-5.99708,1.28883,0.90582
444.59,49.98959,-6.10825,1.33253,0.904
447.49,50.27397,-6.22424,1.3691,0.90217
450.39,50.558,-6.34302,1.40154,0.90031
453.29,50.84202,-6.46384,1.43099,0.89844
456.19,51.12433,-6.58288,1.44118,0.89656
459.09,51.40982,-6.70147,1.41138,0.89466
461.99,51.69378,-6.81562,1.37009,0.89274
464.89,51.97795,-6.92398,1.32947,0.89081
467.79,52.2613,-7.02614,1.29117,0.88886
470.69,52.5462,-7.12092,1.25329,0.88689
473.59,52.83109,-7.20782,1.22232,0.88491
476.49,53.1157,-7.28642,1.19975,0.88291
479.39,53.4007,-7.35882,1.20191,0.8809
482.29,53.6851,-7.42086,1.23046,0.87887
485.19,53.97048,-7.4791,1.30087,0.87683
488.09,54.25609,-7.53554,1.4294,0.87476
490.99,54.54184,-7.59358,1.59896,0.87269
493.89,54.8277,-7.65309,1.81389,0.87059
496.79,55.1148,-7.71493,1.95179,0.86849
499.69,55.4009,-7.77682,1.96243,0.86636
502.59,55.6875,-7.83507,1.89569,0.86422
505.49,55.97283,-7.88924,1.78884,0.86206
508.39,56.2587,-7.93728,1.66106,0.85989
511.29,56.54394,-7.98045,1.52467,0.85771
514.19,56.82931,-8.0189,1.39533,0.8555
517.09,57.1149,-8.05294,1.27186,0.85328
519.99,57.4,-8.08241,1.16505,0.85105
522.89,57.6864,-8.10836,1.07654,0.8488
525.79,57.97283,-8.13353,0.99614,0.84653
528.69,58.25915,-8.15326,0.92504,0.84425
531.59,58.54589,-8.16991,0.8675,0.84196
534.49,58.8321,-8.18733,0.82435,0.83965
537.39,59.11846,-8.20178,0.79604,0.83732
540.29,59.40478,-8.21667,0.77087,0.83498
543.19,59.69165,-8.23164,0.75437,0.83262
546.09,59.97891,-8.2426,0.74202,0.83025
548.99,60.26579,-8.25442,0.73386,0.82787
551.89,60.55288,-8.26564,0.72807,0.82547
554.79,60.83967,-8.27692,0.72418,0.82305
557.69,61.12656,-8.28719,0.72611,0.82062
560.59,61.4136,-8.29925,0.7282,0.81817
563.49,61.7003,-8.31058,0.73095,0.81571
566.39,61.9881,-8.32253,0.74075,0.81324
569.29,62.27567,-8.33161,0.75505,0.81075
572.19,62.5631,-8.34172,0.77402,0.80825
575.09,62.8513,-8.35301,0.79865,0.80573
577.99,63.13893,-8.36543,0.83431,0.8032
580.89,63.42705,-8.37785,0.87476,0.80065
583.79,63.71614,-8.39116,0.93112,0.79809
586.69,64.00497,-8.40591,1.00468,0.79552
589.59,64.29351,-8.41933,1.04298,0.79293
592.49,64.58176,-8.43405,0.94233,0.79033
595.39,64.86968,-8.44764,0.85268,0.78772
598.29,65.15689,-8.45955,0.78485,0.78509
601.19,65.44495,-8.47116,0.72925,0.78245
604.09,65.7325,-8.48321,0.67756,0.77979
606.99,66.02065,-8.49492,0.63099,0.77713
609.89,66.30935,-8.50194,0.58517,0.77444
612.79,66.59759,-8.5122,0.54568,0.77175
615.69,66.88633,-8.52013,0.50991,0.76904
618.59,67.1746,-8.52576,0.46966,0.76632
621.49,67.46234,-8.53286,0.43529,0.76359
624.39,67.75149,-8.53948,0.4021,0.76084
627.29,68.0395,-8.54486,0.37105,0.75809
630.19,68.32771,-8.5511,0.34115,0.75532
633.09,68.61605,-8.55539,0.31502,0.75254
635.99,68.90504,-8.56196,0.28915,0.74974
638.89,69.19349,-8.56598,0.26778,0.74693
641.79,69.48225,-8.56881,0.25687,0.74412
644.69,69.77146,-8.57218,0.24341,0.74129
647.59,70.06126,-8.57481,0.24012,0.73845
650.49,70.3506,-8.58009,0.2386,0.73559
653.39,70.63988,-8.58141,0.23051,0.73273
656.29,70.92968,-8.58536,0.22362,0.72985
659.19,71.2196,-8.58624,0.21976,0.72697
662.09,71.5097,-8.5892,0.21438,0.72407
664.99,71.79935,-8.59217,0.21235,0.72116
667.89,72.08821,-8.59313,0.20868,0.71824
670.79,72.37729,-8.59711,0.20771,0.71531
673.69,72.66681,-8.59822,0.20671,0.71237
676.59,72.9558,-8.59881,0.20849,0.70942
679.49,73.2443,-8.60193,0.20789,0.70646
682.39,73.53583,-8.60533,0.20822,0.70349
685.29,73.82685,-8.60798,0.20795,0.70051
688.19,74.11774,-8.61196,0.21199,0.69752
691.09,74.40879,-8.61391,0.21423,0.69452
693.99,74.69968,-8.61486,0.22263,0.69151
696.89,74.9903,-8.61883,0.2278,0.6885
699.79,75.28144,-8.62284,0.23166,0.68547
702.69,75.5723,-8.62246,0.24328,0.68243
705.59,75.86345,-8.62515,0.25446,0.67939
708.49,76.15395,-8.62954,0.26871,0.67633
711.39,76.44447,-8.63048,0.2853,0.67327
714.29,76.73469,-8.63411,0.29666,0.6702
717.19,77.0252,-8.63708,0.32116,0.66712
720.09,77.31559,-8.64069,0.35172,0.66404
722.99,77.60659,-8.64363,0.3866,0.66094
725.89,77.89753,-8.64617,0.41251,0.65784
728.79,78.18881,-8.64893,0.40875,0.65473
731.69,78.47977,-8.65057,0.38201,0.65161
734.59,78.77127,-8.65469,0.34251,0.64849
737.49,79.0624,-8.65683,0.29347,0.64536
740.39,79.35365,-8.6608,0.27821,0.64222
743.29,79.6455,-8.66362,0.27381,0.63907
746.19,79.93679,-8.66737,0.26984,0.63592
746.79,79.9967,-8.66869,0.27253,0.63527

File: Rubber_Foam_Pipe_Insulation_STA_N2_10KData_220921_R2.csv
##Temp./Â°C,Time/min,Mass loss(subtr.2)/mg,DSC(subtr.2)/(mW/mg),Sensit./(uV/mW)
50.373,10.01,0.00494,-0.01077366,1.02682
53.373,11.44176,0.005510116,0.09292634,1.02656
56.373,11.9496,0.005069455,0.13788,1.0263
59.373,12.37755,0.00559672,0.16929,1.02603
62.373,12.77206,0.005336401,0.18583,1.02575
65.373,13.1448,0.0055847,0.19779,1.02547
68.373,13.50288,0.005682749,0.20276,1.02518
71.373,13.84946,0.004391288,0.21067,1.02488
74.373,14.18888,0.004390496,0.21826,1.02458
77.373,14.5194,0.00470778,0.22301,1.02427
80.373,14.8422,0.004297276,0.23065,1.02396
83.373,15.164,0.00438705,0.23639,1.02364
86.373,15.4787,0.004392017,0.23999,1.02331
89.373,15.78902,0.00306559,0.24726,1.02298
92.373,16.09515,0.002003018,0.25444,1.02264
95.373,16.39655,0.003066091,0.26135,1.02229
98.373,16.6987,0.001741384,0.26738,1.02193
101.373,16.99855,0.00169419,0.27375,1.02157
104.373,17.2951,0.00178927,0.2808,1.0212
107.373,17.58982,0.000774777,0.28287,1.02083
110.373,17.88458,0.0004688499,0.28544,1.02044
113.373,18.17829,-0.0008799764,0.29374,1.02005
116.373,18.47118,-0.00122598,0.30372,1.01965
119.373,18.7645,-0.00293555,0.30239,1.01924
122.373,19.05663,-0.00312562,0.29714,1.01883
125.373,19.34769,-0.0035263,0.29488,1.0184
128.373,19.63811,-0.005117671,0.29875,1.01797
131.373,19.92792,-0.003833988,0.3015,1.01753
134.373,20.21632,-0.00549749,0.3042,1.01708
137.373,20.50403,-0.006480796,0.30663,1.01663
140.373,20.79138,-0.008124062,0.30868,1.01616
143.373,21.0787,-0.008120081,0.31138,1.01569
146.373,21.36514,-0.009092219,0.31321,1.0152
149.373,21.65094,-0.01076,0.3133,1.01471
152.373,21.93684,-0.01273645,0.31421,1.01421
155.373,22.2222,-0.01536943,0.31769,1.0137
158.373,22.50777,-0.0153806,0.32274,1.01318
161.373,22.79334,-0.01737075,0.32548,1.01265
164.373,23.078,-0.02064,0.33335,1.01211
167.373,23.36338,-0.02260079,0.34274,1.01156
170.373,23.64866,-0.02459,0.35121,1.011
173.373,23.93277,-0.02723008,0.36103,1.01043
176.373,24.21744,-0.0298707,0.37208,1.00985
179.373,24.50287,-0.03381032,0.38621,1.00926
182.373,24.78734,-0.03843785,0.39688,1.00866
185.373,25.07133,-0.04309754,0.40915,1.00805
188.373,25.35635,-0.04561793,0.42116,1.00743
191.373,25.64149,-0.05224682,0.43066,1.0068
194.373,25.92665,-0.05752848,0.44121,1.00616
197.373,26.20934,-0.06471783,0.44821,1.0055
200.373,26.49457,-0.07007269,0.45255,1.00484
203.373,26.7805,-0.07676981,0.4572,1.00416
206.373,27.0647,-0.08338859,0.45873,1.00347
209.373,27.3488,-0.08985784,0.46218,1.00278
212.373,27.63239,-0.09782568,0.46494,1.00207
215.373,27.91596,-0.10525,0.46812,1.00134
218.373,28.20028,-0.11275,0.47559,1.00061
221.373,28.4845,-0.12045,0.49785,0.99987
224.373,28.76935,-0.13018,0.52951,0.99911
227.373,29.05159,-0.14209,0.57962,0.99834
230.373,29.33855,-0.15622,0.64876,0.99756
233.373,29.62425,-0.17158,0.73777,0.99676
236.373,29.9102,-0.19059,0.8479,0.99596
239.373,30.19602,-0.21374,0.97232,0.99514
242.373,30.4818,-0.24244,0.96002,0.99431
245.373,30.76653,-0.26787,0.68352,0.99346
248.373,31.05077,-0.29598,0.5478,0.9926
251.373,31.3353,-0.33209,0.59447,0.99173
254.373,31.62084,-0.37173,0.65717,0.99085
257.373,31.9066,-0.41864,0.66396,0.98995
260.373,32.19266,-0.47821,0.5756,0.98904
263.373,32.47651,-0.5618,0.1937,0.98812
266.373,32.75925,-0.67921,-0.10167,0.98718
269.373,33.04355,-0.77618,0.32243,0.98623
272.373,33.33228,-0.83209,0.66381,0.98527
275.373,33.61975,-0.87121,0.73987,0.98429
278.373,33.90733,-0.90041,0.69217,0.98329
281.373,34.19372,-0.92627,0.60607,0.98229
284.373,34.4794,-0.94754,0.52829,0.98127
287.373,34.7659,-0.96625,0.4662,0.98023
290.373,35.0524,-0.98191,0.42443,0.97918
293.373,35.33821,-0.99766,0.39443,0.97812
296.373,35.6245,-1.01014,0.37642,0.97704
299.373,35.91138,-1.02564,0.36127,0.97595
302.373,36.19809,-1.03837,0.34919,0.97484
305.373,36.48492,-1.05073,0.3381,0.97372
308.373,36.77217,-1.06414,0.33516,0.97258
311.373,37.05966,-1.07389,0.33106,0.97142
314.373,37.34648,-1.0867,0.32778,0.97026
317.373,37.63476,-1.1002,0.32489,0.96907
320.373,37.9223,-1.10924,0.32228,0.96788
323.373,38.21072,-1.12186,0.31946,0.96666
326.373,38.49835,-1.1318,0.31536,0.96543
329.373,38.7866,-1.14413,0.31479,0.96419
332.373,39.07454,-1.15553,0.31181,0.96293
335.373,39.36268,-1.16634,0.30796,0.96165
338.373,39.65144,-1.17644,0.30467,0.96036
341.373,39.9407,-1.18896,0.29794,0.95905
344.373,40.23002,-1.20026,0.29395,0.95773
347.373,40.51967,-1.21191,0.28921,0.95639
350.373,40.80959,-1.22552,0.28552,0.95503
353.373,41.09912,-1.23526,0.28361,0.95366
356.373,41.38847,-1.24671,0.28007,0.95227
359.373,41.67881,-1.2599,0.27821,0.95087
362.373,41.96914,-1.27053,0.27636,0.94945
365.373,42.25918,-1.28204,0.27888,0.94801
368.373,42.54967,-1.29475,0.30366,0.94656
371.373,42.8405,-1.31114,0.39225,0.94509
374.373,43.1318,-1.33139,0.54468,0.9436
377.373,43.42348,-1.35765,0.62525,0.9421
380.373,43.71461,-1.38322,0.5875,0.94058
383.373,44.006,-1.40616,0.51094,0.93905
386.373,44.2967,-1.42582,0.44335,0.93749
389.373,44.58703,-1.44486,0.37929,0.93592
392.373,44.87754,-1.46033,0.33414,0.93434
395.373,45.16775,-1.47471,0.29817,0.93273
398.373,45.4584,-1.48697,0.27503,0.93111
401.373,45.7493,-1.50298,0.25983,0.92948
404.373,46.0385,-1.51627,0.25104,0.92782
407.373,46.33166,-1.53262,0.24531,0.92615
410.373,46.6235,-1.54594,0.24636,0.92446
413.373,46.91584,-1.56511,0.24569,0.92276
416.373,47.208,-1.58132,0.25003,0.92104
419.373,47.50062,-1.60158,0.25646,0.9193
422.373,47.79333,-1.6225,0.26243,0.91754
425.373,48.08607,-1.64453,0.27232,0.91577
428.373,48.37892,-1.66977,0.28505,0.91398
431.373,48.67145,-1.69663,0.30029,0.91217
434.373,48.964,-1.72594,0.31327,0.91035
437.373,49.25724,-1.75534,0.32568,0.9085
440.373,49.54958,-1.78888,0.34079,0.90665
443.373,49.84265,-1.82179,0.35013,0.90477
446.373,50.13629,-1.85845,0.35989,0.90288
449.373,50.43014,-1.89444,0.36605,0.90096
452.373,50.7245,-1.93184,0.36905,0.89904
455.373,51.01783,-1.96845,0.36893,0.89709
458.373,51.31162,-2.00361,0.36584,0.89513
461.373,51.6058,-2.03628,0.35357,0.89315
464.373,51.90044,-2.06814,0.33685,0.89115
467.373,52.1946,-2.09763,0.32192,0.88914
470.373,52.4892,-2.12698,0.31605,0.88711
473.373,52.7836,-2.14841,0.31061,0.88506
476.373,53.0779,-2.17009,0.31874,0.88299
479.373,53.37248,-2.18881,0.33424,0.88091
482.373,53.6678,-2.20593,0.36531,0.87881
485.373,53.9626,-2.22236,0.39888,0.8767
488.373,54.25829,-2.23998,0.42417,0.87456
491.373,54.55393,-2.25628,0.44146,0.87241
494.373,54.84935,-2.27129,0.44233,0.87024
497.373,55.1447,-2.28435,0.4295,0.86806
500.373,55.44007,-2.29864,0.41126,0.86586
503.373,55.73535,-2.31035,0.3869,0.86364
506.373,56.03065,-2.32252,0.36004,0.8614
509.373,56.32598,-2.3328,0.33199,0.85915
512.373,56.62164,-2.34199,0.3082,0.85688
515.373,56.9177,-2.35083,0.28672,0.8546
518.373,57.21409,-2.35688,0.25747,0.8523
521.373,57.5105,-2.36601,0.23805,0.84998
524.373,57.8073,-2.3713,0.21725,0.84764
527.373,58.10434,-2.37757,0.19728,0.84529
530.373,58.4011,-2.3817,0.181,0.84292
533.373,58.69849,-2.38682,0.1703,0.84054
536.373,58.9948,-2.39208,0.16621,0.83814
539.373,59.29084,-2.39733,0.16336,0.83572
542.373,59.5872,-2.39997,0.16704,0.83329
545.373,59.88589,-2.40253,0.16982,0.83084
548.373,60.18303,-2.40819,0.17448,0.82838
551.373,60.4798,-2.41116,0.17691,0.8259
554.373,60.77612,-2.41643,0.1803,0.8234
557.373,61.073,-2.42081,0.18663,0.82089
560.373,61.37055,-2.42445,0.19318,0.81836
563.373,61.6677,-2.42971,0.20264,0.81581
566.373,61.96519,-2.43569,0.21526,0.81325
569.373,62.26236,-2.43825,0.22925,0.81068
572.373,62.56001,-2.44487,0.24264,0.80809
575.373,62.8579,-2.44959,0.2526,0.80548
578.373,63.1556,-2.45618,0.24917,0.80286
581.373,63.4531,-2.4615,0.22989,0.80023
584.373,63.7507,-2.46474,0.20675,0.79758
587.373,64.04836,-2.46983,0.19258,0.79491
590.373,64.3467,-2.47622,0.18052,0.79223
593.373,64.6447,-2.48087,0.1664,0.78954
596.373,64.94277,-2.48578,0.15416,0.78683
599.373,65.24056,-2.48978,0.14465,0.7841
602.373,65.53918,-2.49307,0.13795,0.78137
605.373,65.83792,-2.49772,0.13373,0.77861
608.373,66.1371,-2.5004,0.12942,0.77585
611.373,66.4361,-2.50328,0.12713,0.77307
614.373,66.73415,-2.50867,0.12529,0.77027
617.373,67.03237,-2.51002,0.12153,0.76747
620.373,67.33102,-2.51564,0.11277,0.76464
623.373,67.6292,-2.51648,0.10343,0.76181
626.373,67.9284,-2.51952,0.09354511,0.75896
629.373,68.22737,-2.52183,0.09042622,0.7561
632.373,68.5252,-2.52545,0.07595303,0.75322
635.373,68.82409,-2.52809,0.062549,0.75034
638.373,69.1228,-2.52939,0.05076381,0.74744
641.373,69.42269,-2.53204,0.03673713,0.74452
644.373,69.72247,-2.53336,0.02766742,0.7416
647.373,70.02229,-2.53467,0.02008427,0.73866
650.373,70.322,-2.53599,0.01433131,0.73571
653.373,70.6211,-2.53731,0.007563824,0.73275
656.373,70.92054,-2.53731,0.001927474,0.72977
659.373,71.21998,-2.53994,0.00551143,0.72678
662.373,71.51994,-2.54027,0.002103572,0.72379
665.373,71.81973,-2.54321,0.005804561,0.72078
668.373,72.11968,-2.54079,0.009548212,0.71775
671.373,72.41996,-2.54378,0.01013737,0.71472
674.373,72.71976,-2.54752,0.01393758,0.71168
677.373,73.01995,-2.54412,0.01400073,0.70862
680.373,73.31973,-2.54521,0.0132658,0.70556
683.373,73.61961,-2.54984,0.01579422,0.70248
686.373,73.92027,-2.54851,0.01909945,0.6994
689.373,74.22022,-2.55114,0.01973186,0.6963
692.373,74.52045,-2.55114,0.0275151,0.69319
695.373,74.82089,-2.55278,0.03263491,0.69008
698.373,75.12127,-2.55245,0.03590441,0.68695
701.373,75.4219,-2.55444,0.04435774,0.68381
704.373,75.72231,-2.55575,0.04954797,0.68067
707.373,76.023,-2.55936,0.06079728,0.67751
710.373,76.32204,-2.55937,0.06475868,0.67435
713.373,76.62349,-2.56066,0.07727315,0.67117
716.373,76.92448,-2.56259,0.07952223,0.66799
719.373,77.22596,-2.56333,0.08943569,0.6648
722.373,77.5273,-2.56496,0.09431488,0.6616
725.373,77.82892,-2.56629,0.10072,0.65839
728.373,78.13015,-2.56761,0.11149,0.65518
731.373,78.4315,-2.57024,0.12276,0.65195
734.373,78.73334,-2.57105,0.1439,0.64872
737.373,79.0351,-2.574,0.16594,0.64548
740.373,79.3369,-2.57686,0.20269,0.64224
743.373,79.6386,-2.57941,0.23436,0.63898
746.373,79.94028,-2.58411,0.22832,0.63572
746.873,79.99082,-2.58309,0.22433,0.63518