Folder: fsri_materials_database/01_Data/Rubber_Foam_Pipe_Insulation/STA/N2/10K_min (part 2)

File: Rubber_Foam_Pipe_Insulation_STA_N2_10KData_220922_R3.csv
##Temp./Â°C,Time/min,Mass loss(subtr.2)/mg,DSC(subtr.2)/(mW/mg),Sensit./(uV/mW)
50.37,10.01,0.02097,0.00387177,1.02682
53.27,11.42479,0.02570582,0.10712,1.02657
56.17,11.9211,0.02610753,0.15621,1.02632
59.07,12.33934,0.02425589,0.18716,1.02605
61.97,12.72152,0.02535117,0.20773,1.02579
64.87,13.08503,0.02711111,0.21978,1.02551
67.77,13.4333,0.02801457,0.2251,1.02524
70.67,13.77101,0.02929258,0.23176,1.02495
73.57,14.10019,0.02195451,0.23835,1.02466
76.47,14.4217,0.02089648,0.24884,1.02437
79.37,14.7379,0.02766033,0.25274,1.02407
82.27,15.04855,0.02416454,0.25907,1.02376
85.17,15.3549,0.02407504,0.26207,1.02344
88.07,15.6567,0.02271774,0.26794,1.02312
90.97,15.9546,0.02550962,0.27738,1.0228
93.87,16.2499,0.0272283,0.28123,1.02246
96.77,16.54166,0.0255355,0.28597,1.02213
99.67,16.83066,0.02198263,0.29463,1.02178
102.57,17.11873,0.02718841,0.3014,1.02143
105.47,17.40395,0.02196001,0.30802,1.02107
108.37,17.69013,0.02460002,0.31012,1.0207
111.27,17.9746,0.02228393,0.31461,1.02033
114.17,18.25849,0.01954798,0.32371,1.01994
117.07,18.54136,0.01965063,0.32855,1.01956
119.97,18.82398,0.02548274,0.32809,1.01916
122.87,19.10546,0.02140904,0.32318,1.01876
125.77,19.38661,0.02022701,0.32425,1.01835
128.67,19.66752,0.01858247,0.32488,1.01793
131.57,19.94695,0.01876743,0.32699,1.0175
134.47,20.226,0.01877795,0.33007,1.01707
137.37,20.50477,0.01614001,0.32969,1.01663
140.27,20.78219,0.01612235,0.3339,1.01618
143.17,21.05994,0.01373579,0.33549,1.01572
146.07,21.33713,0.01406118,0.33852,1.01525
148.97,21.61375,0.01483929,0.34077,1.01478
151.87,21.8901,0.009549907,0.34212,1.01429
154.77,22.16617,0.01278425,0.34577,1.0138
157.67,22.4422,0.008420023,0.34726,1.0133
160.57,22.71746,0.00561087,0.35523,1.01279
163.47,22.99304,0.0016663,0.36125,1.01227
166.37,23.2687,0.00176,0.36827,1.01174
169.27,23.54459,-0.0008577246,0.37438,1.01121
172.17,23.82031,-0.004830918,0.38649,1.01066
175.07,24.09596,-0.0073653,0.3937,1.0101
177.97,24.37099,-0.01000493,0.40563,1.00954
180.87,24.6469,-0.01151772,0.41914,1.00896
183.77,24.92066,-0.01775127,0.42999,1.00838
186.67,25.1964,-0.02166784,0.44174,1.00778
189.57,25.47114,-0.02557146,0.45383,1.00718
192.47,25.74605,-0.02953009,0.46392,1.00656
195.37,26.02109,-0.03546349,0.46864,1.00594
198.27,26.29634,-0.04042549,0.47571,1.0053
201.17,26.57187,-0.04874935,0.48103,1.00466
204.07,26.8475,-0.05566318,0.483,1.004
206.97,27.12289,-0.05704182,0.48445,1.00334
209.87,27.39807,-0.06883,0.48718,1.00266
212.77,27.6731,-0.07288986,0.48828,1.00197
215.67,27.9478,-0.0799124,0.49479,1.00127
218.57,28.22216,-0.08921469,0.50592,1.00056
221.47,28.49672,-0.09485015,0.52541,0.99984
224.37,28.77202,-0.10566,0.55845,0.99911
227.27,29.0465,-0.11524,0.6057,0.99837
230.17,29.32212,-0.12833,0.67,0.99761
233.07,29.5981,-0.1458,0.75554,0.99684
235.97,29.87472,-0.16188,0.8613,0.99607
238.87,30.1516,-0.18744,0.98307,0.99528
241.77,30.42827,-0.21198,1.02419,0.99447
244.67,30.7036,-0.2335,0.77049,0.99366
247.57,30.97802,-0.2633,0.59348,0.99284
250.47,31.25207,-0.29431,0.61013,0.992
253.37,31.5273,-0.33384,0.67987,0.99115
256.27,31.80367,-0.37486,0.70697,0.99028
259.17,32.0795,-0.42859,0.67441,0.98941
262.07,32.35495,-0.49583,0.46173,0.98852
264.97,32.62858,-0.5984,0.02529848,0.98762
267.87,32.9022,-0.71077,0.1302,0.98671
270.77,33.17903,-0.77965,0.57302,0.98578
273.67,33.45753,-0.82443,0.76966,0.98484
276.57,33.73527,-0.8553,0.77437,0.98389
279.47,34.01197,-0.88687,0.70191,0.98293
282.37,34.2882,-0.90784,0.61331,0.98195
285.27,34.56527,-0.92854,0.53842,0.98096
288.17,34.84167,-0.94469,0.48304,0.97995
291.07,35.11801,-0.96037,0.4437,0.97894
293.97,35.39495,-0.9734,0.41916,0.9779
296.87,35.67187,-0.98758,0.40344,0.97686
299.77,35.94877,-0.99833,0.39074,0.9758
302.67,36.22583,-1.01086,0.37891,0.97473
305.57,36.50334,-1.03062,0.37527,0.97364
308.47,36.78082,-1.03448,0.36864,0.97254
311.37,37.05839,-1.04571,0.36265,0.97143
314.27,37.33645,-1.05912,0.35902,0.9703
317.17,37.61437,-1.07042,0.35706,0.96915
320.07,37.89247,-1.07716,0.35303,0.968
322.97,38.17111,-1.09047,0.35206,0.96683
325.87,38.44932,-1.10132,0.34861,0.96564
328.77,38.7282,-1.1133,0.34319,0.96444
331.67,39.00716,-1.12373,0.34052,0.96322
334.57,39.28627,-1.13644,0.33818,0.96199
337.47,39.56543,-1.14588,0.33358,0.96075
340.37,39.84506,-1.15594,0.33077,0.95949
343.27,40.1242,-1.16662,0.32933,0.95822
346.17,40.4034,-1.18019,0.32804,0.95693
349.07,40.68249,-1.18751,0.32407,0.95562
351.97,40.9623,-1.20211,0.32276,0.9543
354.87,41.24221,-1.21131,0.31787,0.95297
357.77,41.52218,-1.22218,0.31582,0.95162
360.67,41.8022,-1.23494,0.31274,0.95026
363.57,42.0826,-1.24556,0.31088,0.94888
366.47,42.36278,-1.25734,0.31784,0.94748
369.37,42.6432,-1.27369,0.35848,0.94607
372.27,42.92447,-1.28708,0.4769,0.94465
375.17,43.2057,-1.30619,0.62466,0.94321
378.07,43.48734,-1.3366,0.66059,0.94175
380.97,43.7682,-1.35878,0.60801,0.94028
383.87,44.04896,-1.38197,0.53581,0.93879
386.77,44.32985,-1.39917,0.46805,0.93729
389.67,44.61058,-1.41577,0.40837,0.93577
392.57,44.89177,-1.4341,0.36507,0.93423
395.47,45.173,-1.44761,0.32847,0.93268
398.37,45.45409,-1.45756,0.30164,0.93112
401.27,45.73576,-1.47206,0.28322,0.92953
404.17,46.01778,-1.48658,0.27515,0.92794
407.07,46.29953,-1.49925,0.26954,0.92632
409.97,46.58204,-1.51304,0.27103,0.92469
412.87,46.86399,-1.52831,0.27167,0.92305
415.77,47.14679,-1.54726,0.27593,0.92139
418.67,47.42942,-1.56693,0.2824,0.91971
421.57,47.71179,-1.58199,0.29029,0.91801
424.47,47.9955,-1.6068,0.30011,0.9163
427.37,48.27803,-1.63374,0.31735,0.91458
430.27,48.56125,-1.65201,0.32815,0.91284
433.17,48.84499,-1.67764,0.34057,0.91108
436.07,49.12839,-1.71021,0.35252,0.90931
438.97,49.41253,-1.74525,0.36509,0.90752
441.87,49.69656,-1.77311,0.37371,0.90571
444.77,49.98065,-1.80316,0.38211,0.90389
447.67,50.265,-1.84057,0.38913,0.90205
450.57,50.54938,-1.87389,0.39342,0.9002
453.47,50.83327,-1.91419,0.39813,0.89833
456.37,51.1177,-1.94579,0.39983,0.89644
459.27,51.40207,-1.98244,0.39457,0.89454
462.17,51.6863,-2.0095,0.37511,0.89262
465.07,51.9703,-2.04243,0.36428,0.89069
467.97,52.25499,-2.06443,0.35144,0.88874
470.87,52.5393,-2.09095,0.34608,0.88677
473.77,52.82362,-2.12287,0.34571,0.88479
476.67,53.1074,-2.13902,0.35765,0.88279
479.57,53.3919,-2.15654,0.38057,0.88077
482.47,53.67649,-2.17959,0.41686,0.87874
485.37,53.9621,-2.18909,0.44665,0.8767
488.27,54.24731,-2.20993,0.46826,0.87464
491.17,54.5333,-2.21913,0.47476,0.87256
494.07,54.8184,-2.23963,0.47365,0.87046
496.97,55.10408,-2.25211,0.45961,0.86835
499.87,55.38879,-2.26514,0.44273,0.86623
502.77,55.67507,-2.27539,0.42229,0.86409
505.67,55.96037,-2.28691,0.39684,0.86193
508.57,56.24646,-2.29795,0.37484,0.85976
511.47,56.53145,-2.30703,0.35153,0.85757
514.37,56.818,-2.31622,0.32977,0.85536
517.27,57.1044,-2.32246,0.30562,0.85315
520.17,57.39043,-2.32809,0.28764,0.85091
523.07,57.67709,-2.34051,0.26399,0.84866
525.97,57.96304,-2.33924,0.24423,0.84639
528.87,58.2496,-2.34716,0.22804,0.84411
531.77,58.53612,-2.3513,0.21731,0.84182
534.67,58.8231,-2.35596,0.20944,0.8395
537.57,59.11005,-2.35945,0.20397,0.83718
540.47,59.39656,-2.3613,0.20482,0.83483
543.37,59.6839,-2.36478,0.20307,0.83248
546.27,59.97204,-2.36537,0.20448,0.83011
549.17,60.2596,-2.37722,0.20839,0.82772
552.07,60.54715,-2.37827,0.20793,0.82532
554.97,60.83418,-2.3835,0.21613,0.8229
557.87,61.12185,-2.38357,0.22091,0.82047
560.77,61.409,-2.39173,0.22633,0.81802
563.67,61.69659,-2.3937,0.2383,0.81556
566.57,61.98415,-2.39941,0.25192,0.81309
569.47,62.27222,-2.40238,0.26634,0.8106
572.37,62.55964,-2.40895,0.27853,0.80809
575.27,62.8471,-2.41182,0.28986,0.80557
578.17,63.13468,-2.41752,0.28583,0.80304
581.07,63.422,-2.42278,0.26643,0.8005
583.97,63.7107,-2.431,0.2455,0.79793
586.87,63.99892,-2.43461,0.23236,0.79536
589.77,64.28665,-2.44002,0.2182,0.79277
592.67,64.5753,-2.44432,0.20674,0.79017
595.57,64.8635,-2.44601,0.1986,0.78756
598.47,65.15182,-2.45149,0.19422,0.78493
601.37,65.44111,-2.45342,0.1899,0.78228
604.27,65.7303,-2.46265,0.18844,0.77963
607.17,66.0192,-2.46397,0.18303,0.77696
610.07,66.3083,-2.46924,0.17957,0.77428
612.97,66.59699,-2.47053,0.17515,0.77158
615.87,66.88603,-2.47217,0.17082,0.76887
618.77,67.17479,-2.47676,0.16894,0.76615
621.67,67.46382,-2.47878,0.16099,0.76342
624.57,67.7532,-2.48568,0.155,0.76067
627.47,68.042,-2.48571,0.14767,0.75792
630.37,68.33118,-2.48669,0.13895,0.75515
633.27,68.6197,-2.48924,0.13088,0.75236
636.17,68.9078,-2.49329,0.12641,0.74957
639.07,69.1964,-2.49765,0.11402,0.74676
641.97,69.4846,-2.49429,0.1009,0.74394
644.87,69.77376,-2.50415,0.09443589,0.74111
647.77,70.0632,-2.5029,0.08364264,0.73827
650.67,70.35258,-2.49844,0.07383245,0.73542
653.57,70.64201,-2.5024,0.0707403,0.73255
656.47,70.93159,-2.50174,0.0686586,0.72967
659.37,71.22094,-2.50439,0.06612031,0.72679
662.27,71.51083,-2.51216,0.06666035,0.72389
665.17,71.79956,-2.50349,0.06407461,0.72098
668.07,72.09031,-2.50865,0.06248849,0.71806
670.97,72.3801,-2.5082,0.06456966,0.71513
673.87,72.6704,-2.5069,0.0629567,0.71219
676.77,72.96064,-2.50511,0.05869844,0.70924
679.67,73.25103,-2.5081,0.05904674,0.70628
682.57,73.5416,-2.51503,0.06632447,0.70331
685.47,73.83225,-2.51051,0.06818968,0.70033
688.37,74.12398,-2.51229,0.06681039,0.69734
691.27,74.41412,-2.52139,0.07076232,0.69434
694.17,74.7046,-2.51572,0.07344574,0.69133
697.07,74.9948,-2.51552,0.07601092,0.68831
699.97,75.286,-2.52248,0.08763039,0.68528
702.87,75.5763,-2.51937,0.08916577,0.68224
705.77,75.8669,-2.52149,0.09626815,0.6792
708.67,76.1574,-2.52195,0.09918127,0.67614
711.57,76.44788,-2.52232,0.10585,0.67308
714.47,76.73946,-2.52662,0.11187,0.67001
717.37,77.03073,-2.52852,0.1203,0.66693
720.27,77.32248,-2.53141,0.12514,0.66385
723.17,77.61418,-2.53319,0.13358,0.66075
726.07,77.90521,-2.5327,0.14029,0.65765
728.97,78.19589,-2.53772,0.15104,0.65454
731.87,78.48602,-2.53622,0.16093,0.65142
734.77,78.77679,-2.53621,0.16799,0.6483
737.67,79.06761,-2.53906,0.17487,0.64516
740.57,79.35916,-2.53926,0.19557,0.64202
743.47,79.6508,-2.54957,0.21135,0.63888
746.37,79.94282,-2.54856,0.28307,0.63573
746.87,79.9932,-2.54993,0.29622,0.63518

File: Rubber_Foam_Pipe_Insulation_STA_N2_10KData_220922_R4.csv
##Temp./Â°C,Time/min,Mass loss(subtr.2)/mg,DSC(subtr.2)/(mW/mg),Sensit./(uV/mW)
50.426,10.00917,-0.00044,-0.007320341,1.02682
53.426,11.44202,0.004199613,0.08879587,1.02656
56.426,11.9505,0.006701545,0.13529,1.02629
59.426,12.37819,-0.002323922,0.16445,1.02602
62.426,12.77196,0.00400774,0.17987,1.02574
65.426,13.14371,-0.00194363,0.19152,1.02546
68.426,13.50105,0.005937144,0.19581,1.02517
71.426,13.8486,-0.00220038,0.20001,1.02488
74.426,14.18649,-0.0009445086,0.20963,1.02458
77.426,14.5178,0.008875185,0.21285,1.02427
80.426,14.8431,0.002922523,0.21847,1.02395
83.426,15.16381,-0.0002557915,0.22592,1.02363
86.426,15.47815,-0.003019414,0.23452,1.02331
89.426,15.7888,-0.0007589054,0.23995,1.02297
92.426,16.0949,-0.000769995,0.24157,1.02263
95.426,16.39837,-0.004059521,0.24819,1.02228
98.426,16.69879,-0.00131822,0.25208,1.02193
101.426,16.99704,-0.00595524,0.25939,1.02157
104.426,17.29373,0.003047707,0.26226,1.0212
107.426,17.58911,-0.00625735,0.26619,1.02082
110.426,17.8837,-0.008449295,0.27032,1.02044
113.426,18.17764,-0.005818915,0.27541,1.02004
116.426,18.47099,-0.007130514,0.28239,1.01964
119.426,18.76321,-0.005819601,0.28546,1.01924
122.426,19.05474,-0.009756861,0.28107,1.01882
125.426,19.3458,-0.006580587,0.27957,1.0184
128.426,19.6358,-0.007845513,0.28037,1.01796
131.426,19.9248,-0.01146417,0.2834,1.01752
134.426,20.21327,-0.0148802,0.28844,1.01708
137.426,20.5015,-0.01053063,0.28832,1.01662
140.426,20.78878,-0.0177785,0.29147,1.01615
143.426,21.0762,-0.014492,0.29503,1.01568
146.426,21.3618,-0.01608416,0.29508,1.01519
149.426,21.6481,-0.01570489,0.29606,1.0147
152.426,21.93368,-0.02007796,0.29763,1.0142
155.426,22.21905,-0.02305641,0.30198,1.01369
158.426,22.50348,-0.02176008,0.30436,1.01317
161.426,22.78858,-0.02382915,0.31006,1.01264
164.426,23.07295,-0.02330314,0.31478,1.0121
167.426,23.3584,-0.02679001,0.32175,1.01155
170.426,23.64349,-0.03093629,0.33072,1.01099
173.426,23.92791,-0.03292838,0.33941,1.01042
176.426,24.21347,-0.03909208,0.35013,1.00984
179.426,24.49811,-0.03908,0.35973,1.00925
182.426,24.7834,-0.04371638,0.37398,1.00865
185.426,25.06833,-0.05072267,0.38493,1.00804
188.426,25.35274,-0.05599,0.39708,1.00742
191.426,25.63736,-0.05598246,0.40592,1.00679
194.426,25.9217,-0.06443873,0.41628,1.00614
197.426,26.20611,-0.07011993,0.4248,1.00549
200.426,26.49125,-0.08001929,0.43066,1.00483
203.426,26.7754,-0.08352845,0.43361,1.00415
206.426,27.05892,-0.09012948,0.43688,1.00346
209.426,27.3436,-0.09907085,0.43853,1.00276
212.426,27.62783,-0.10008,0.43751,1.00205
215.426,27.9121,-0.11329,0.44304,1.00133
218.426,28.19637,-0.12179,0.45258,1.0006
221.426,28.48123,-0.12977,0.47263,0.99985
224.426,28.76574,-0.13772,0.50401,0.9991
227.426,29.05136,-0.15568,0.54878,0.99833
230.426,29.33666,-0.16358,0.61118,0.99754
233.426,29.62193,-0.1834,0.69766,0.99675
236.426,29.9079,-0.19608,0.80014,0.99594
239.426,30.1935,-0.2212,0.92096,0.99512
242.426,30.47999,-0.25096,0.90217,0.99429
245.426,30.7642,-0.27749,0.64006,0.99345
248.426,31.04856,-0.30294,0.51229,0.99259
251.426,31.3334,-0.33765,0.55008,0.99172
254.426,31.6189,-0.37871,0.60366,0.99083
257.426,31.9038,-0.42479,0.60096,0.98994
260.426,32.18973,-0.48502,0.48828,0.98903
263.426,32.47376,-0.5699,0.03849491,0.9881
266.426,32.75609,-0.68789,-0.2493,0.98717
269.426,33.0411,-0.78365,0.22552,0.98621
272.426,33.32816,-0.83734,0.58343,0.98525
275.426,33.61568,-0.87036,0.6763,0.98427
278.426,33.9022,-0.90623,0.64765,0.98328
281.426,34.18742,-0.93027,0.57997,0.98227
284.426,34.47335,-0.95005,0.50877,0.98125
287.426,34.75912,-0.96499,0.45762,0.98021
290.426,35.04446,-0.98348,0.41714,0.97916
293.426,35.3311,-1.00396,0.39166,0.9781
296.426,35.61699,-1.0138,0.37087,0.97702
299.426,35.90399,-1.02825,0.35713,0.97593
302.426,36.19025,-1.04172,0.34396,0.97482
305.426,36.4777,-1.05503,0.33425,0.9737
308.426,36.76475,-1.06569,0.3262,0.97256
311.426,37.0527,-1.07686,0.32055,0.9714
314.426,37.33996,-1.09481,0.31956,0.97024
317.426,37.6277,-1.10132,0.31547,0.96905
320.426,37.915,-1.11371,0.31458,0.96785
323.426,38.2027,-1.12424,0.3077,0.96664
326.426,38.48986,-1.13721,0.30531,0.96541
329.426,38.77845,-1.15024,0.30262,0.96417
332.426,39.06668,-1.16052,0.30274,0.9629
335.426,39.35499,-1.17355,0.30107,0.96163
338.426,39.64383,-1.18621,0.29654,0.96034
341.426,39.93255,-1.19527,0.29461,0.95903
344.426,40.22156,-1.21017,0.29037,0.9577
347.426,40.51057,-1.22157,0.28578,0.95636
350.426,40.79994,-1.23048,0.28326,0.95501
353.426,41.08941,-1.24374,0.27963,0.95364
356.426,41.3786,-1.25702,0.27434,0.95225
359.426,41.66843,-1.26852,0.2686,0.95084
362.426,41.95816,-1.28119,0.26334,0.94942
365.426,42.24794,-1.2939,0.26439,0.94799
368.426,42.53771,-1.30761,0.28611,0.94653
371.426,42.82825,-1.32273,0.36945,0.94506
374.426,43.12016,-1.34457,0.49987,0.94358
377.426,43.41193,-1.36623,0.55533,0.94207
380.426,43.7031,-1.39059,0.51754,0.94055
383.426,43.994,-1.41534,0.45632,0.93902
386.426,44.28459,-1.4322,0.39468,0.93747
389.426,44.57633,-1.45085,0.34248,0.9359
392.426,44.8673,-1.46543,0.29947,0.93431
395.426,45.15817,-1.48,0.26292,0.93271
398.426,45.44913,-1.49546,0.23876,0.93109
401.426,45.74022,-1.50995,0.22158,0.92945
404.426,46.03135,-1.52372,0.21331,0.92779
407.426,46.3224,-1.54077,0.20636,0.92612
410.426,46.61407,-1.55407,0.20581,0.92443
413.426,46.90647,-1.56941,0.20638,0.92273
416.426,47.19865,-1.58678,0.20672,0.92101
419.426,47.49088,-1.60775,0.21173,0.91927
422.426,47.78382,-1.62896,0.21688,0.91751
425.426,48.0773,-1.65812,0.22607,0.91574
428.426,48.37,-1.67977,0.23439,0.91395
431.426,48.6629,-1.70345,0.24571,0.91214
434.426,48.95612,-1.73135,0.25936,0.91031
437.426,49.24899,-1.76519,0.272,0.90847
440.426,49.54228,-1.79839,0.28781,0.90661
443.426,49.8358,-1.82965,0.29738,0.90474
446.426,50.1295,-1.86757,0.30805,0.90284
449.426,50.42268,-1.90074,0.31596,0.90093
452.426,50.71632,-1.9429,0.31947,0.899
455.426,51.0099,-1.97606,0.32661,0.89706
458.426,51.30385,-2.01362,0.3229,0.89509
461.426,51.598,-2.04892,0.30609,0.89311
464.426,51.89203,-2.08218,0.28474,0.89112
467.426,52.18605,-2.1077,0.26703,0.8891
470.426,52.4809,-2.13761,0.25581,0.88707
473.426,52.7755,-2.16133,0.24779,0.88502
476.426,53.0702,-2.17985,0.25209,0.88296
479.426,53.36456,-2.1967,0.26732,0.88088
482.426,53.6582,-2.2151,0.29576,0.87878
485.426,53.95293,-2.23091,0.33456,0.87666
488.426,54.2477,-2.25247,0.36733,0.87452
491.426,54.5423,-2.26695,0.38837,0.87237
494.426,54.83706,-2.28507,0.39616,0.87021
497.426,55.13234,-2.29836,0.38512,0.86802
500.426,55.42795,-2.31296,0.36305,0.86582
503.426,55.72356,-2.3257,0.33554,0.8636
506.426,56.0189,-2.33872,0.30588,0.86136
509.426,56.31531,-2.35075,0.27711,0.85911
512.426,56.61045,-2.35676,0.25098,0.85684
515.426,56.9065,-2.36939,0.22666,0.85456
518.426,57.2028,-2.37671,0.20001,0.85226
521.426,57.49834,-2.38746,0.17998,0.84994
524.426,57.7948,-2.39008,0.15896,0.8476
527.426,58.0916,-2.39493,0.13878,0.84525
530.426,58.3886,-2.39942,0.12391,0.84288
533.426,58.68518,-2.40338,0.10807,0.8405
536.426,58.9817,-2.40959,0.10422,0.8381
539.426,59.27887,-2.41357,0.10187,0.83568
542.426,59.57646,-2.42028,0.0975258,0.83325
545.426,59.87384,-2.42226,0.09925204,0.8308
548.426,60.1716,-2.42415,0.09700875,0.82833
551.426,60.4684,-2.43663,0.09896961,0.82585
554.426,60.7652,-2.43263,0.09860361,0.82335
557.426,61.06134,-2.43677,0.10736,0.82084
560.426,61.35836,-2.44922,0.11436,0.81831
563.426,61.6553,-2.45252,0.12336,0.81577
566.426,61.953,-2.45564,0.13693,0.81321
569.426,62.2506,-2.45815,0.15228,0.81063
572.426,62.5485,-2.46414,0.16305,0.80804
575.426,62.84616,-2.46582,0.17342,0.80544
578.426,63.14416,-2.4727,0.17453,0.80282
581.426,63.44246,-2.48491,0.16255,0.80018
584.426,63.74058,-2.48697,0.13902,0.79753
587.426,64.0386,-2.49027,0.11882,0.79487
590.426,64.33671,-2.49372,0.1024,0.79219
593.426,64.63502,-2.50076,0.09077242,0.78949
596.426,64.93338,-2.50598,0.07687054,0.78678
599.426,65.2316,-2.51123,0.06386323,0.78406
602.426,65.53069,-2.5115,0.05573125,0.78132
605.426,65.82902,-2.51513,0.04176575,0.77857
608.426,66.1273,-2.51776,0.03243245,0.7758
611.426,66.42589,-2.52436,0.02683342,0.77302
614.426,66.72492,-2.52722,0.01960383,0.77022
617.426,67.02333,-2.53003,0.01052033,0.76742
620.426,67.3225,-2.53195,0.0009049652,0.76459
623.426,67.62141,-2.53589,-0.00811407,0.76176
626.426,67.91996,-2.53457,-0.01950808,0.75891
629.426,68.21936,-2.5438,-0.02810366,0.75605
632.426,68.51847,-2.54279,-0.04059291,0.75317
635.426,68.81659,-2.54542,-0.05302279,0.75029
638.426,69.1151,-2.54675,-0.06369101,0.74738
641.426,69.41345,-2.5451,-0.07269712,0.74447
644.426,69.712,-2.54624,-0.08002921,0.74155
647.426,70.01093,-2.54906,-0.08376778,0.73861
650.426,70.3105,-2.5539,-0.09303228,0.73566
653.426,70.61041,-2.55257,-0.09416601,0.73269
656.426,70.91073,-2.55123,-0.09780431,0.72972
659.426,71.21081,-2.55828,-0.09688069,0.72673
662.426,71.51111,-2.5589,-0.09656094,0.72373
665.426,71.81147,-2.55575,-0.0959823,0.72072
668.426,72.11147,-2.55739,-0.09429932,0.7177
671.426,72.41196,-2.55695,-0.09508202,0.71467
674.426,72.71231,-2.55684,-0.09570842,0.71162
677.426,73.01241,-2.56684,-0.09377667,0.70857
680.426,73.31226,-2.56,-0.09409509,0.7055
683.426,73.61291,-2.56964,-0.09181267,0.70243
686.426,73.91362,-2.56304,-0.09092367,0.69934
689.426,74.21464,-2.56255,-0.08745344,0.69624
692.426,74.5146,-2.56684,-0.08303971,0.69314
695.426,74.81459,-2.56823,-0.08431829,0.69002
698.426,75.11426,-2.56684,-0.08467439,0.68689
701.426,75.4143,-2.56852,-0.07836403,0.68376
704.426,75.7146,-2.56703,-0.07154704,0.68061
707.426,76.01531,-2.57357,-0.06441856,0.67746
710.426,76.31663,-2.57672,-0.05905461,0.67429
713.426,76.61786,-2.57057,-0.05800167,0.67112
716.426,76.91894,-2.57979,-0.05432896,0.66794
719.426,77.2202,-2.57854,-0.05269075,0.66474
722.426,77.5214,-2.57772,-0.04791177,0.66154
725.426,77.82231,-2.58177,-0.04740806,0.65834
728.426,78.12402,-2.58277,-0.04297412,0.65512
731.426,78.4249,-2.58492,-0.03261818,0.6519
734.426,78.72515,-2.58648,-0.02924268,0.64867
737.426,79.02617,-2.59055,-0.03098276,0.64543
740.426,79.32732,-2.58452,-0.0272346,0.64218
743.426,79.62923,-2.59802,-0.02352286,0.63893
746.426,79.9307,-2.58756,-0.01456115,0.63567
747.026,79.99149,-2.59066,-0.01307795,0.63501