Folder: fsri_materials_database/01_Data/Window_Screen/Cone (part 2)

File: Window_Screen_Cone_HF25Scan_220524_R3.csv
Names,Time,Stack TC,Smoke TC,Exh Press,Smoke Comp,Smoke Meas,CO Meter,CO2 Meter,O2 Meter,Sample Mass,Ext Coeff,Start Test,Flame Verif
Chan Gain,,500,500,1,1,1,1,1,1,1,1,1.0,1.0
Offset,,0,0,0.13752,0,0,0,0,0,0,0,0.0,0.0
Gain,,1,1,25.011,13.8491,15.2622,1,1,1,1.00087,1.03118,1.0,1.0
Units,sec,C,C,Pa,%,%,%,%,%,g,/m,,
Baseline,,24.6693,25.3352,143.048,105.227,105.042,0.000494231,0.0428335,21.0035,-450.259,0.0159878,,
6,1.25,22.3977,23.1597,144.505,105.092,104.45,0.00229746,0.0490712,20.986,553.302,0.0554958,0.0,0.0
12,2.75,22.4509,22.9892,137.519,105.075,88.6257,0.00477235,0.0663587,20.9492,553.001,1.53998,0.0,1.0
18,4.25,22.5139,23.0172,133.885,105.063,94.4874,0.0067585,0.0910135,20.9179,553.001,0.959692,0.0,1.0
24,5.75,22.7987,23.4948,137.866,105.023,84.2541,0.0079142,0.108151,20.9012,552.841,1.99315,0.0,1.0
30,7.25,23.4873,23.0451,136.547,104.997,98.186,0.00775141,0.113801,20.8931,552.901,0.606689,0.0,1.0
36,8.75,22.2489,21.7687,139.103,104.975,101.519,0.00670492,0.104824,20.9096,552.851,0.302757,0.0,0.0
42,10.25,22.3857,21.9724,141.883,104.957,103.27,0.00518085,0.0891971,20.935,552.881,0.146599,0.0,0.0
48,11.75,21.0918,20.9232,144.398,104.92,104.179,0.0038459,0.075349,20.9544,552.851,0.0641029,0.0,0.0
54,13.25,21.2695,20.8898,141.584,104.901,104.416,0.00282319,0.064514,20.968,552.931,0.0419822,0.0,0.0
60,14.75,20.6124,20.6048,141.186,104.865,104.443,0.00214845,0.0572346,20.9786,552.921,0.0364712,0.0,0.0
66,16.25,20.6198,20.7732,143.75,104.864,104.241,0.00162091,0.0526135,20.9858,552.951,0.0538785,0.0,0.0
72,17.75,20.2744,20.4445,137.266,104.846,104.224,0.00120369,0.0498368,20.9903,552.871,0.0538463,0.0,0.0
78,19.25,20.5475,21.1884,143.983,104.83,104.227,0.000908945,0.0483815,20.9931,552.861,0.0521375,0.0,0.0
84,20.75,20.8618,21.1503,140.001,104.813,104.48,0.000730186,0.0476217,20.9945,552.841,0.0287558,0.0,0.0
90,22.25,20.8781,20.6077,144.643,104.805,104.272,0.000608323,0.0471561,20.9953,552.901,0.0461425,0.0,0.0
96,23.75,21.088,21.0637,140.922,104.801,104.229,0.000522099,0.0466651,20.9966,552.881,0.0494998,0.0,0.0
102,25.25,20.4732,21.4393,144.278,104.803,104.381,0.000507073,0.0461293,20.9977,552.871,0.0364744,0.0,0.0
108,26.75,20.8614,21.352,143.24,104.799,104.251,0.000582545,0.045581,20.9991,552.851,0.0474544,0.0,0.0
114,28.25,20.6951,21.0886,141.053,104.797,104.109,0.000686482,0.0450098,20.9999,552.821,0.0595696,0.0,0.0
120,29.75,20.7117,21.3845,147.029,104.81,104.197,0.000744139,0.0445253,21.0003,552.821,0.0530874,0.0,0.0
126,31.25,20.7125,20.9981,145.356,104.819,104.18,0.000715642,0.0442194,21.0005,552.821,0.0553094,0.0,0.0
132,32.75,20.7314,21.1416,144.051,104.841,104.316,0.000657613,0.0439675,21.0012,552.781,0.0454054,0.0,0.0
138,34.25,20.2527,21.0093,142.106,104.856,104.126,0.000639961,0.0437677,21.0021,552.801,0.0631735,0.0,0.0
144,35.75,19.9813,21.0495,141.086,104.882,104.412,0.000698076,0.0435678,21.0025,552.781,0.0406254,0.0,0.0
150,37.25,20.4456,20.3301,143.941,104.883,104.413,0.000802613,0.0433522,21.0027,552.801,0.0405804,0.0,0.0
156,38.75,20.3845,20.8099,143.292,104.917,104.466,0.000868768,0.0432271,21.0029,552.791,0.0388981,0.0,0.0
162,40.25,20.4241,20.883,138.695,104.928,104.633,0.000866719,0.043199,21.0029,552.771,0.0254961,0.0,0.0
168,41.75,20.1633,21.2343,144.26,104.95,104.398,0.000773112,0.0431381,21.003,552.791,0.0476658,0.0,0.0
174,43.25,20.4571,21.4474,142.728,104.971,104.632,0.000685842,0.0431732,21.003,552.801,0.0292147,0.0,0.0
180,44.75,20.0496,20.7608,145.262,105.001,104.461,0.000666897,0.0432113,21.003,552.791,0.0466263,0.0,0.0
186,46.25,20.3358,20.9344,144.371,105.013,104.771,0.000699254,0.0432458,21.003,552.871,0.0208283,0.0,0.0
192,47.75,20.2234,21.0879,141.942,105.046,105.142,0.00070777,0.0432641,21.003,552.881,-0.00821178,0.0,0.0
198,49.25,20.0355,21.2464,145.547,105.07,104.605,0.000643304,0.0431998,21.0022,552.831,0.0401821,0.0,0.0
204,50.75,20.0282,20.6983,142.196,105.078,104.603,0.000490864,0.0432269,21.0012,552.841,0.0409206,0.0,0.0
210,52.25,20.2138,21.2878,145.289,105.086,104.64,0.000346261,0.0432396,21.0006,552.861,0.0384675,0.0,0.0
216,53.75,20.2228,20.8883,143.557,105.108,104.645,0.000218268,0.0432499,21.0002,552.851,0.0399921,0.0,0.0
222,55.25,20.502,21.4027,139.385,105.132,104.629,0.000146698,0.043235,21.0001,552.871,0.0433613,0.0,0.0
228,56.75,19.9744,20.8193,144.545,105.131,104.495,0.000175959,0.0432228,21.0006,552.851,0.0548892,0.0,0.0
234,58.25,20.1546,20.7305,142.902,105.132,104.627,0.000326451,0.0432163,21.0013,552.871,0.0435223,0.0,0.0
240,59.75,19.7871,20.4848,142.438,105.141,104.499,0.000464964,0.043132,21.0017,552.861,0.0554798,0.0,0.0
246,61.25,19.7746,20.4525,141.146,105.135,104.801,0.000630956,0.0430283,21.0019,552.871,0.0287697,0.0,0.0
252,62.75,19.6734,20.9667,141.868,105.13,104.435,0.000805028,0.0428777,21.0028,552.861,0.0599466,0.0,0.0
258,64.25,20.0031,20.9361,145.898,105.128,104.703,0.00091578,0.0427713,21.0034,552.831,0.0367107,0.0,0.0
264,65.75,19.714,21.0634,146.152,105.111,104.93,0.000904302,0.042898,21.0037,552.821,0.0156015,0.0,0.0
270,67.25,20.0509,20.9975,143.929,105.111,104.782,0.00083117,0.0429692,21.0038,552.831,0.0283054,0.0,0.0
276,68.75,20.3894,20.8163,141.917,105.096,104.825,0.000776479,0.0429471,21.0039,552.831,0.0233712,0.0,0.0
282,70.25,19.9656,20.5553,142.777,105.095,104.805,0.00079716,0.0430235,21.004,552.841,0.0250295,0.0,0.0
288,71.75,20.5726,20.723,143.355,105.064,104.586,0.000765936,0.0430911,21.0036,552.831,0.0412512,0.0,0.0
294,73.25,20.5732,20.871,140.474,105.065,104.604,0.000658905,0.0432188,21.0027,552.851,0.0397859,0.0,0.0
300,74.75,19.8655,20.5418,143.884,105.016,104.356,0.000557924,0.0433644,21.0022,552.871,0.0570165,0.0,0.0
306,76.25,20.3353,20.8155,141.874,104.993,104.893,0.000547691,0.0435406,21.002,552.851,0.00866111,0.0,0.0
312,77.75,19.8098,20.6807,144.329,104.985,104.459,0.000573664,0.0436736,21.0027,552.831,0.0453679,0.0,0.0
318,79.25,20.433,21.0134,140.853,104.955,104.181,0.000565852,0.043737,21.0029,552.841,0.0670051,0.0,0.0
324,80.75,20.0995,20.7347,138.742,104.931,104.71,0.000557964,0.0436913,21.0028,552.851,0.01911,0.0,0.0
330,82.25,20.3321,20.7424,142.574,104.918,104.599,0.000577246,0.0436917,21.003,552.821,0.027597,0.0,0.0
336,83.75,20.7005,20.8022,142.43,104.892,104.512,0.000603635,0.0437302,21.0028,552.831,0.0328319,0.0,0.0
342,85.25,20.5581,20.9607,139.229,104.886,104.366,0.000630037,0.0437448,21.0016,552.871,0.0449494,0.0,0.0
348,86.75,19.9907,21.3476,142.709,104.854,104.355,0.000654371,0.0438103,21.0012,552.831,0.0431842,0.0,0.0
354,88.25,20.2365,21.0251,138.762,104.855,104.732,0.000651255,0.0437464,21.001,552.841,0.010614,0.0,0.0
360,89.75,19.7628,20.5608,143.32,104.818,104.684,0.000592346,0.0437276,21.0013,552.831,0.0115897,0.0,0.0
366,91.25,20.2464,21.3463,141.626,104.806,104.378,0.000543425,0.0437339,21.0011,552.821,0.0370479,0.0,0.0
372,92.75,20.2245,20.9873,145.787,104.795,104.517,0.000528799,0.0436774,21.0007,552.811,0.0240433,0.0,0.0
378,94.25,20.4456,21.0913,142.014,104.784,104.927,0.000519559,0.0437402,21,552.811,-0.0123491,0.0,0.0
384,95.75,20.4022,21.1527,144.292,104.76,104.574,0.000486325,0.0439157,20.9993,552.771,0.0160536,0.0,0.0
390,97.25,20.1386,20.7647,141.348,104.751,104.274,0.00046197,0.0440398,20.999,552.801,0.0413103,0.0,0.0
396,98.75,20.5422,20.8294,141.015,104.74,104.184,0.000473823,0.0440629,20.9988,552.771,0.0481634,0.0,0.0
402,100.25,20.6015,20.4359,143.255,104.73,104.496,0.000495595,0.044019,20.9987,552.801,0.0202731,0.0,0.0
408,101.75,20.3669,21.3741,140.074,104.731,104.123,0.000520529,0.0439263,20.9986,552.741,0.0526993,0.0,0.0
414,103.25,20.1898,21.8045,146.185,104.715,104.453,0.000518307,0.0439192,20.9986,552.751,0.0226699,0.0,0.0
420,104.75,19.5303,20.8588,142.432,104.72,104.302,0.000470974,0.0438388,20.9986,552.791,0.0362221,0.0,0.0
426,106.25,19.9481,21.0407,142.624,104.711,104.182,0.000391527,0.0435331,20.9986,552.781,0.0458099,0.0,0.0
432,107.75,20.2545,21.4304,144.389,104.724,104.375,0.000348042,0.0434315,20.9995,552.811,0.0302519,0.0,0.0
438,109.25,20.4675,20.94,141.541,104.731,104.19,0.000366271,0.0434281,21.0004,552.791,0.0468741,0.0,0.0
444,110.75,20.4283,21.074,141.064,104.72,104.632,0.000392986,0.0433662,21.0009,552.771,0.00766889,0.0,0.0
450,112.25,20.2926,20.9703,145.149,104.723,104.316,0.00041157,0.0433209,21.0011,552.761,0.0351523,0.0,0.0
456,113.75,20.5918,21.2526,141.082,104.751,104.476,0.000398986,0.0431947,21.0015,552.781,0.023796,0.0,0.0
462,115.25,20.2752,20.9104,143.628,104.735,103.919,0.000335779,0.0431413,21.0019,552.781,0.070804,0.0,0.0
468,116.75,20.3938,21.0456,143.083,104.739,104.286,0.00024299,0.0431129,21.002,552.771,0.0392427,0.0,0.0
474,118.25,20.6159,21.336,143.126,104.749,104.424,0.000225492,0.0431016,21.0021,552.771,0.0280872,0.0,0.0
480,119.75,20.9642,21.3956,145.723,104.745,104.378,,0.0430428,,552.781,0.0317166,0.0,0.0
486,121.25,21.1794,20.9698,139.283,104.73,104.659,,0.0429545,,552.801,0.00613671,0.0,0.0
492,122.75,20.798,21.3099,143.823,104.736,104.641,,,,552.791,0.00821403,0.0,0.0
498,124.25,20.9708,21.2837,146.787,104.725,104.546,,,,552.801,0.0154831,0.0,0.0
504,125.75,21.1595,21.483,139.776,104.731,104.492,,,,552.781,0.0206658,0.0,0.0
510,127.25,20.8101,21.24,145.166,104.745,104.149,,,,552.801,0.0516347,0.0,0.0
516,128.75,20.8343,21.6499,141.24,104.755,104.325,,,,552.771,0.0371585,0.0,0.0
522,130.25,20.6529,21.6903,140.513,104.773,104.221,,,,552.801,0.0477387,0.0,0.0

File: Window_Screen_Cone_HF25Scan_220524_R4.csv
Names,Time,Stack TC,Smoke TC,Exh Press,Smoke Comp,Smoke Meas,CO Meter,CO2 Meter,O2 Meter,Sample Mass,Ext Coeff,Start Test,Flame Verif
Chan Gain,,500,500,1,1,1,1,1,1,1,1,1.0,1.0
Offset,,0,0,0.13752,0,0,0,0,0,0,0,0.0,0.0
Gain,,1,1,25.011,13.8491,15.2622,1,1,1,1.00087,1.03118,1.0,1.0
Units,sec,C,C,Pa,%,%,%,%,%,g,/m,,
Baseline,,24.2929,24.9291,142.975,104.522,104.378,0.000618374,0.0429603,21.0016,-450.233,0.0125314,,
6,1.25,19.9762,20.6927,142.76,105.193,105.008,0.00234208,0.0530253,20.9886,570.407,0.0159556,0.0,0.0
12,2.75,20.2263,20.906,137.287,105.205,94.0738,0.00418945,0.0673832,20.9745,570.337,1.01155,0.0,0.0
18,4.25,19.9784,20.8529,135.565,105.197,96.9946,0.00676337,0.0856072,20.9385,570.146,0.734291,0.0,1.0
24,5.75,20.5412,20.929,134.692,105.207,89.7855,0.00828457,0.10919,20.9083,570.146,1.43373,0.0,1.0
30,7.25,21.4823,21.5871,138.243,105.209,87.3882,0.00840731,0.121896,20.8922,570.056,1.67878,0.0,1.0
36,8.75,20.772,20.4682,142.907,105.209,101.406,0.00747424,0.120794,20.8959,570.196,0.333005,0.0,1.0
42,10.25,20.4554,20.8441,140.314,105.214,103.83,0.00578068,0.105995,20.9155,570.046,0.119772,0.0,0.0
48,11.75,19.7066,20.3232,154.381,105.226,104.563,0.00426988,0.0905781,20.9385,570.106,0.0572233,0.0,0.0
54,13.25,19.5701,19.9694,143.85,105.208,104.913,0.00308539,0.0772202,20.9588,570.056,0.0253746,0.0,0.0
60,14.75,19.4102,19.8202,142.814,105.221,105.09,0.0022102,0.0670592,20.9734,570.076,0.0112516,0.0,0.0
66,16.25,19.3607,19.4381,141.588,105.219,105.105,0.00159613,0.0600617,20.9816,570.046,0.00978679,0.0,0.0
72,17.75,19.495,20.0704,143.619,105.207,105,0.00116369,0.0551951,20.9876,570.036,0.0178725,0.0,0.0
78,19.25,19.0467,19.516,147.391,105.193,104.99,0.000910291,0.0519679,20.9913,570.066,0.0174399,0.0,0.0
84,20.75,19.2297,19.2753,140.947,105.183,104.368,0.000835119,0.0502934,20.9939,570.076,0.0703739,0.0,0.0
90,22.25,19.4423,20.1073,143.42,105.176,104.594,0.000863574,0.0496483,20.9958,570.076,0.0502365,0.0,0.0
96,23.75,18.9086,19.3688,142.135,105.162,104.742,0.000907636,0.0492598,20.9967,570.066,0.0362403,0.0,0.0
102,25.25,18.895,19.7394,143.625,105.151,104.799,0.000934284,0.0485752,20.9972,570.066,0.0302723,0.0,0.0
108,26.75,19.3782,19.7365,139.354,105.134,105.119,0.000951887,0.0476774,20.9975,570.066,0.0012777,0.0,0.0
114,28.25,19.0749,19.7749,144.694,105.141,104.783,0.000915136,0.0469752,20.9983,570.066,0.0309203,0.0,0.0
120,29.75,18.9728,19.7488,139.725,105.133,104.832,0.000855622,0.0463697,20.9991,570.036,0.0259359,0.0,0.0
126,31.25,19.1033,19.278,140.916,105.104,104.934,0.000822575,0.0461246,20.9996,570.026,0.0146617,0.0,0.0
132,32.75,18.8699,19.6748,141.632,105.108,104.769,0.000785717,0.0459838,20.9998,570.036,0.02929,0.0,0.0
138,34.25,18.9134,19.1838,142.686,105.114,104.844,0.000692378,0.0460679,21,570.046,0.0232141,0.0,0.0
144,35.75,18.9666,19.7199,142.729,105.076,104.666,0.000569684,0.0462946,20.999,570.026,0.0354165,0.0,0.0
150,37.25,18.7449,19.4254,141.571,105.08,104.788,0.000479697,0.04666,20.9984,570.046,0.0252047,0.0,0.0
156,38.75,18.8086,19.858,144.378,105.041,104.585,0.000433867,0.0469201,20.9982,570.056,0.0393264,0.0,0.0
162,40.25,18.8309,19.4977,142.504,105.043,104.587,0.000428612,0.0468549,20.9985,570.056,0.039306,0.0,0.0
168,41.75,18.8638,19.365,143.07,104.999,105.352,0.000499293,0.0464145,20.9989,570.046,-0.0303426,0.0,0.0
174,43.25,18.7037,19.2932,141.538,104.993,104.694,0.00063439,0.0458647,20.9991,570.036,0.0258671,0.0,0.0
180,44.75,18.9722,19.2987,139.952,104.963,104.756,0.000737171,0.0452468,21.0001,570.056,0.0178553,0.0,0.0
186,46.25,18.6274,19.3793,139.436,104.947,104.954,0.000751195,0.0446441,21.0008,570.046,-0.000645928,0.0,0.0
192,47.75,18.7893,19.4319,145.604,104.903,104.563,0.000696415,0.0442314,21.0011,570.066,0.0294233,0.0,0.0
198,49.25,18.885,19.9968,141.054,104.895,105.008,0.000656695,0.0437795,21.0021,570.056,-0.00966624,0.0,0.0
204,50.75,19.1209,19.6555,143.85,104.845,104.523,0.000655002,0.0433928,21.0032,570.066,0.0278227,0.0,0.0
210,52.25,19.0636,20.0007,143.979,104.828,104.213,0.000645609,0.0429894,21.0041,570.056,0.0532042,0.0,0.0
216,53.75,18.4702,19.426,143.552,104.799,104.642,0.000597428,0.0426784,21.0054,570.056,0.0136475,0.0,0.0
222,55.25,18.5783,19.5232,145.546,104.771,104.574,0.000456876,0.0424071,21.0061,570.066,0.0170427,0.0,0.0
228,56.75,18.7842,19.4299,142.79,104.761,104.483,0.000318846,0.0423073,21.0064,570.106,0.024067,0.0,0.0
234,58.25,18.154,19.1599,141.256,104.726,104.798,0.000245723,0.0423601,21.0066,570.066,-0.00622396,0.0,0.0
240,59.75,18.4556,19.156,141.553,104.713,104.555,0.000238516,0.0422706,21.0068,570.096,0.0136174,0.0,0.0
246,61.25,18.5503,19.0289,143.3,104.708,104.28,0.000285365,0.0422276,21.0065,570.096,0.0370254,0.0,0.0
252,62.75,18.6136,19.481,145.621,104.71,104.418,0.000348185,0.0423242,21.0062,570.046,0.025294,0.0,0.0
258,64.25,19.0064,19.5518,142.484,104.694,104.345,0.000433968,0.042376,21.0062,570.076,0.0302433,0.0,0.0
264,65.75,18.5084,19.5172,140.529,104.689,104.431,0.000537937,0.0424219,21.0059,569.986,0.0223386,0.0,0.0
270,67.25,18.362,19.2797,143.714,104.695,104.594,0.000567893,0.0424918,21.005,570.016,0.0087042,0.0,0.0
276,68.75,18.2675,19.284,141.516,104.7,104.37,0.000544753,0.0425181,21.0044,569.996,0.0285741,0.0,0.0
282,70.25,18.8934,19.1228,138.74,104.696,104.843,0.000493276,0.0424977,21.0041,570.056,-0.0127108,0.0,0.0
288,71.75,18.4072,19.5526,142.415,104.726,104.228,0.000454504,0.0425407,21.0039,570.046,0.0430447,0.0,0.0
294,73.25,20.4804,20.8343,143.146,104.73,104.383,0.000418473,0.0425261,21.0038,570.036,0.0300756,0.0,0.0
300,74.75,20.6212,21.2517,143.81,104.759,104.536,0.000440284,0.0425683,21.0038,570.026,0.0192122,0.0,0.0
306,76.25,21.0082,21.1768,142.561,104.772,104.691,0.000530471,0.0426578,21.0037,570.006,0.0070095,0.0,0.0
312,77.75,19.741,20.5038,142.04,104.793,104.513,0.000645985,0.0426556,21.0037,570.076,0.0241788,0.0,0.0
318,79.25,20.3589,20.6217,142.954,104.8,104.502,0.000724354,0.0426654,21.0037,570.046,0.0258069,0.0,0.0
324,80.75,20.0806,20.2903,143.904,104.828,104.67,0.000765433,0.042707,21.0037,570.006,0.0136357,0.0,0.0
330,82.25,20.2499,20.3882,142.67,104.821,104.7,0.000802786,0.0428006,21.0036,570.016,0.0104363,0.0,0.0
336,83.75,20.1455,20.7365,139.794,104.848,104.761,0.000811643,0.0428227,21.0037,570.056,0.00750405,0.0,0.0
342,85.25,20.2427,20.624,142.494,104.878,104.696,0.000822193,0.042809,21.0033,570.046,0.0156445,0.0,0.0
348,86.75,19.9388,20.6346,143.746,104.878,104.506,0.00083222,0.04284,21.0031,570.036,0.0321539,0.0,0.0
354,88.25,19.9476,20.3002,139.815,104.88,104.846,0.000783743,0.0429543,21.003,570.036,0.0029185,0.0,0.0
360,89.75,20.0727,20.9523,139.321,104.914,104.787,0.000701661,0.043047,21.0029,570.026,0.010935,0.0,0.0
366,91.25,20.4225,20.8934,145.659,104.947,104.494,0.000652509,0.0430737,21.0029,570.016,0.0391375,0.0,0.0
372,92.75,20.0866,20.8189,140.784,104.977,104.491,0.000639223,0.0430679,21.003,570.026,0.0420101,0.0,0.0
378,94.25,20.0753,20.7589,143.844,105.011,104.88,0.000631887,0.0430649,21.0034,570.026,0.0113184,0.0,0.0
384,95.75,20.4566,20.6769,141.847,105.03,104.492,0.000590809,0.0430459,21.0035,570.046,0.0464364,0.0,0.0
390,97.25,20.3788,20.2633,141.687,105.06,104.376,0.000570533,0.0430887,21.0036,570.016,0.0590693,0.0,0.0
396,98.75,20.5207,20.8275,141.801,105.064,104.587,0.000575168,0.0430851,21.0037,570.036,0.0411707,0.0,0.0
402,100.25,20.4546,21.0622,140.936,105.091,105.001,0.000574231,0.0431925,21.0037,570.066,0.00779387,0.0,0.0
408,101.75,20.2883,20.7076,143.239,105.103,105.054,0.000563106,0.0433619,21.0037,570.016,0.00427663,0.0,0.0
414,103.25,19.9933,20.7453,144.305,105.132,104.962,0.000533324,0.0434647,21.0037,569.976,0.0146531,0.0,0.0
420,104.75,19.9221,20.378,145.713,105.127,105.701,0.000488527,0.0434405,21.0037,570.016,-0.0492571,0.0,0.0
426,106.25,20.3634,20.292,143.555,105.147,105.039,0.000446002,0.0434486,21.0026,569.976,0.00934192,0.0,0.0
432,107.75,20.3098,21.1253,144.791,105.141,104.83,0.00042779,0.0433427,21.0021,569.996,0.026824,0.0,0.0
438,109.25,20.4913,20.3349,143.779,105.159,105.231,0.000447689,0.0432464,21.0018,570.026,-0.00618727,0.0,0.0
444,110.75,20.2851,20.513,143.667,105.13,105.08,0.000482043,0.0432906,21.0016,570.036,0.00428201,0.0,0.0
450,112.25,20.2048,20.8033,143.688,105.125,105.294,0.000495958,0.0433921,21.0015,570.036,-0.0145354,0.0,0.0
456,113.75,20.125,20.8419,145.769,105.097,105.161,0.000494324,0.043464,21.0015,570.016,-0.00545194,0.0,0.0
462,115.25,19.8831,20.7096,142.341,105.079,104.698,0.000517072,0.0434454,21.0015,570.006,0.0328544,0.0,0.0
468,116.75,20.3377,21.0409,144.164,105.044,104.343,0.000565839,0.0434354,21.0014,570.006,0.0605122,0.0,0.0
474,118.25,19.9001,20.7417,142.673,104.996,105.084,0.000643371,0.0434885,21.0019,570.016,-0.00749679,0.0,0.0
480,119.75,20.1721,20.8571,142.731,104.943,104.689,,0.0435005,,570.006,0.0219363,0.0,0.0
486,121.25,20.6056,20.7651,141.661,104.865,104.6,,0.0433997,,570.026,0.0229603,0.0,0.0
492,122.75,20.8073,20.9303,142.97,104.783,104.749,,,,570.016,0.00292928,0.0,0.0
498,124.25,20.0222,21.0232,145.795,104.701,104.558,,,,569.976,0.0124308,0.0,0.0
504,125.75,19.8876,20.477,142.851,104.605,104.253,,,,569.916,0.0304926,0.0,0.0
510,127.25,20.2082,20.8188,141.587,104.484,104.178,,,,569.926,0.0265832,0.0,0.0
516,128.75,19.8936,20.8628,142.482,104.361,104.014,,,,569.916,0.0301756,0.0,0.0
522,130.25,19.6934,20.775,144.507,104.268,104.043,,,,569.916,0.0195652,0.0,0.0
523,130.5,19.9945,20.4791,142.004,104.266,104.066,,,,569.916,0.0173581,0.0,0.0

File: Window_Screen_Cone_HF50Scalar_220524_R1.csv
LABORATORY,FSRI
TEST IDENT,Window_Screen_50_1
OPERATOR,Dow
MATERIAL,Window Screen
ORIENTATION,Horizontal
HEAT FLUX,50
SURF AREA,0.00884
C FACTOR,0.0419572
SPEC HOLDER DIFF,-566
SPECIMEN MASS,0.97
SCAN TIME,0.25
O2 DELAY TIME,11
CO DELAY TIME,11
CO2 DELAY TIME,8
FLOW FACTOR,1
SCAN COUNT,509
TIME TO IGN,1
END OF TEST SCAN,29
END OF TEST TIME,7.25
TEST STATUS,1
PRE TEST CMT,Dimensions: 100 x 103 x 0.21 mm; with frame; with calcium silicate substrate
POST TEST CMT,"Flame extinguished before software acknowledged ""flame verify"". "

File: Window_Screen_Cone_HF50Scalar_220524_R3.csv
LABORATORY,FSRI
TEST IDENT,Window_Screen_50_3
OPERATOR,Dow
MATERIAL,Window Screen
ORIENTATION,Horizontal
HEAT FLUX,50
SURF AREA,0.00884
C FACTOR,0.0419572
SPEC HOLDER DIFF,-566
SPECIMEN MASS,0.94
SCAN TIME,0.25
O2 DELAY TIME,11
CO DELAY TIME,11
CO2 DELAY TIME,8
FLOW FACTOR,1
SCAN COUNT,511
TIME TO IGN,1.25
END OF TEST SCAN,31
END OF TEST TIME,7.75
TEST STATUS,1
PRE TEST CMT,Dimensions: 101 x 102 x 0.22 mm; with frame; with calcium silicate substrate
POST TEST CMT,"Flame extinguished before software acknowledged ""flame verify"". "