Folder: fsri_materials_database/01_Data/Window_Screen/Cone (part 4)

File: Window_Screen_Cone_HF50Scan_220524_R3.csv
Names,Time,Stack TC,Smoke TC,Exh Press,Smoke Comp,Smoke Meas,CO Meter,CO2 Meter,O2 Meter,Sample Mass,Ext Coeff,Start Test,Flame Verif
Chan Gain,,500,500,1,1,1,1,1,1,1,1,1.0,1.0
Offset,,0,0,0.13752,0,0,0,0,0,0,0,0.0,0.0
Gain,,1,1,25.011,13.8491,15.2622,1,1,1,1.00087,1.03118,1.0,1.0
Units,sec,C,C,Pa,%,%,%,%,%,g,/m,,
Baseline,,35.465,36.7379,137.133,104.761,105.931,0.000680013,0.0439455,20.9996,-450.815,-0.100377,,
6,1.25,32.4931,34.7451,121.016,104.993,76.8391,0.0113243,0.100369,20.9084,562.76,2.82379,0.0,1.0
12,2.75,33.4421,34.5817,126.978,105.018,64.8438,0.01387,0.140094,20.8679,562.66,4.36129,0.0,1.0
18,4.25,34.8294,35.6685,132.124,105.006,99.4627,0.0136135,0.146557,20.8607,562.63,0.490562,0.0,1.0
24,5.75,35.2434,35.8552,131.577,105.017,105.147,0.0116299,0.127336,20.8773,562.62,-0.0112041,0.0,1.0
30,7.25,33.681,33.9741,137.368,105.034,104.952,0.00878983,0.1047,20.9036,562.64,0.00713233,0.0,0.0
36,8.75,31.8745,32.6069,135.909,105.044,105.642,0.0062074,0.0861216,20.9308,562.69,-0.0513672,0.0,0.0
42,10.25,31.9138,32.6835,136.734,105.064,105.164,0.00435516,0.0724877,20.9521,562.69,-0.00857065,0.0,0.0
48,11.75,31.8163,32.9073,136.912,105.072,106.636,0.00308829,0.0637777,20.9649,562.66,-0.133709,0.0,0.0
54,13.25,31.4464,32.8743,138.235,105.102,105.521,0.00228708,0.0586019,20.9736,562.67,-0.0360077,0.0,0.0
60,14.75,32.4144,33.4786,137.902,105.138,105.837,0.00185842,0.0557711,20.9805,562.65,-0.0599064,0.0,0.0
66,16.25,32.3575,33.4654,137.768,105.134,106.113,0.00168125,0.0539945,20.9852,562.65,-0.0838085,0.0,0.0
72,17.75,32.8406,33.7468,134.104,105.134,106.152,0.00160823,0.0528593,20.9876,562.69,-0.0871395,0.0,0.0
78,19.25,32.7232,33.6355,136.372,105.152,106.039,0.00156811,0.0519423,20.989,562.71,-0.0760422,0.0,0.0
84,20.75,32.7064,33.9147,136.863,105.152,105.63,0.00154192,0.0510499,20.9907,562.72,-0.0410151,0.0,0.0
90,22.25,32.511,33.6923,138.458,105.183,106.302,0.00155146,0.050161,20.9925,562.65,-0.0957364,0.0,0.0
96,23.75,32.9309,33.5531,136.415,105.179,105.397,0.00153959,0.0493098,20.9937,562.66,-0.0187998,0.0,0.0
102,25.25,32.878,33.673,138.021,105.198,106.288,0.00144065,0.0485465,20.9943,562.72,-0.0932717,0.0,0.0
108,26.75,32.0567,33.9719,134.907,105.214,106.526,0.00125644,0.0478242,20.9947,562.68,-0.112087,0.0,0.0
114,28.25,32.2207,34.1507,136.622,105.223,105.832,0.00106895,0.0472106,20.9948,562.66,-0.0521627,0.0,0.0
120,29.75,32.7323,33.6551,136.351,105.224,106.124,0.000999533,0.0466549,20.9951,562.67,-0.0769796,0.0,0.0
126,31.25,32.7148,33.9381,135.474,105.256,105.847,0.00101181,0.0461902,20.9958,562.68,-0.0507188,0.0,0.0
132,32.75,32.4126,33.5402,138.058,105.234,105.778,0.00102718,0.0458427,20.9961,562.67,-0.0466029,0.0,0.0
138,34.25,32.7819,34.1222,136.803,105.267,105.42,0.00100435,0.0456068,20.9963,562.65,-0.0131649,0.0,0.0
144,35.75,32.5078,33.7631,134.247,105.27,106.278,0.000955414,0.0455419,20.9963,562.65,-0.0861874,0.0,0.0
150,37.25,32.0504,33.8814,142.671,105.293,105.941,0.000840091,0.0454192,20.9962,562.66,-0.0555238,0.0,0.0
156,38.75,32.5606,33.6669,135.623,105.285,105.901,0.000700396,0.0453765,20.9961,562.61,-0.052789,0.0,0.0
162,40.25,32.7457,33.6115,140.212,105.316,105.866,0.000603471,0.0452572,20.9961,562.63,-0.047115,0.0,0.0
168,41.75,32.1825,34.0313,134.996,105.316,105.944,0.000584484,0.0452321,20.9961,562.63,-0.0537653,0.0,0.0
174,43.25,32.5522,34.3029,134.395,105.323,105.485,0.000624046,0.0452613,20.9961,562.64,-0.0139289,0.0,0.0
180,44.75,32.6188,34.0495,134.306,105.324,105.712,0.000675606,0.0453135,20.9961,562.63,-0.0332827,0.0,0.0
186,46.25,32.6699,34.1396,135.303,105.34,105.946,0.000714645,0.0453913,20.9961,562.62,-0.0518525,0.0,0.0
192,47.75,32.4943,34.1596,137.626,105.342,106.197,0.000746993,0.0454254,20.9961,562.62,-0.0731197,0.0,0.0
198,49.25,32.4411,34.7556,135.312,105.349,106.337,0.000785785,0.0453777,20.9961,562.62,-0.0844316,0.0,0.0
204,50.75,32.7053,33.8657,139.651,105.358,105.866,0.000840724,0.0453334,20.9961,562.6,-0.0434889,0.0,0.0
210,52.25,33.2724,33.6121,139.754,105.349,105.876,0.000873671,0.0452569,20.9961,562.6,-0.0450867,0.0,0.0
216,53.75,33.0761,34.2271,135.386,105.356,106.445,0.000893501,0.0452352,20.9961,562.59,-0.0930391,0.0,0.0
222,55.25,32.7856,34.4476,137.012,105.372,105.313,0.000876285,0.0452301,20.9961,562.59,0.00507416,0.0,0.0
228,56.75,32.4326,34.2633,136.091,105.36,105.257,0.000787469,0.045276,20.9961,562.58,0.00881947,0.0,0.0
234,58.25,32.7246,33.8339,137.06,105.365,105.553,0.000715356,0.0451286,20.9961,562.56,-0.0162026,0.0,0.0
240,59.75,32.7629,34.2658,137.305,105.373,105.767,0.000667415,0.0449125,20.9961,562.56,-0.0337026,0.0,0.0
246,61.25,32.8837,34.0979,137.844,105.352,105.774,0.000703737,0.0447162,20.9964,562.58,-0.0361544,0.0,0.0
252,62.75,32.7221,34.2477,138.709,105.372,105.877,0.000728181,0.0445602,20.9966,562.57,-0.0432067,0.0,0.0
258,64.25,32.8332,34.1917,134.05,105.365,105.907,0.000680764,0.0445924,20.9968,562.56,-0.0463699,0.0,0.0
264,65.75,32.4421,33.8506,136.746,105.377,106.241,0.000617582,0.0446392,20.9968,562.56,-0.073872,0.0,0.0
270,67.25,32.8811,34.2005,133.758,105.364,106.59,0.000564342,0.0446649,20.9969,562.56,-0.104654,0.0,0.0
276,68.75,32.9727,34.34,137.298,105.385,106.152,0.000535039,0.044664,20.9969,562.57,-0.0655689,0.0,0.0
282,70.25,33.0005,34.1335,139.1,105.377,105.852,0.000533336,0.0445168,20.9968,562.55,-0.040663,0.0,0.0
288,71.75,33.0666,34.5028,137.576,105.375,106.16,0.000525847,0.0444369,20.9964,562.55,-0.067151,0.0,0.0
294,73.25,33.2598,34.4797,136.783,105.366,106.13,0.000536377,0.0444356,20.9963,562.52,-0.0653327,0.0,0.0
300,74.75,33.0751,34.1165,137.5,105.379,105.181,0.000577394,0.0442726,20.9962,562.53,0.0170546,0.0,0.0
306,76.25,33.062,34.5718,136.924,105.363,105.817,0.000645235,0.044146,20.9961,562.52,-0.0389101,0.0,0.0
312,77.75,32.8011,34.6507,135.18,105.373,106.299,0.000671313,0.0441375,20.9961,562.5,-0.0791908,0.0,0.0
318,79.25,32.7674,33.6874,136.339,105.363,106.223,0.000630459,0.0441751,20.9961,562.51,-0.073523,0.0,0.0
324,80.75,32.952,33.9619,137.196,105.365,106.223,0.000559271,0.0440963,20.9961,562.5,-0.0733779,0.0,0.0
330,82.25,33.3871,34.2736,136.999,105.363,106.677,0.000535545,0.0439926,20.9962,562.51,-0.112075,0.0,0.0
336,83.75,32.8477,34.6478,138.101,105.353,107.079,0.000586524,0.0439655,20.9967,562.54,-0.146965,0.0,0.0
342,85.25,33.2136,34.4065,135.548,105.338,106.244,0.000663505,0.0439805,20.997,562.51,-0.0774489,0.0,0.0
348,86.75,32.8919,34.4171,139.59,105.332,106.012,0.000744003,0.0440048,20.9972,562.48,-0.0582224,0.0,0.0
354,88.25,32.9135,34.3411,136.751,105.325,105.721,0.000809983,0.0439772,20.998,562.46,-0.0338947,0.0,0.0
360,89.75,33.2379,34.2657,138.487,105.313,106.657,0.000802155,0.0439472,20.9988,562.45,-0.114735,0.0,0.0
366,91.25,32.9687,34.4008,134.101,105.314,106.13,0.000689976,0.0438468,20.9992,562.45,-0.0697608,0.0,0.0
372,92.75,32.8662,34.3059,136.243,105.303,106.048,0.000553683,0.0437341,20.9994,562.49,-0.0637509,0.0,0.0
378,94.25,33.4736,34.4876,135.786,105.297,106.461,0.000467204,0.0437481,20.9995,562.48,-0.0995057,0.0,0.0
384,95.75,32.9394,34.5621,136.395,105.279,106.176,0.000428352,0.0436874,20.9996,562.45,-0.0767398,0.0,0.0
390,97.25,33.0752,34.5701,138.41,105.27,106.664,0.00040551,0.0436599,20.9996,562.45,-0.118991,0.0,0.0
396,98.75,33.516,34.6426,136.747,105.252,106.467,0.000400414,0.0435954,20.9996,562.46,-0.103794,0.0,0.0
402,100.25,33.1762,34.8675,137.728,105.256,106.322,0.000415783,0.0435863,20.9996,562.47,-0.091148,0.0,0.0
408,101.75,33.3963,34.6161,135.658,105.228,106.169,0.000454059,0.0436061,20.9996,562.47,-0.080506,0.0,0.0
414,103.25,32.9447,34.4895,133.755,105.237,106.508,0.00050808,0.0436713,20.9996,562.43,-0.108546,0.0,0.0
420,104.75,32.8575,34.5855,137.426,105.206,106.7,0.000585443,0.0435857,20.9988,562.43,-0.127517,0.0,0.0
426,106.25,32.8933,34.3419,133.596,105.194,106.029,0.000734362,0.0435386,20.9987,562.44,-0.0714963,0.0,0.0
432,107.75,33.0242,34.8284,133.318,105.174,107.327,0.000869704,0.0435424,20.9987,562.45,-0.183235,0.0,0.0
438,109.25,33.0265,34.4613,137.074,105.18,106.667,0.0009453,0.0435142,20.9987,562.46,-0.12697,0.0,0.0
444,110.75,32.8238,34.6599,136.353,105.136,106.546,0.000925347,0.0435237,20.9987,562.45,-0.120548,0.0,0.0
450,112.25,33.4726,34.9175,137.634,105.142,106.814,0.000862483,0.0434652,20.9986,562.41,-0.142711,0.0,0.0
456,113.75,33.3208,34.6022,139.726,105.099,106.207,0.000822333,0.0434456,20.9986,562.4,-0.0948837,0.0,0.0
462,115.25,33.5808,34.5137,137.617,105.087,106.248,0.000854263,0.0434994,20.9986,562.41,-0.0994283,0.0,0.0
468,116.75,33.6829,34.4611,136.463,105.059,106.45,,0.0434486,,562.4,-0.118944,0.0,0.0
474,118.25,33.5667,34.2698,134.426,105.054,106.191,,0.0433827,,562.4,-0.0974241,0.0,0.0
480,119.75,33.6691,35.0193,136.396,105.013,105.956,,,,562.44,-0.0809004,0.0,0.0
486,121.25,33.9182,34.2923,137.741,104.992,106.233,,,,562.41,-0.106273,0.0,0.0
492,122.75,33.4004,34.7329,138.269,104.96,106.565,,,,562.42,-0.137233,0.0,0.0
498,124.25,33.747,35.1301,136.589,104.931,105.935,,,,562.4,-0.0861362,0.0,0.0
504,125.75,33.5196,34.7738,137.286,104.905,106.182,,,,562.41,-0.109449,0.0,0.0
510,127.25,33.6529,34.8754,138.034,104.871,106.037,,,,562.41,-0.10002,0.0,0.0
511,127.5,33.2651,34.6337,138.088,104.86,106.084,,,,562.4,-0.104937,0.0,0.0

File: Window_Screen_Cone_HF75Scalar_220524_R1.csv
LABORATORY,FSRI
TEST IDENT,Window_Screen_75_1
OPERATOR,Dow
MATERIAL,Window Screen
ORIENTATION,Horizontal
HEAT FLUX,75
SURF AREA,0.00884
C FACTOR,0.0419572
SPEC HOLDER DIFF,-566
SPECIMEN MASS,0.92
SCAN TIME,0.25
O2 DELAY TIME,11
CO DELAY TIME,11
CO2 DELAY TIME,8
FLOW FACTOR,1
SCAN COUNT,503
TIME TO IGN,0.25
END OF TEST SCAN,23
END OF TEST TIME,5.75
TEST STATUS,1
PRE TEST CMT,Dimensions: 101 x 101 x 0.21 mm; with frame; with calcium silicate substrate
POST TEST CMT,"Flame extinguished before software acknowledged ""flame verify"". "

File: Window_Screen_Cone_HF75Scalar_220524_R2.csv
LABORATORY,FSRI
TEST IDENT,Window_Screen_75_2
OPERATOR,Dow
MATERIAL,Window Screen
ORIENTATION,Horizontal
HEAT FLUX,35
SURF AREA,0.00884
C FACTOR,0.0419572
SPEC HOLDER DIFF,-566
SPECIMEN MASS,0.94
SCAN TIME,0.25
O2 DELAY TIME,11
CO DELAY TIME,11
CO2 DELAY TIME,8
FLOW FACTOR,1
SCAN COUNT,510
TIME TO IGN,0.75
END OF TEST SCAN,30
END OF TEST TIME,7.5
TEST STATUS,1
PRE TEST CMT,Dimensions: 102 x 102 x 0.22 mm; with frame; with calcium silicate substrate
POST TEST CMT,"Flame extinguished before software acknowledged ""flame verify"". "

File: Window_Screen_Cone_HF75Scalar_220524_R3.csv
LABORATORY,FSRI
TEST IDENT,Window_Screen_75_3
OPERATOR,Dow
MATERIAL,Window Screen
ORIENTATION,Horizontal
HEAT FLUX,75
SURF AREA,0.00884
C FACTOR,0.0419572
SPEC HOLDER DIFF,-566
SPECIMEN MASS,0.95
SCAN TIME,0.25
O2 DELAY TIME,11
CO DELAY TIME,11
CO2 DELAY TIME,8
FLOW FACTOR,1
SCAN COUNT,505
TIME TO IGN,0.25
END OF TEST SCAN,25
END OF TEST TIME,6.25
TEST STATUS,1
PRE TEST CMT,Dimensions: 102 x 102 x 0.22 mm; with frame; with calcium silicate substrate
POST TEST CMT,"Flame extinguished before software acknowledged ""flame verify"". "

File: Window_Screen_Cone_HF75Scan_220524_R1.csv
Names,Time,Stack TC,Smoke TC,Exh Press,Smoke Comp,Smoke Meas,CO Meter,CO2 Meter,O2 Meter,Sample Mass,Ext Coeff,Start Test,Flame Verif
Chan Gain,,500,500,1,1,1,1,1,1,1,1,1.0,1.0
Offset,,0,0,0.13752,0,0,0,0,0,0,0,0.0,0.0
Gain,,1,1,25.011,13.8491,15.2622,1,1,1,1.00087,1.03118,1.0,1.0
Units,sec,C,C,Pa,%,%,%,%,%,g,/m,,
Baseline,,44.2962,46.0527,133.705,104.171,106.46,0.000833966,0.0438026,20.9975,-451.174,-0.196546,,
6,1.25,40.1815,41.8293,120.061,104.347,52.7809,0.0156036,0.129756,20.8874,573.539,6.16513,0.0,1.0
12,2.75,42.0225,42.4097,127.631,104.389,100.994,0.016273,0.154026,20.8579,573.549,0.299078,0.0,1.0
18,4.25,42.672,43.6234,132.778,104.45,106.135,0.0145787,0.141797,20.8651,573.529,-0.144702,0.0,1.0
24,5.75,41.16,41.7529,136.894,104.489,106.524,0.0114252,0.116816,20.8953,573.499,-0.17446,0.0,0.0
30,7.25,39.5876,41.3654,133.536,104.554,106.106,0.00929367,0.0955888,20.9152,573.579,-0.133241,0.0,0.0
36,8.75,39.8667,40.858,133.833,104.597,106.879,0.00705701,0.080637,20.9368,573.689,-0.195258,0.0,0.0
42,10.25,40.0432,40.9732,131.592,104.629,107.345,0.00553468,0.0716972,20.9532,573.559,-0.231778,0.0,0.0
48,11.75,39.3358,41.4587,137.853,104.692,107.023,0.00447357,0.0641278,20.9669,573.509,-0.199174,0.0,0.0
54,13.25,39.661,40.9256,136.444,104.735,106.696,0.00369116,0.058987,20.9755,573.489,-0.16781,0.0,0.0
60,14.75,37.9893,40.0842,132.505,104.782,106.756,0.00313243,0.0553323,20.981,573.499,-0.168815,0.0,0.0
66,16.25,40.1588,41.9572,133.21,104.811,106.572,0.00260621,0.0528715,20.985,573.429,-0.150732,0.0,0.0
72,17.75,40.2206,41.9389,134.313,104.851,107.323,0.0022509,0.0514385,20.9883,573.409,-0.210735,0.0,0.0
78,19.25,40.9911,42.0373,131.43,104.876,107.016,0.00192261,0.0502403,20.991,573.359,-0.18275,0.0,0.0
84,20.75,40.5269,42.3359,133.586,104.902,106.974,0.00169631,0.0494109,20.9926,573.369,-0.176946,0.0,0.0
90,22.25,40.664,42.5788,133.1,104.917,107.727,0.00142761,0.0487668,20.9934,573.369,-0.239132,0.0,0.0
96,23.75,40.7574,42.8078,132.921,104.955,108.561,0.0012697,0.048258,20.9938,573.399,-0.305514,0.0,0.0
102,25.25,40.879,42.0179,134.164,104.974,107.423,0.00116428,0.0476916,20.9941,573.419,-0.2086,0.0,0.0
108,26.75,40.6401,42.3701,130.718,104.986,108.022,0.00110637,0.047145,20.9953,573.409,-0.257919,0.0,0.0
114,28.25,41.3447,41.8372,135.453,104.982,107.38,0.00105265,0.0467457,20.9959,573.389,-0.204263,0.0,0.0
120,29.75,41.4566,42.6665,133.126,105.004,107.433,0.000905752,0.0463287,20.9963,573.479,-0.206844,0.0,0.0
126,31.25,41.3079,42.6448,130.887,104.998,106.237,0.0007187,0.0458797,20.9964,573.469,-0.10608,0.0,0.0
132,32.75,41.1072,42.234,133.491,105.019,107.071,0.000613433,0.0456211,20.9965,573.469,-0.175084,0.0,0.0
138,34.25,41.0392,42.9161,135.954,104.995,107.147,0.000578173,0.0454049,20.9966,573.389,-0.183495,0.0,0.0
144,35.75,41.0743,42.8691,132.94,104.991,107.158,0.000586004,0.0452026,20.9966,573.359,-0.1848,0.0,0.0
150,37.25,41.2707,42.6077,133.598,104.974,106.588,0.000595358,0.0451519,20.9971,573.369,-0.137972,0.0,0.0
156,38.75,41.0545,42.8779,135.709,104.966,107.542,0.000632888,0.0451287,20.9979,573.379,-0.219293,0.0,0.0
162,40.25,40.845,42.7462,136.305,104.945,105.797,0.000735657,0.0451662,20.9984,573.389,-0.0731148,0.0,0.0
168,41.75,41.3206,43.0124,133.056,104.926,106.214,0.000831661,0.0451803,20.9984,573.379,-0.110365,0.0,0.0
174,43.25,41.5317,42.7105,133.875,104.897,107.496,0.000924818,0.0450764,20.9976,573.359,-0.221389,0.0,0.0
180,44.75,41.235,42.9284,130.376,104.871,107.57,0.000973306,0.0450081,20.9979,573.359,-0.229875,0.0,0.0
186,46.25,41.1298,42.7727,136.396,104.849,106.846,0.000966938,0.0449088,20.9987,573.339,-0.17063,0.0,0.0
192,47.75,41.1374,43.232,133.256,104.817,107.044,0.000933668,0.0448854,20.9991,573.349,-0.190179,0.0,0.0
198,49.25,41.4158,42.9704,136.108,104.799,107.391,0.000903595,0.0448772,20.9993,573.319,-0.221026,0.0,0.0
204,50.75,41.3937,43.2376,130.084,104.738,107.542,0.000876507,0.0448481,20.9995,573.329,-0.238982,0.0,0.0
210,52.25,41.5816,42.89,130.053,104.703,107.702,0.000857105,0.0447943,20.9995,573.319,-0.255439,0.0,0.0
216,53.75,41.4189,43.297,135.58,104.666,107.471,0.000837874,0.0447664,20.9995,573.289,-0.23923,0.0,0.0
222,55.25,41.1238,43.3751,134.568,104.637,106.646,0.000811961,0.0446069,20.9996,573.299,-0.17198,0.0,0.0
228,56.75,41.176,43.4912,134.331,104.572,107.219,0.0008392,0.0445789,20.9996,573.289,-0.22607,0.0,0.0
234,58.25,41.4453,43.3637,132.917,104.546,106.526,0.000921138,0.0446334,20.9994,573.289,-0.169757,0.0,0.0
240,59.75,41.6938,43.2541,133.942,104.486,107.271,0.000995566,0.0446424,20.9991,573.279,-0.237894,0.0,0.0
246,61.25,41.8539,43.3901,134.594,104.484,106.559,0.001024,0.0446807,20.9989,573.259,-0.177825,0.0,0.0
252,62.75,41.0297,43.4405,134.642,104.485,106.567,0.00100677,0.0446246,20.9988,573.269,-0.178425,0.0,0.0
258,64.25,41.457,42.8327,129.673,104.512,107.24,0.000947347,0.0445349,20.9988,573.229,-0.233067,0.0,0.0
264,65.75,41.533,42.8476,133.008,104.521,106.782,0.000875814,0.0445616,20.9988,573.269,-0.193525,0.0,0.0
270,67.25,41.0555,43.2353,132.249,104.549,106.686,0.000789973,0.0445634,20.9988,573.239,-0.18298,0.0,0.0
276,68.75,41.8982,43.7773,135.619,104.545,106.826,0.000668477,0.0444771,20.9994,573.249,-0.195261,0.0,0.0
282,70.25,42.0407,43.2026,132.488,104.581,106.883,0.00061414,0.0444522,20.9999,573.239,-0.196927,0.0,0.0
288,71.75,41.7691,43.3412,135.232,104.587,106.215,0.000647373,0.0444115,21.0002,573.259,-0.139713,0.0,0.0
294,73.25,42.0022,43.2759,136.321,104.604,107.279,0.00070501,0.0445029,21.0003,573.269,-0.22836,0.0,0.0
300,74.75,41.8906,43.1198,134.696,104.625,107.676,0.000762058,0.044511,21.0004,573.259,-0.260043,0.0,0.0
306,76.25,41.5414,43.2049,136.605,104.632,106.726,0.000827625,0.0446541,21.0004,573.249,-0.17925,0.0,0.0
312,77.75,42.0609,43.746,134.799,104.65,106.924,0.000867089,0.0447401,21.0004,573.249,-0.194402,0.0,0.0
318,79.25,41.7478,43.5243,134.284,104.67,106.66,0.000816794,0.0448987,21.0004,573.239,-0.170392,0.0,0.0
324,80.75,41.6773,43.5076,130.048,104.685,107.434,0.000733682,0.0451802,21.0004,573.229,-0.234449,0.0,0.0
330,82.25,42.2114,43.2242,135.232,104.704,107.518,0.0006916,0.0454234,21.0004,573.209,-0.239865,0.0,0.0
336,83.75,42.0822,43.5885,132.353,104.74,107.775,0.000696761,0.0455915,21.0004,573.169,-0.258327,0.0,0.0
342,85.25,42.1849,43.5434,132.681,104.764,106.756,0.000689548,0.0457836,21.0004,573.159,-0.170344,0.0,0.0
348,86.75,41.5109,44.2923,129.994,104.79,107.312,0.000639788,0.0458865,21.0004,573.169,-0.21508,0.0,0.0
354,88.25,41.8582,43.484,136.348,104.813,107.243,0.000599659,0.0459318,21.0004,573.199,-0.207338,0.0,0.0
360,89.75,41.9496,43.6812,133.709,104.83,108.125,0.000609393,0.0459157,21.0004,573.199,-0.279981,0.0,0.0
366,91.25,42.1463,44.1994,134.739,104.851,107.817,0.000699638,0.04591,20.9997,573.169,-0.252286,0.0,0.0
372,92.75,42.4016,44.1013,131.688,104.874,107.036,0.000752907,0.0458791,20.999,573.189,-0.184512,0.0,0.0
378,94.25,42.2646,44.0047,130.964,104.892,106.96,0.00078645,0.0458836,20.9987,573.159,-0.1766,0.0,0.0
384,95.75,42.5897,44.1192,134.542,104.922,107.451,0.000823723,0.0459954,20.9985,573.189,-0.215476,0.0,0.0
390,97.25,42.5018,43.9794,132.142,104.924,106.935,0.000841317,0.0460462,20.9984,573.169,-0.171745,0.0,0.0
396,98.75,42.2489,44.0603,133.035,104.952,107.22,0.000825758,0.0461387,20.9984,573.169,-0.193384,0.0,0.0
402,100.25,42.2955,43.836,132.858,104.97,107.648,0.000770724,0.0461076,20.9983,573.159,-0.227815,0.0,0.0
408,101.75,42.4818,44.53,134.031,105.005,108.053,0.000722947,0.046065,20.9998,573.169,-0.258853,0.0,0.0
414,103.25,42.0455,44.3178,133.105,105.019,107.813,0.000742033,0.0461505,21.0006,573.169,-0.23755,0.0,0.0
420,104.75,42.6972,44.8136,136.04,105.03,106.933,0.000822899,0.0461324,21.001,573.149,-0.162407,0.0,0.0
426,106.25,42.1998,44.3065,135.483,105.029,107.11,0.000920232,0.045972,21.0003,573.139,-0.177513,0.0,0.0
432,107.75,42.4045,44.5063,132.294,105.063,106.508,0.000946498,0.0458467,20.9997,573.139,-0.123565,0.0,0.0
438,109.25,42.9059,44.1043,129.073,105.054,107.027,0.000860563,0.0457406,20.9995,573.129,-0.168249,0.0,0.0
444,110.75,42.444,44.507,133.158,105.087,107.674,0.000728525,0.0456119,20.9993,573.129,-0.219999,0.0,0.0
450,112.25,42.5017,44.1967,133.675,105.087,107.124,0.000617727,0.0454724,20.9988,573.129,-0.173595,0.0,0.0
456,113.75,42.6014,44.5569,135.277,105.109,107.205,0.000572425,0.0453757,20.9987,573.109,-0.178619,0.0,0.0
462,115.25,42.7303,44.2627,134.538,105.126,108.113,,0.0452472,,573.109,-0.253437,0.0,0.0
468,116.75,42.4388,44.4424,134.055,105.134,107.478,,0.0452198,,573.109,-0.199399,0.0,0.0
474,118.25,42.2018,44.5022,132.031,105.144,107.538,,,,573.059,-0.203618,0.0,0.0
480,119.75,42.8472,44.0324,134.404,105.154,106.468,,,,573.099,-0.112303,0.0,0.0
486,121.25,42.4613,44.2861,132.143,105.152,106.816,,,,573.059,-0.142072,0.0,0.0
492,122.75,42.5295,44.1665,134.387,105.168,107.69,,,,573.069,-0.214311,0.0,0.0
498,124.25,42.513,44.1382,134.143,105.176,107.926,,,,573.039,-0.233394,0.0,0.0
503,125.5,42.5309,44.7397,133.129,105.185,107.279,,,,573.019,-0.178285,0.0,0.0