Folder: fsri_materials_database/01_Data/Window_Screen/Cone (part 5)

File: Window_Screen_Cone_HF75Scan_220524_R2.csv
Names,Time,Stack TC,Smoke TC,Exh Press,Smoke Comp,Smoke Meas,CO Meter,CO2 Meter,O2 Meter,Sample Mass,Ext Coeff,Start Test,Flame Verif
Chan Gain,,500,500,1,1,1,1,1,1,1,1,1.0,1.0
Offset,,0,0,0.13752,0,0,0,0,0,0,0,0.0,0.0
Gain,,1,1,25.011,13.8491,15.2622,1,1,1,1.00087,1.03118,1.0,1.0
Units,sec,C,C,Pa,%,%,%,%,%,g,/m,,
Baseline,,46.4689,48.325,132.725,103.544,106.186,0.000830354,0.0447384,20.9958,-451.521,-0.227822,,
6,1.25,41.0082,43.3863,117.5,103.469,49.4144,0.014249,0.11304,20.8819,551.35,6.68493,0.0,1.0
12,2.75,42.3284,43.6531,128.395,103.481,91.1269,0.0160881,0.149118,20.841,551.41,1.14999,0.0,1.0
18,4.25,43.4158,44.2894,129.267,103.496,103.199,0.0148293,0.143839,20.8382,551.32,0.0259209,0.0,1.0
24,5.75,41.9758,43.3634,132.658,103.516,104.86,0.0122809,0.125146,20.8619,551.3,-0.11669,0.0,1.0
30,7.25,42.1329,43.6674,128.796,103.524,106.023,0.00992882,0.102923,20.8867,551.27,-0.215757,0.0,0.0
36,8.75,40.5759,42.2996,130.937,103.538,106.378,0.00759042,0.0864469,20.9178,551.25,-0.244808,0.0,0.0
42,10.25,41.5602,43.5269,132.854,103.576,107.012,0.00587691,0.074996,20.9417,551.25,-0.29515,0.0,0.0
48,11.75,41.69,43.329,131.535,103.608,106.436,0.00462897,0.0663263,20.9579,551.1,-0.243627,0.0,0.0
54,13.25,42.3104,43.8148,133.7,103.615,105.722,0.00376446,0.0605284,20.9694,551.3,-0.182038,0.0,0.0
60,14.75,41.3257,43.7453,131.424,103.659,105.752,0.00317023,0.0567315,20.9762,551.2,-0.180868,0.0,0.0
66,16.25,41.6089,43.4503,133.358,103.669,106.525,0.00274182,0.0543668,20.9808,551.35,-0.245835,0.0,0.0
72,17.75,41.7475,43.6455,129.817,103.701,106.043,0.00244138,0.0529632,20.9831,551.16,-0.202046,0.0,0.0
78,19.25,41.915,43.6993,127.712,103.731,105.924,0.00224817,0.0522326,20.9841,551.15,-0.189252,0.0,0.0
84,20.75,42.2788,43.4495,133.618,103.761,105.962,0.00206967,0.0517584,20.9851,551.21,-0.189893,0.0,0.0
90,22.25,42.371,43.5922,127.857,103.79,106.354,0.00190996,0.0511079,20.9862,551.2,-0.220768,0.0,0.0
96,23.75,41.9299,43.8483,132.455,103.829,106.429,0.0017352,0.0504689,20.9869,551.21,-0.223716,0.0,0.0
102,25.25,42.5534,44.5512,131.039,103.857,106.577,0.00152671,0.0496877,20.9883,551.19,-0.233792,0.0,0.0
108,26.75,41.9632,43.8429,132.147,103.899,106.106,0.00135532,0.0490149,20.9896,551.17,-0.190171,0.0,0.0
114,28.25,42.3293,43.7709,125.608,103.92,106.429,0.00126626,0.0482935,20.9908,551.18,-0.215729,0.0,0.0
120,29.75,42.1089,44.0509,128.319,103.968,106.434,0.00119232,0.0475687,20.9914,551.16,-0.212046,0.0,0.0
126,31.25,42.188,43.9497,131.253,103.979,105.92,0.00102195,0.0468953,20.9929,551.13,-0.167326,0.0,0.0
132,32.75,41.7701,43.7678,135.715,104.022,106.689,0.000859352,0.0463474,20.9945,551.12,-0.22893,0.0,0.0
138,34.25,42.305,43.6365,133.593,104.029,106.467,0.000810432,0.0458582,20.9953,551.14,-0.209528,0.0,0.0
144,35.75,42.1782,43.9639,133.268,104.049,107.248,0.000808831,0.0454598,20.9958,551.14,-0.273881,0.0,0.0
150,37.25,41.8617,43.484,134.716,104.069,106.318,0.000797282,0.0451084,20.996,551.12,-0.193404,0.0,0.0
156,38.75,42.2126,44.0473,130.206,104.093,106.922,0.000755238,0.0446453,20.9961,551.17,-0.242558,0.0,0.0
162,40.25,42.3793,43.87,130.78,104.11,106.443,0.000703315,0.0443805,20.9962,551.16,-0.200454,0.0,0.0
168,41.75,42.4666,43.8024,130.562,104.119,107.527,0.000661487,0.0442815,20.9963,551.15,-0.291357,0.0,0.0
174,43.25,42.1689,44.2342,130.756,104.145,106.105,0.000656807,0.0441122,20.9972,551.17,-0.168662,0.0,0.0
180,44.75,41.8023,44.2508,134.949,104.155,105.559,0.000678436,0.044017,20.9979,551.17,-0.121089,0.0,0.0
186,46.25,43.0779,43.7673,130.009,104.166,106.208,0.000721518,0.0439874,20.9982,551.14,-0.175674,0.0,0.0
192,47.75,42.3687,43.8966,131.013,104.183,107.247,0.00076246,0.0439044,20.9984,551.14,-0.262199,0.0,0.0
198,49.25,42.3786,44.4095,129.483,104.198,106.778,0.000732717,0.043933,20.9985,551.15,-0.22127,0.0,0.0
204,50.75,42.0453,44.1422,130.653,104.223,106.205,0.000647965,0.043833,20.9985,551.14,-0.17037,0.0,0.0
210,52.25,42.1897,43.6433,131.28,104.223,106.415,0.000574826,0.0438291,20.9986,551.13,-0.18828,0.0,0.0
216,53.75,42.1947,44.1305,131.551,104.247,107.532,0.000506252,0.0439626,20.9987,551.15,-0.280634,0.0,0.0
222,55.25,42.519,44.1776,129.22,104.264,107.708,0.000456352,0.0439831,20.9988,551.16,-0.293965,0.0,0.0
228,56.75,42.6594,44.2702,132.481,104.27,106.849,0.000478017,0.0438321,20.9988,551.14,-0.221032,0.0,0.0
234,58.25,42.4932,44.3944,129.58,104.299,106.347,0.000536476,0.0437988,20.9989,551.14,-0.175894,0.0,0.0
240,59.75,42.5121,44.4743,130.274,104.304,107.076,0.000617294,0.043773,20.9989,551.12,-0.237245,0.0,0.0
246,61.25,42.9941,44.0259,131.699,104.318,107.812,0.000666007,0.0437407,20.9989,551.09,-0.297952,0.0,0.0
252,62.75,42.7,44.5296,135.449,104.32,107.494,0.000701938,0.0437413,20.9989,551.14,-0.271155,0.0,0.0
258,64.25,42.709,44.5548,130.463,104.348,106.921,0.000753564,0.0438723,20.9989,551.12,-0.22036,0.0,0.0
264,65.75,42.5502,44.2118,133.416,104.359,107.318,0.000773713,0.0438343,20.9989,551.12,-0.25288,0.0,0.0
270,67.25,43.0696,44.6383,133.88,104.376,106.35,0.000769341,0.0438141,20.9983,551.13,-0.16943,0.0,0.0
276,68.75,42.6804,44.525,130.731,104.364,108.166,0.000714207,0.043921,20.9975,551.12,-0.323687,0.0,0.0
282,70.25,42.8648,44.776,135.837,104.396,107.383,0.000612007,0.0441492,20.9971,551.11,-0.255187,0.0,0.0
288,71.75,42.9589,44.9965,130.318,104.381,107.738,0.000515428,0.0443245,20.9968,551.07,-0.286393,0.0,0.0
294,73.25,42.9219,44.683,133.046,104.415,107.358,0.000470407,0.0444367,20.9967,551.09,-0.251384,0.0,0.0
300,74.75,43.1022,44.9983,132.511,104.414,107.559,0.000496078,0.0445643,20.9967,551.07,-0.268356,0.0,0.0
306,76.25,43.2452,44.7797,134.296,104.426,106.544,0.00055945,0.0446329,20.9969,551.06,-0.181574,0.0,0.0
312,77.75,43.0074,44.813,131.171,104.439,107.07,0.000642315,0.044734,20.9978,551.06,-0.225052,0.0,0.0
318,79.25,43.1721,44.7305,129.854,104.443,106.031,0.000700912,0.044698,20.9983,551.04,-0.136544,0.0,0.0
324,80.75,43.2424,44.8944,128.179,104.442,107.214,0.000747432,0.0446294,20.9986,551.05,-0.236983,0.0,0.0
330,82.25,43.1506,45.0379,136.038,104.455,106.864,0.000807846,0.0446139,20.9977,551.03,-0.206247,0.0,0.0
336,83.75,42.942,44.6109,135.046,104.449,106.705,0.000875569,0.044724,20.9979,551.01,-0.193306,0.0,0.0
342,85.25,43.1765,45.1812,129.944,104.465,107.475,0.000921887,0.044825,20.9978,551.03,-0.256947,0.0,0.0
348,86.75,43.2905,45.1136,132.255,104.464,107.855,0.000918572,0.0450206,20.9983,551.05,-0.288914,0.0,0.0
354,88.25,43.5899,45.3308,130.178,104.479,107.852,0.000873668,0.0451598,20.9978,551.06,-0.287475,0.0,0.0
360,89.75,42.8321,44.8804,132.509,104.491,107.983,0.000792882,0.0452033,20.9972,551.03,-0.297309,0.0,0.0
366,91.25,43.1649,45.2974,134.429,104.493,107.365,0.000667203,0.0450887,20.9972,551.03,-0.245315,0.0,0.0
372,92.75,43.0548,45.2857,128.375,104.495,106.936,0.00053148,0.0450593,20.9973,551.02,-0.208919,0.0,0.0
378,94.25,43.476,44.3885,136.85,104.499,107.007,0.000418192,0.0450588,20.9982,550.98,-0.214576,0.0,0.0
384,95.75,43.5018,45.2322,129.305,104.507,107.295,0.000361317,0.0450386,20.9989,550.99,-0.238183,0.0,0.0
390,97.25,43.0023,45.3804,131.82,104.504,108.432,0.000434548,0.0449708,20.9993,550.99,-0.333819,0.0,0.0
396,98.75,43.0155,44.8896,128.987,104.53,108.116,0.000540645,0.0448909,20.9995,550.95,-0.305131,0.0,0.0
402,100.25,43.2462,45.1571,134.024,104.527,106.593,0.000668318,0.0448484,20.9992,550.99,-0.17698,0.0,0.0
408,101.75,42.8943,45.124,131.749,104.546,107.612,0.000738524,0.0446897,20.9991,550.95,-0.261443,0.0,0.0
414,103.25,43.3653,45.3593,133.207,104.533,107.465,0.000786231,0.044506,20.999,550.95,-0.250157,0.0,0.0
420,104.75,43.1483,45.2111,132.576,104.572,107.191,0.000838185,0.0442357,20.9989,550.96,-0.223748,0.0,0.0
426,106.25,43.0472,45.1592,133.927,104.547,107.602,0.000912536,0.0440701,20.9989,550.96,-0.260545,0.0,0.0
432,107.75,43.62,44.8434,133.471,104.584,106.944,0.000987032,0.0439892,20.9989,550.95,-0.201796,0.0,0.0
438,109.25,43.4904,45.1854,132.351,104.585,107.874,0.00102051,0.043932,20.9989,550.93,-0.280055,0.0,0.0
444,110.75,43.3984,45.5039,131.362,104.586,107.395,0.00100999,0.0437357,20.9989,550.93,-0.239743,0.0,0.0
450,112.25,43.8579,45.4647,131.169,104.58,107.031,0.000979683,0.0438624,20.9989,550.95,-0.209565,0.0,0.0
456,113.75,43.8251,45.2223,132.662,104.586,106.937,0.000951938,0.0438718,20.9989,550.92,-0.201096,0.0,0.0
462,115.25,43.4905,45.5958,134.06,104.581,108.427,0.000913705,0.0438643,20.9989,550.91,-0.326736,0.0,0.0
468,116.75,43.3738,45.2264,130.459,104.595,108.076,,0.0437931,,550.91,-0.29611,0.0,0.0
474,118.25,43.9268,45.2896,129.686,104.589,107.081,,0.0437516,,550.88,-0.213045,0.0,0.0
480,119.75,43.0887,45.4773,133.402,104.596,107.105,,,,550.84,-0.214393,0.0,0.0
486,121.25,43.5995,44.8734,131.856,104.594,106.66,,,,550.829,-0.176969,0.0,0.0
492,122.75,43.307,45.4751,130.123,104.603,108.142,,,,550.87,-0.300985,0.0,0.0
498,124.25,43.2309,45.5879,131.565,104.589,107.999,,,,550.85,-0.290263,0.0,0.0
504,125.75,43.5209,45.1207,129.671,104.592,107.769,,,,550.82,-0.270715,0.0,0.0
510,127.25,43.7748,45.6969,128.797,104.599,107.015,,,,550.86,-0.206503,0.0,0.0

File: Window_Screen_Cone_HF75Scan_220524_R3.csv
Names,Time,Stack TC,Smoke TC,Exh Press,Smoke Comp,Smoke Meas,CO Meter,CO2 Meter,O2 Meter,Sample Mass,Ext Coeff,Start Test,Flame Verif
Chan Gain,,500,500,1,1,1,1,1,1,1,1,1.0,1.0
Offset,,0,0,0.13752,0,0,0,0,0,0,0,0.0,0.0
Gain,,1,1,25.011,13.8491,15.2622,1,1,1,1.00087,1.03118,1.0,1.0
Units,sec,C,C,Pa,%,%,%,%,%,g,/m,,
Baseline,,45.227,47.0678,132.943,104.653,107.155,0.000813532,0.0440265,20.9955,-451.73,-0.213674,,
6,1.25,43.8423,45.4741,117.079,104.192,46.5117,0.0150957,0.144295,20.8367,561.539,7.29543,0.0,1.0
12,2.75,45.2292,46.7173,129.189,104.186,99.7486,0.0157973,0.168825,20.808,561.499,0.393683,0.0,1.0
18,4.25,45.7607,47.1525,131.624,104.165,104.968,0.0141625,0.150549,20.8385,561.559,-0.0694902,0.0,1.0
24,5.75,43.9871,45.0899,127.551,104.182,104.893,0.0115801,0.122624,20.876,561.529,-0.0615212,0.0,0.0
30,7.25,43.3316,43.856,133.987,104.167,106.525,0.00907156,0.099542,20.901,561.549,-0.202458,0.0,0.0
36,8.75,43.0072,43.9486,134.259,104.171,105.834,0.00704421,0.0827469,20.9264,561.599,-0.143251,0.0,0.0
42,10.25,42.5669,44.9038,130.018,104.164,106.326,0.0054942,0.0721499,20.948,561.659,-0.185815,0.0,0.0
48,11.75,42.6922,44.0472,129.738,104.187,106.765,0.00450082,0.0640071,20.9626,561.449,-0.221121,0.0,0.0
54,13.25,41.6748,43.4087,131.339,104.167,107.009,0.00383303,0.0590213,20.9723,561.539,-0.243498,0.0,0.0
60,14.75,41.9384,42.9217,132.817,104.163,106.622,0.00323398,0.056014,20.9786,561.519,-0.211052,0.0,0.0
66,16.25,42.1569,43.786,129.615,104.155,106.669,0.00273317,0.0542007,20.9824,561.459,-0.215815,0.0,0.0
72,17.75,41.5117,43.0837,131.368,104.163,105.771,0.00233888,0.0528023,20.9859,561.509,-0.138572,0.0,0.0
78,19.25,41.7054,43.4572,133.394,104.152,106.096,0.00205311,0.0516102,20.9884,561.439,-0.167284,0.0,0.0
84,20.75,42.0375,43.6727,135.553,104.158,106.825,0.00186025,0.0503529,20.9899,561.449,-0.228704,0.0,0.0
90,22.25,42.2443,43.6129,127.35,104.15,107.113,0.00168722,0.0491691,20.9916,561.489,-0.253781,0.0,0.0
96,23.75,41.7353,43.4811,128.788,104.156,106.25,0.00147088,0.0483211,20.9934,561.479,-0.180051,0.0,0.0
102,25.25,41.7141,44.2636,129.054,104.148,106.74,0.00125971,0.0475053,20.9952,561.439,-0.222328,0.0,0.0
108,26.75,42.0759,43.6471,136.228,104.149,106.038,0.00109476,0.0469129,20.9965,561.429,-0.162578,0.0,0.0
114,28.25,41.8227,43.5939,129.314,104.14,106.621,0.000992607,0.046243,20.9973,561.369,-0.212952,0.0,0.0
120,29.75,41.9968,43.9255,132.427,104.146,105.98,0.000956749,0.0457143,20.9977,561.409,-0.157905,0.0,0.0
126,31.25,41.8102,44.0442,135.609,104.144,106.646,0.000923682,0.0452754,20.9976,561.399,-0.214755,0.0,0.0
132,32.75,41.8754,43.6628,135.841,104.141,106.359,0.000847253,0.0449561,20.9971,561.439,-0.190607,0.0,0.0
138,34.25,42.0904,43.617,132.176,104.15,105.737,0.000758598,0.0447972,20.9979,561.449,-0.136799,0.0,0.0
144,35.75,41.6598,43.766,130.949,104.155,105.648,0.000678318,0.0445668,20.9984,561.429,-0.128742,0.0,0.0
150,37.25,41.8974,44.3275,132.414,104.147,106.112,0.000612133,0.0443241,20.9978,561.429,-0.169111,0.0,0.0
156,38.75,42.1387,43.4851,134.827,104.136,106.125,0.000615454,0.044218,20.998,561.419,-0.171177,0.0,0.0
162,40.25,42.489,43.9839,132.833,104.148,105.606,0.00065415,0.0441687,20.9973,561.389,-0.125703,0.0,0.0
168,41.75,42.0058,43.5877,134.347,104.138,106.722,0.000697062,0.0441036,20.997,561.389,-0.221746,0.0,0.0
174,43.25,42.1125,43.9308,130.536,104.158,106.627,0.00071295,0.0439425,20.9977,561.399,-0.211888,0.0,0.0
180,44.75,42.6129,44.2148,128.507,104.164,106.466,0.000707737,0.0439544,20.9983,561.399,-0.197734,0.0,0.0
186,46.25,42.6033,44.1323,128.969,104.168,105.945,0.000718361,0.0439224,20.9986,561.369,-0.153014,0.0,0.0
192,47.75,42.3358,43.9247,131.359,104.152,105.448,0.000765088,0.0439288,20.9987,561.349,-0.111838,0.0,0.0
198,49.25,42.4522,44.1853,132.067,104.168,105.85,0.000878588,0.0439477,20.9986,561.359,-0.144862,0.0,0.0
204,50.75,42.2808,44.1868,130.176,104.152,106.906,0.000976311,0.0439683,20.9984,561.349,-0.236113,0.0,0.0
210,52.25,42.1658,44.368,131.392,104.165,105.913,0.00099617,0.0439133,20.9982,561.339,-0.150527,0.0,0.0
216,53.75,42.9785,44.3629,135.989,104.152,105.71,0.000931553,0.0438634,20.998,561.359,-0.134268,0.0,0.0
222,55.25,42.1319,44.4979,131.135,104.171,106.27,0.000800306,0.0438968,20.9973,561.359,-0.180435,0.0,0.0
228,56.75,42.3974,44.2363,133.381,104.149,106.676,0.000674659,0.0439393,20.997,561.319,-0.216921,0.0,0.0
234,58.25,42.2226,44.4275,135.162,104.178,106.661,0.000615941,0.0438238,20.9968,561.309,-0.213085,0.0,0.0
240,59.75,42.3477,44.0126,130.911,104.167,106.889,0.000645892,0.0437549,20.9967,561.309,-0.233334,0.0,0.0
246,61.25,42.376,43.8564,134.342,104.182,107.561,0.000723808,0.043763,20.9967,561.289,-0.288676,0.0,0.0
252,62.75,42.9526,44.3385,132.217,104.176,106.032,0.000810451,0.0437619,20.9966,561.289,-0.159747,0.0,0.0
258,64.25,42.7497,43.7921,132.122,104.171,106.232,0.000866189,0.0436868,20.9966,561.309,-0.177221,0.0,0.0
264,65.75,42.2687,44.6181,134.366,104.172,107.073,0.000855203,0.0435676,20.9966,561.279,-0.248489,0.0,0.0
270,67.25,42.284,44.4683,131.682,104.182,107.12,0.000743873,0.0434928,20.9966,561.289,-0.251581,0.0,0.0
276,68.75,42.7107,43.9809,131.839,104.179,107.154,0.000601249,0.0435556,20.9966,561.239,-0.254672,0.0,0.0
282,70.25,43.0196,44.8026,135.244,104.182,106.892,0.000517703,0.0436518,20.9967,561.299,-0.232286,0.0,0.0
288,71.75,42.9931,44.4369,133.994,104.189,107.254,0.000552554,0.0436678,20.997,561.269,-0.262236,0.0,0.0
294,73.25,42.9453,44.5722,130.653,104.181,106.904,0.000674907,0.0436307,20.9972,561.249,-0.233388,0.0,0.0
300,74.75,43.0132,44.8051,129.667,104.184,107.029,0.000787384,0.0436141,20.9973,561.259,-0.243647,0.0,0.0
306,76.25,42.6281,44.4935,131.526,104.185,106.963,0.000826347,0.0436123,20.9974,561.219,-0.238061,0.0,0.0
312,77.75,42.5904,44.6372,133.397,104.191,107.806,0.000809768,0.0436194,20.9975,561.229,-0.308521,0.0,0.0
318,79.25,42.7062,44.4629,131.025,104.183,107.053,0.000783369,0.043601,20.9977,561.239,-0.245806,0.0,0.0
324,80.75,42.8466,44.4528,131.929,104.204,106.57,0.000765613,0.0436356,20.9978,561.219,-0.203142,0.0,0.0
330,82.25,42.9022,44.614,132.644,104.185,106.644,0.000770519,0.0436096,20.9974,561.208,-0.211037,0.0,0.0
336,83.75,42.8236,44.6902,130.866,104.196,106.684,0.000833198,0.0435696,20.9972,561.189,-0.213443,0.0,0.0
342,85.25,43.3478,44.592,129.609,104.187,107.104,0.000928302,0.043539,20.9971,561.189,-0.249804,0.0,0.0
348,86.75,42.6492,44.5608,132.652,104.193,105.97,0.000987758,0.0435706,20.9971,561.199,-0.152993,0.0,0.0
354,88.25,42.846,44.903,130.029,104.201,107.308,0.00102114,0.0436793,20.9971,561.189,-0.265691,0.0,0.0
360,89.75,43.162,44.6548,131.203,104.212,107.327,0.00102737,0.0437947,20.9971,561.169,-0.266346,0.0,0.0
366,91.25,42.5186,45.1755,131.664,104.19,106.422,0.00100762,0.0438357,20.9966,561.169,-0.191735,0.0,0.0
372,92.75,42.6891,44.6348,137.106,104.201,107.133,0.00100889,0.0438485,20.9957,561.179,-0.250995,0.0,0.0
378,94.25,42.952,44.588,130.985,104.199,107.451,0.00103002,0.0439004,20.9953,561.169,-0.277995,0.0,0.0
384,95.75,43.2256,44.2989,131.99,104.204,107.67,0.00104041,0.0437547,20.9958,561.169,-0.295967,0.0,0.0
390,97.25,42.4896,45.0185,131.25,104.206,106.552,0.00102798,0.0437607,20.9964,561.138,-0.201379,0.0,0.0
396,98.75,42.7488,45.2091,131.489,104.219,107.004,0.00102039,0.0438158,20.9967,561.128,-0.238551,0.0,0.0
402,100.25,43.0974,45.05,132.603,104.204,107.025,0.00103751,0.0438579,20.9969,561.128,-0.241684,0.0,0.0
408,101.75,43.128,45.0981,131.473,104.223,106.755,0.00109843,0.0438109,20.9971,561.138,-0.217133,0.0,0.0
414,103.25,43.306,44.9861,134.222,104.221,106.464,0.00118053,0.0438174,20.9971,561.108,-0.192619,0.0,0.0
420,104.75,43.049,44.6596,129.306,104.223,107.04,0.00122023,0.0437506,20.9972,561.118,-0.241255,0.0,0.0
426,106.25,43.0608,44.6371,133.307,104.231,106.717,0.00118161,0.0437087,20.9972,561.108,-0.213205,0.0,0.0
432,107.75,43.5262,44.9413,132.696,104.223,106.541,0.00110692,0.0436465,20.9972,561.118,-0.198966,0.0,0.0
438,109.25,43.1386,44.746,134.671,104.226,106.631,0.00100665,0.0435888,20.9972,561.108,-0.206298,0.0,0.0
444,110.75,43.3643,44.8911,131.052,104.235,106.604,0.000918679,0.0434755,20.9972,561.098,-0.203312,0.0,0.0
450,112.25,42.9331,44.9692,129.567,104.256,107.148,0.000850174,0.0435141,20.9972,561.098,-0.247521,0.0,0.0
456,113.75,43.0997,44.9095,132.178,104.248,106.777,0.000833476,0.0434902,20.9972,561.098,-0.216823,0.0,0.0
462,115.25,42.611,45.2083,137.392,104.272,106.285,,0.0435447,,561.108,-0.17297,0.0,0.0
468,116.75,43.2342,45.3605,129.769,104.278,107.566,,0.043646,,561.098,-0.280778,0.0,0.0
474,118.25,43.1422,45.3697,128.219,104.281,107.768,,,,561.048,-0.297542,0.0,0.0
480,119.75,43.4165,45.144,133.753,104.279,106.146,,,,561.058,-0.160566,0.0,0.0
486,121.25,43.0689,45.3664,132.87,104.304,106.863,,,,561.108,-0.219246,0.0,0.0
492,122.75,43.0527,45.0515,132.366,104.306,107.517,,,,561.118,-0.274247,0.0,0.0
498,124.25,43.1857,45.4102,132.262,104.323,107.485,,,,561.088,-0.270037,0.0,0.0
504,125.75,42.9644,45.2474,131.665,104.338,108.602,,,,561.108,-0.362305,0.0,0.0
505,126,43.2498,45.3673,132.435,104.344,107.041,,,,561.118,-0.230773,0.0,0.0