Folder: fsri_materials_database/01_Data/Window_Screen/MCC (part 2)

File: Window_Screen_MCC_30K_min_211203_R3.txt
Sample ID:	C:\MCC\MCC Cal\Test\Window_Screen_MCC_30K_min_211203_R3.txt
Sample Weight (mg):	4.33
Heating Rate (C/s):	0.5
Combustor Temp (C):	900
N2 Flow Rate (cc/min):	80
O2 Flow Rate (cc/min):	20
Calibration File:	C:\MCC\MCC Cal\Coeff1 JN10440_30_210304.txt.txt
T Correction Coefficients:	0	1.024463	0
Time Shift (s):	14
*
Time (s)	Temperature (C)	N2 flow rate (cc/min)	O2 flow rate (cc/min)	Flow Rate (cc/min)	Oxygen (%)	HRR (W/g)	Heating rate (C/s)
0.000	110.658	80.007	19.994	103.144	20.307	0.265	-0.034
8.000	110.685	80.006	19.993	103.142	20.313	-0.170	0.035
16.001	110.587	80.005	19.994	103.167	20.312	-0.119	0.013
24.000	110.688	80.004	19.993	103.164	20.309	0.111	0.032
32.001	110.881	80.007	19.994	103.231	20.304	0.511	0.049
40.001	111.314	80.006	19.994	103.261	20.293	1.295	0.080
48.000	111.989	80.005	19.994	103.289	20.286	1.817	0.076
56.000	112.963	80.005	19.996	103.333	20.280	2.265	0.138
64.001	114.456	80.006	19.994	103.351	20.282	2.149	0.189
72.000	116.196	80.005	19.994	103.352	20.278	2.430	0.248
80.001	118.213	80.004	19.994	103.376	20.275	2.661	0.245
88.000	120.522	80.006	19.995	103.370	20.271	2.963	0.330
96.000	123.082	80.004	19.994	103.396	20.268	3.147	0.329
104.000	125.858	80.003	19.995	103.386	20.270	3.021	0.395
112.001	128.841	80.006	19.993	103.393	20.269	3.135	0.419
120.001	132.080	80.006	19.995	103.407	20.263	3.521	0.441
128.000	135.456	80.005	19.993	103.409	20.264	3.513	0.446
136.000	138.930	80.005	19.993	103.415	20.267	3.287	0.434
144.000	142.620	80.007	19.994	103.410	20.261	3.721	0.436
152.000	146.476	80.004	19.996	103.395	20.261	3.691	0.469
160.000	150.384	80.006	19.995	103.398	20.262	3.601	0.485
168.000	154.305	80.005	19.994	103.400	20.255	4.123	0.519
176.000	158.264	80.006	19.995	103.382	20.257	3.967	0.508
184.000	162.269	80.005	19.995	103.388	20.254	4.248	0.498
192.000	166.399	80.005	19.994	103.392	20.253	4.328	0.517
200.000	170.514	80.007	19.994	103.376	20.247	4.758	0.501
208.000	174.541	80.006	19.994	103.375	20.242	5.128	0.518
216.000	178.630	80.005	19.995	103.361	20.241	5.195	0.509
224.000	182.667	80.007	19.995	103.365	20.239	5.320	0.523
232.000	186.761	80.008	19.994	103.349	20.229	6.054	0.523
240.000	190.790	80.005	19.994	103.346	20.223	6.539	0.511
248.000	194.715	80.004	19.997	103.343	20.217	6.956	0.543
256.000	198.671	80.004	19.994	103.341	20.208	7.642	0.508
264.000	202.589	80.005	19.994	103.343	20.197	8.481	0.494
272.001	206.572	80.004	19.994	103.336	20.180	9.751	0.497
280.000	210.453	80.005	19.994	103.334	20.169	10.583	0.480
288.001	214.383	80.006	19.994	103.331	20.147	12.160	0.450
296.000	218.328	80.006	19.993	103.332	20.126	13.740	0.508
304.000	222.214	80.007	19.993	103.333	20.106	15.235	0.508
312.000	226.181	80.008	19.995	103.333	20.075	17.556	0.472
320.000	230.164	80.004	19.994	103.333	20.047	19.668	0.506
328.000	234.171	80.004	19.996	103.335	20.008	22.538	0.506
336.000	238.164	80.003	19.995	103.335	19.974	25.040	0.487
344.000	242.073	80.004	19.995	103.333	19.921	29.022	0.500
352.000	246.106	80.004	19.996	103.329	19.873	32.568	0.527
360.000	250.101	80.005	19.994	103.332	19.821	36.485	0.484
368.000	254.150	80.007	19.995	103.332	19.756	41.287	0.498
376.000	258.153	80.006	19.995	103.328	19.703	45.278	0.461
384.000	262.157	80.004	19.994	103.332	19.638	50.111	0.478
392.000	266.221	80.006	19.994	103.363	19.579	54.517	0.459
400.000	270.207	80.006	19.994	103.333	19.521	58.811	0.526
408.000	274.221	80.004	19.994	103.339	19.497	60.601	0.511
416.000	278.158	80.004	19.995	103.333	19.486	61.430	0.470
424.000	282.075	80.004	19.993	103.349	19.488	61.268	0.479
432.000	286.093	80.003	19.995	103.382	19.491	61.065	0.506
440.000	289.990	80.004	19.996	103.397	19.506	59.924	0.490
448.000	293.981	80.007	19.994	103.462	19.533	57.918	0.504
456.001	298.026	80.006	19.994	103.347	19.654	48.857	0.531
464.000	301.913	80.005	19.993	103.232	19.857	33.758	0.511
472.000	305.909	80.006	19.993	103.215	20.062	18.499	0.492
480.000	309.906	80.007	19.994	103.212	20.168	10.588	0.510
488.000	313.933	80.004	19.993	103.216	20.217	6.969	0.483
496.000	317.943	80.005	19.995	103.231	20.230	6.013	0.470
504.000	322.048	80.005	19.994	103.249	20.241	5.198	0.482
512.000	326.036	80.004	19.996	103.253	20.246	4.825	0.512
520.000	330.067	80.006	19.995	103.276	20.250	4.538	0.508
528.000	334.194	80.005	19.995	103.263	20.262	3.656	0.559
536.000	338.364	80.005	19.995	103.264	20.258	3.948	0.525
544.000	342.444	80.006	19.995	103.258	20.264	3.497	0.515
552.000	346.511	80.005	19.993	103.288	20.264	3.454	0.500
560.000	350.656	80.009	19.996	103.283	20.265	3.417	0.537
568.000	354.780	80.006	19.993	103.293	20.269	3.096	0.571
576.000	358.788	80.004	19.995	103.295	20.263	3.579	0.440
584.000	362.901	80.005	19.993	103.299	20.265	3.421	0.471
592.000	366.775	80.007	19.994	103.302	20.264	3.506	0.514
600.000	370.992	80.004	19.994	103.295	20.262	3.629	0.566
608.000	375.026	80.006	19.995	103.306	20.259	3.883	0.524
616.000	379.059	80.006	19.995	103.319	20.257	3.976	0.509
624.000	383.219	80.005	19.994	103.289	20.252	4.395	0.527
632.000	387.360	80.005	19.997	103.298	20.248	4.656	0.510
640.000	391.507	80.006	19.996	103.293	20.247	4.775	0.541
648.000	395.623	80.007	19.993	103.295	20.238	5.418	0.512
656.000	399.787	80.004	19.995	103.295	20.233	5.771	0.488
664.000	403.831	80.005	19.994	103.294	20.224	6.422	0.522
672.000	408.009	80.004	19.995	103.290	20.210	7.507	0.515
680.000	412.016	80.005	19.993	103.292	20.199	8.346	0.491
688.000	416.013	80.004	19.994	103.293	20.182	9.593	0.499
696.000	420.098	80.005	19.994	103.288	20.164	10.916	0.496
704.000	424.191	80.007	19.995	103.292	20.140	12.719	0.504
712.000	428.270	80.007	19.995	103.282	20.109	15.035	0.528
720.000	432.385	80.007	19.994	103.283	20.073	17.677	0.537
728.001	436.433	80.007	19.995	103.275	20.034	20.606	0.507
736.000	440.455	80.003	19.995	103.287	19.992	23.743	0.522
744.000	444.405	80.004	19.993	103.284	19.951	26.771	0.465
752.000	448.428	80.005	19.994	103.277	19.910	29.836	0.492
760.000	452.457	80.005	19.995	103.290	19.885	31.650	0.480
768.000	456.539	80.006	19.995	103.254	19.869	32.839	0.514
776.001	460.602	80.005	19.994	103.284	19.870	32.827	0.521
784.000	464.658	80.007	19.993	103.291	19.882	31.912	0.534
792.000	468.662	80.007	19.994	103.294	19.904	30.278	0.507
800.000	472.783	80.004	19.994	103.278	19.929	28.396	0.514
808.000	476.954	80.006	19.995	103.280	19.958	26.246	0.536
816.000	481.050	80.008	19.994	103.283	19.992	23.735	0.532
824.001	485.154	80.004	19.996	103.286	20.028	21.008	0.532
832.000	489.252	80.005	19.995	103.282	20.062	18.508	0.518
840.000	493.416	80.005	19.994	103.255	20.093	16.214	0.496
848.000	497.566	80.004	19.994	103.264	20.126	13.742	0.510
856.000	501.676	80.002	19.994	103.259	20.156	11.521	0.521
864.000	505.793	80.005	19.994	103.258	20.179	9.767	0.530
872.000	509.921	80.007	19.993	103.253	20.201	8.183	0.503
880.000	514.039	80.008	19.993	103.254	20.216	7.040	0.510
888.001	518.179	80.007	19.994	103.262	20.228	6.139	0.509
896.000	522.400	80.009	19.994	103.251	20.232	5.864	0.520
904.001	526.531	80.005	19.994	103.256	20.245	4.915	0.530
912.000	530.634	80.004	19.994	103.255	20.250	4.521	0.533
920.000	534.772	80.007	19.995	103.254	20.256	4.050	0.515
928.000	538.919	80.003	19.996	103.255	20.254	4.227	0.526
936.000	542.988	80.003	19.993	103.255	20.266	3.317	0.503
944.000	547.028	80.008	19.995	103.258	20.265	3.407	0.516
952.000	551.134	80.006	19.994	103.251	20.269	3.120	0.514
960.000	555.178	80.007	19.994	103.254	20.263	3.533	0.482
968.000	559.278	80.009	19.994	103.253	20.270	3.027	0.512
976.000	563.296	80.009	19.993	103.250	20.274	2.767	0.494
984.000	567.361	80.008	19.995	103.255	20.272	2.910	0.497
992.000	571.404	80.005	19.995	103.255	20.269	3.071	0.500
1000.000	575.524	80.004	19.994	103.255	20.273	2.795	0.503
1008.000	579.615	80.006	19.996	103.248	20.273	2.801	0.522
1016.000	583.744	80.005	19.994	103.245	20.271	2.935	0.518
1024.000	587.814	80.004	19.995	103.252	20.274	2.754	0.499
1032.000	591.961	80.007	19.995	103.253	20.277	2.508	0.536
1040.001	596.118	80.007	19.995	103.251	20.274	2.723	0.550
1048.000	600.226	80.005	19.995	103.250	20.272	2.865	0.532
1056.000	604.251	80.008	19.994	103.252	20.272	2.873	0.521
1064.000	608.333	80.009	19.993	103.253	20.273	2.807	0.522
1072.001	612.441	80.006	19.995	103.248	20.279	2.380	0.512
1080.001	616.524	80.005	19.993	103.244	20.279	2.380	0.491
1088.001	620.610	80.005	19.995	103.250	20.276	2.546	0.491
1096.000	624.822	80.006	19.995	103.251	20.277	2.497	0.532
1104.000	628.962	80.005	19.995	103.244	20.274	2.756	0.519
1112.000	633.155	80.004	19.995	103.249	20.277	2.473	0.536
1120.001	637.236	80.006	19.995	103.251	20.279	2.372	0.497
1128.001	641.350	80.005	19.994	103.246	20.278	2.452	0.481
1136.000	645.462	80.007	19.994	103.245	20.272	2.861	0.532
1144.000	649.491	80.007	19.995	103.251	20.266	3.327	0.508
1152.000	653.600	80.007	19.993	103.249	20.272	2.902	0.515
1160.000	657.635	80.005	19.995	103.231	20.271	2.959	0.482
1168.000	661.679	80.006	19.994	103.241	20.271	2.941	0.501
1176.001	665.682	80.005	19.995	103.241	20.284	2.017	0.473
1184.001	669.698	80.005	19.994	103.249	20.279	2.386	0.496
1192.000	673.785	80.004	19.994	103.232	20.278	2.454	0.480
1200.000	677.830	80.005	19.994	103.236	20.273	2.809	0.462
1208.000	681.905	80.007	19.994	103.249	20.278	2.458	0.506
1216.001	686.001	80.005	19.996	103.226	20.278	2.466	0.491
1224.001	690.119	80.007	19.994	103.242	20.279	2.343	0.496
1232.001	694.239	80.008	19.993	103.240	20.272	2.854	0.505
1240.001	698.411	80.004	19.993	103.232	20.279	2.329	0.501
1248.001	702.418	80.006	19.995	103.227	20.279	2.349	0.488
1256.001	706.467	80.004	19.993	103.230	20.274	2.729	0.502
1264.001	710.517	80.006	19.993	103.228	20.274	2.727	0.523
1272.001	714.553	80.005	19.995	103.239	20.277	2.497	0.488
1280.001	718.660	80.006	19.996	103.229	20.281	2.197	0.509
1288.000	722.687	80.006	19.996	103.221	20.276	2.548	0.508
1296.000	726.656	80.008	19.995	103.229	20.272	2.842	0.491
1304.001	730.564	80.004	19.994	103.219	20.271	2.949	0.501
1312.001	734.516	80.006	19.993	103.220	20.267	3.269	0.502
1320.000	738.493	80.007	19.994	103.223	20.271	2.926	0.528
1328.001	742.459	80.005	19.994	103.222	20.275	2.676	0.494
1330.001	743.469	80.005	19.994	103.222	20.269	3.076	0.528