Folder: fsri_materials_database/01_Data/Window_Screen/MCC

Note: 01_Data/README.md
# Materials and Products Database
## 01_Data

Raw data generated from each apparatus are included here in plain-text format. The data is organized first by material, next by the short name of test apparatus used, and where applicable additional filtering by test settings.

### material.json

Each material directory contains a json file of the same name as the material. This file links the data stored in the repository as well as data and graphs produced by the accompanying scripts (__02_Scripts__) to the respective landing page for the material on the front-end website.

File: Window_Screen_MCC_30K_min_211203_R1.txt
Sample ID:	C:\MCC\MCC Cal\Test\Window_Screen_MCC_30K_min_211203_R1.txt
Sample Weight (mg):	4.57
Heating Rate (C/s):	0.5
Combustor Temp (C):	900
N2 Flow Rate (cc/min):	80
O2 Flow Rate (cc/min):	20
Calibration File:	C:\MCC\MCC Cal\Coeff1 JN10440_30_210304.txt.txt
T Correction Coefficients:	0	1.024463	0
Time Shift (s):	14
*
Time (s)	Temperature (C)	N2 flow rate (cc/min)	O2 flow rate (cc/min)	Flow Rate (cc/min)	Oxygen (%)	HRR (W/g)	Heating rate (C/s)
0.000	109.484	80.005	19.995	103.104	20.236	0.338	-0.013
8.001	109.532	80.008	19.995	103.129	20.238	0.171	-0.007
16.000	109.507	80.007	19.994	103.171	20.230	0.773	0.022
24.000	109.712	80.005	19.994	103.207	20.216	1.723	0.028
32.000	110.464	80.009	19.995	103.309	20.207	2.401	0.103
40.000	111.665	80.008	19.995	103.325	20.204	2.612	0.166
47.999	113.227	80.007	19.996	103.334	20.197	3.086	0.202
55.999	115.244	80.006	19.996	103.358	20.192	3.458	0.272
63.999	117.491	80.004	19.996	103.432	20.194	3.254	0.304
72.000	120.188	80.006	19.996	103.390	20.188	3.725	0.321
79.999	123.176	80.006	19.996	103.394	20.186	3.863	0.389
88.000	126.323	80.004	19.994	103.387	20.182	4.145	0.397
95.999	129.718	80.008	19.995	103.401	20.187	3.815	0.430
104.000	133.353	80.004	19.994	103.393	20.184	3.988	0.452
111.999	137.150	80.008	19.993	103.391	20.181	4.180	0.471
120.000	141.016	80.008	19.994	103.376	20.178	4.405	0.508
128.000	145.027	80.006	19.996	103.385	20.186	3.877	0.495
136.000	149.165	80.007	19.995	103.383	20.184	3.972	0.525
144.000	153.288	80.006	19.994	103.378	20.183	4.034	0.499
152.000	157.373	80.006	19.995	103.372	20.177	4.466	0.528
160.000	161.428	80.005	19.995	103.351	20.182	4.148	0.496
168.000	165.506	80.005	19.995	103.339	20.180	4.279	0.489
176.000	169.587	80.007	19.994	103.338	20.178	4.425	0.523
183.999	173.578	80.006	19.994	103.334	20.171	4.921	0.476
191.999	177.612	80.007	19.994	103.334	20.168	5.117	0.527
199.999	181.504	80.009	19.994	103.337	20.168	5.126	0.491
207.999	185.425	80.008	19.994	103.323	20.162	5.521	0.525
215.999	189.354	80.005	19.993	103.334	20.155	6.051	0.465
223.999	193.277	80.007	19.995	103.333	20.148	6.540	0.499
231.999	197.169	80.007	19.995	103.325	20.139	7.134	0.516
239.999	201.025	80.006	19.995	103.310	20.132	7.643	0.459
248.000	204.956	80.005	19.995	103.311	20.115	8.855	0.479
255.999	208.942	80.006	19.996	103.319	20.104	9.653	0.478
264.000	212.838	80.005	19.996	103.324	20.079	11.370	0.456
272.000	216.843	80.006	19.995	103.323	20.067	12.255	0.499
280.000	220.765	80.007	19.995	103.315	20.045	13.791	0.479
288.000	224.765	80.006	19.993	103.315	20.014	16.000	0.512
296.000	228.842	80.007	19.995	103.312	19.986	17.956	0.499
304.000	232.911	80.005	19.994	103.304	19.956	20.077	0.480
312.000	236.891	80.007	19.995	103.301	19.912	23.176	0.489
320.000	240.919	80.006	19.996	103.298	19.874	25.874	0.479
328.000	244.973	80.005	19.995	103.303	19.827	29.155	0.527
336.000	248.921	80.005	19.995	103.307	19.780	32.460	0.492
344.000	252.972	80.006	19.996	103.302	19.731	35.919	0.477
352.000	256.997	80.005	19.996	103.303	19.681	39.472	0.521
360.000	260.958	80.006	19.995	103.304	19.627	43.278	0.491
368.000	264.954	80.008	19.995	103.298	19.577	46.832	0.491
376.000	268.867	80.006	19.995	103.313	19.518	50.942	0.474
384.000	272.948	80.004	19.995	103.314	19.475	53.994	0.476
392.000	276.924	80.005	19.994	103.335	19.447	56.021	0.501
400.000	280.907	80.005	19.994	103.352	19.415	58.252	0.492
408.000	284.930	80.005	19.995	103.367	19.389	60.111	0.479
416.000	288.923	80.006	19.996	103.455	19.341	63.503	0.495
424.000	292.972	80.007	19.994	103.470	19.311	65.536	0.508
432.000	297.002	80.006	19.995	103.307	19.375	60.961	0.502
440.000	300.980	80.007	19.995	103.160	19.622	43.590	0.472
448.000	304.985	80.008	19.996	103.178	19.914	22.998	0.500
456.000	308.960	80.007	19.995	103.184	20.073	11.838	0.509
464.000	313.025	80.005	19.996	103.192	20.141	7.039	0.527
472.000	317.113	80.005	19.994	103.220	20.166	5.281	0.503
480.000	321.156	80.006	19.995	103.226	20.176	4.544	0.528
488.000	325.209	80.005	19.994	103.261	20.180	4.248	0.519
496.000	329.286	80.006	19.995	103.260	20.186	3.865	0.517
504.000	333.343	80.008	19.994	103.258	20.193	3.386	0.555
512.000	337.412	80.008	19.996	103.255	20.199	2.898	0.501
520.000	341.530	80.008	19.995	103.258	20.200	2.870	0.451
528.000	345.672	80.008	19.994	103.266	20.204	2.567	0.584
536.000	349.699	80.007	19.995	103.262	20.206	2.464	0.494
544.000	353.802	80.004	19.993	103.258	20.211	2.096	0.532
552.000	357.853	80.006	19.996	103.266	20.211	2.113	0.506
560.000	361.866	80.005	19.995	103.261	20.209	2.205	0.523
568.000	365.905	80.005	19.995	103.261	20.208	2.328	0.528
576.000	369.829	80.005	19.996	103.258	20.205	2.518	0.481
584.000	373.857	80.007	19.994	103.252	20.205	2.505	0.495
592.000	377.803	80.008	19.995	103.283	20.199	2.929	0.494
600.000	381.814	80.006	19.995	103.276	20.196	3.112	0.473
608.000	385.838	80.007	19.995	103.260	20.186	3.822	0.495
616.000	389.888	80.009	19.995	103.261	20.181	4.223	0.472
624.000	393.938	80.005	19.996	103.260	20.176	4.558	0.548
632.000	398.034	80.003	19.995	103.260	20.164	5.433	0.513
640.000	402.031	80.005	19.995	103.258	20.160	5.645	0.488
648.000	406.125	80.007	19.996	103.255	20.152	6.243	0.527
656.000	410.201	80.004	19.995	103.257	20.132	7.672	0.513
664.000	414.188	80.006	19.993	103.265	20.123	8.322	0.474
672.000	418.223	80.007	19.995	103.260	20.100	9.910	0.531
680.000	422.258	80.005	19.994	103.259	20.074	11.739	0.499
688.000	426.264	80.005	19.994	103.245	20.044	13.832	0.506
696.000	430.265	80.008	19.994	103.240	20.008	16.422	0.488
704.000	434.354	80.006	19.996	103.240	19.966	19.368	0.511
712.000	438.368	80.005	19.996	103.248	19.925	22.252	0.534
720.000	442.387	80.006	19.996	103.251	19.881	25.371	0.540
728.000	446.426	80.005	19.995	103.250	19.851	27.485	0.517
736.000	450.477	80.005	19.998	103.254	19.836	28.515	0.492
744.000	454.587	80.005	19.996	103.257	19.826	29.190	0.519
752.000	458.700	80.006	19.993	103.240	19.827	29.134	0.533
760.000	462.779	80.006	19.995	103.254	19.835	28.552	0.524
768.000	466.824	80.007	19.995	103.249	19.851	27.478	0.495
776.000	470.911	80.009	19.994	103.244	19.879	25.468	0.511
784.000	475.152	80.007	19.993	103.236	19.902	23.870	0.532
792.000	479.236	80.005	19.995	103.242	19.932	21.725	0.508
800.000	483.385	80.007	19.997	103.247	19.979	18.456	0.503
808.000	487.498	80.006	19.996	103.244	20.016	15.846	0.500
816.000	491.670	80.005	19.994	103.229	20.049	13.495	0.525
824.000	495.787	80.006	19.996	103.227	20.076	11.591	0.491
832.000	499.968	80.006	19.996	103.241	20.112	9.058	0.516
840.000	504.091	80.007	19.994	103.247	20.135	7.447	0.514
848.000	508.291	80.006	19.995	103.241	20.156	5.949	0.534
856.000	512.343	80.008	19.995	103.255	20.176	4.530	0.506
864.000	516.440	80.007	19.995	103.223	20.180	4.299	0.511
872.000	520.536	80.005	19.996	103.236	20.189	3.627	0.515
880.000	524.633	80.005	19.994	103.231	20.198	3.018	0.500
888.000	528.706	80.007	19.995	103.232	20.209	2.204	0.566
896.000	532.773	80.006	19.996	103.240	20.212	2.049	0.509
904.000	536.860	80.003	19.993	103.222	20.210	2.189	0.498
912.000	540.973	80.006	19.995	103.256	20.210	2.168	0.498
920.000	545.027	80.007	19.996	103.218	20.215	1.798	0.508
928.000	549.172	80.006	19.995	103.221	20.216	1.761	0.496
936.000	553.261	80.007	19.995	103.223	20.220	1.479	0.511
944.000	557.422	80.008	19.995	103.223	20.224	1.187	0.508
952.000	561.588	80.005	19.994	103.239	20.222	1.277	0.528
960.000	565.626	80.005	19.995	103.234	20.223	1.239	0.503
968.000	569.763	80.007	19.994	103.240	20.232	0.632	0.505
976.000	573.863	80.006	19.994	103.223	20.227	0.990	0.518
984.000	578.050	80.005	19.995	103.253	20.227	0.936	0.517
992.000	582.059	80.007	19.996	103.232	20.232	0.621	0.487
1000.000	586.108	80.006	19.994	103.225	20.231	0.659	0.510
1008.000	590.152	80.006	19.993	103.226	20.224	1.186	0.504
1016.000	594.193	80.006	19.996	103.238	20.229	0.840	0.498
1024.000	598.267	80.008	19.995	103.217	20.228	0.918	0.483
1031.999	602.354	80.007	19.994	103.226	20.232	0.570	0.536
1039.999	606.413	80.007	19.995	103.198	20.234	0.496	0.500
1047.999	610.484	80.007	19.995	103.218	20.231	0.693	0.517
1056.000	614.539	80.006	19.995	103.225	20.236	0.346	0.470
1063.999	618.561	80.007	19.995	103.222	20.230	0.757	0.468
1071.999	622.593	80.005	19.994	103.232	20.231	0.660	0.490
1079.999	626.650	80.008	19.994	103.238	20.231	0.665	0.541
1088.000	630.769	80.008	19.995	103.235	20.232	0.597	0.538
1095.999	634.868	80.007	19.995	103.225	20.239	0.084	0.549
1104.000	639.000	80.010	19.996	103.220	20.238	0.173	0.525
1112.000	643.139	80.009	19.996	103.232	20.235	0.389	0.551
1119.999	647.184	80.005	19.995	103.230	20.236	0.339	0.506
1128.001	651.261	80.004	19.995	103.223	20.234	0.473	0.522
1135.999	655.346	80.005	19.995	103.228	20.234	0.492	0.525
1144.001	659.379	80.004	19.994	103.237	20.238	0.200	0.492
1151.999	663.444	80.006	19.995	103.229	20.238	0.148	0.513
1159.999	667.563	80.007	19.994	103.218	20.240	0.045	0.524
1167.999	671.610	80.008	19.994	103.218	20.236	0.350	0.500
1175.999	675.758	80.006	19.996	103.218	20.238	0.173	0.520
1184.000	679.782	80.007	19.995	103.216	20.234	0.469	0.511
1192.000	683.863	80.008	19.995	103.219	20.239	0.134	0.510
1199.999	687.887	80.005	19.994	103.223	20.237	0.231	0.502
1207.999	692.037	80.006	19.995	103.225	20.239	0.080	0.526
1216.000	696.120	80.007	19.996	103.259	20.241	-0.019	0.491
1223.999	700.189	80.006	19.994	103.223	20.241	-0.053	0.494
1231.999	704.094	80.006	19.995	103.221	20.235	0.403	0.455
1239.999	708.106	80.006	19.995	103.220	20.234	0.471	0.494
1247.999	712.038	80.008	19.995	103.226	20.233	0.541	0.507
1255.999	716.149	80.007	19.995	103.224	20.236	0.302	0.527
1263.999	720.236	80.007	19.995	103.228	20.236	0.354	0.497
1271.999	724.267	80.009	19.995	103.232	20.235	0.428	0.492
1279.999	728.377	80.007	19.993	103.218	20.235	0.377	0.540
1288.001	732.311	80.005	19.994	103.229	20.233	0.516	0.499
1296.000	736.341	80.006	19.995	103.222	20.234	0.484	0.510
1304.000	740.343	80.005	19.995	103.220	20.234	0.496	0.487
1310.000	743.394	80.005	19.996	103.215	20.231	0.667	0.506

File: Window_Screen_MCC_30K_min_211203_R2.txt
Sample ID:	C:\MCC\MCC Cal\Test\Window_Screen_MCC_30K_min_211203_R2.txt
Sample Weight (mg):	4.8
Heating Rate (C/s):	0.5
Combustor Temp (C):	900
N2 Flow Rate (cc/min):	80
O2 Flow Rate (cc/min):	20
Calibration File:	C:\MCC\MCC Cal\Coeff1 JN10440_30_210304.txt.txt
T Correction Coefficients:	0	1.024463	0
Time Shift (s):	14
*
Time (s)	Temperature (C)	N2 flow rate (cc/min)	O2 flow rate (cc/min)	Flow Rate (cc/min)	Oxygen (%)	HRR (W/g)	Heating rate (C/s)
-0.001	111.172	80.005	19.994	103.158	20.237	-0.030	-0.016
8.000	111.130	80.004	19.994	103.149	20.238	-0.115	-0.012
16.000	111.179	80.005	19.995	103.173	20.232	0.311	0.006
24.000	111.192	80.007	19.995	103.217	20.228	0.534	-0.014
32.000	111.469	80.007	19.993	103.283	20.220	1.124	0.038
40.000	112.173	80.007	19.993	103.406	20.201	2.356	0.108
48.000	113.434	80.007	19.995	103.377	20.195	2.764	0.202
56.001	115.130	80.007	19.995	103.356	20.195	2.773	0.239
63.999	117.130	80.005	19.994	103.386	20.189	3.198	0.259
72.000	119.447	80.006	19.995	103.402	20.196	2.732	0.318
80.000	122.010	80.005	19.995	103.384	20.190	3.119	0.327
87.999	124.867	80.004	19.995	103.380	20.194	2.851	0.354
95.999	127.808	80.005	19.994	103.375	20.192	2.994	0.380
103.999	130.976	80.007	19.994	103.391	20.188	3.265	0.387
111.999	134.164	80.008	19.995	103.390	20.188	3.262	0.426
120.000	137.589	80.006	19.995	103.395	20.185	3.441	0.451
127.999	141.022	80.008	19.994	103.382	20.187	3.345	0.451
136.000	144.597	80.007	19.994	103.376	20.186	3.382	0.426
144.001	148.185	80.006	19.993	103.376	20.186	3.406	0.430
152.000	151.897	80.005	19.995	103.375	20.181	3.751	0.437
160.000	155.653	80.007	19.995	103.398	20.186	3.386	0.499
168.000	159.461	80.005	19.994	103.362	20.179	3.847	0.461
176.000	163.389	80.005	19.996	103.339	20.178	3.942	0.490
184.001	167.320	80.006	19.996	103.382	20.174	4.198	0.496
192.001	171.317	80.007	19.994	103.381	20.169	4.513	0.486
200.000	175.326	80.007	19.994	103.387	20.165	4.817	0.510
208.000	179.363	80.005	19.994	103.374	20.163	4.948	0.513
216.000	183.429	80.008	19.994	103.365	20.154	5.529	0.518
224.001	187.545	80.007	19.993	103.376	20.149	5.879	0.553
232.000	191.564	80.007	19.995	103.357	20.140	6.462	0.492
240.000	195.601	80.006	19.994	103.337	20.136	6.774	0.559
248.000	199.587	80.005	19.995	103.352	20.126	7.394	0.505
256.000	203.604	80.006	19.994	103.368	20.115	8.177	0.510
264.000	207.600	80.005	19.994	103.339	20.101	9.106	0.513
272.000	211.565	80.006	19.995	103.343	20.082	10.340	0.460
280.000	215.537	80.006	19.996	103.333	20.064	11.576	0.472
288.000	219.435	80.006	19.995	103.315	20.039	13.239	0.484
296.000	223.379	80.008	19.994	103.332	20.014	14.946	0.498
304.000	227.338	80.009	19.994	103.326	19.984	16.943	0.519
312.000	231.264	80.006	19.994	103.325	19.948	19.350	0.474
320.000	235.264	80.005	19.994	103.323	19.907	22.130	0.534
328.000	239.155	80.007	19.994	103.330	19.864	25.001	0.469
336.000	243.079	80.004	19.994	103.324	19.816	28.234	0.520
344.000	247.094	80.003	19.995	103.325	19.766	31.570	0.519
352.000	251.101	80.007	19.995	103.315	19.712	35.211	0.512
360.000	255.054	80.008	19.994	103.314	19.650	39.346	0.475
368.000	259.046	80.006	19.995	103.312	19.586	43.665	0.474
376.000	262.985	80.007	19.996	103.330	19.513	48.587	0.502
384.000	267.058	80.008	19.996	103.333	19.446	53.120	0.519
392.000	271.028	80.007	19.995	103.335	19.392	56.688	0.506
400.000	275.093	80.006	19.995	103.340	19.357	59.064	0.515
408.000	279.123	80.006	19.994	103.374	19.336	60.522	0.512
416.000	283.225	80.007	19.995	103.366	19.319	61.769	0.520
424.000	287.085	80.006	19.995	103.467	19.286	63.918	0.425
432.000	291.286	80.005	19.994	103.491	19.239	66.975	0.243
440.000	295.374	80.008	19.995	103.305	19.320	61.523	0.477
448.000	299.299	80.007	19.995	103.316	19.524	47.782	0.474
456.000	303.298	80.006	19.995	103.205	19.837	26.752	0.501
464.000	307.285	80.007	19.995	103.179	20.039	13.251	0.493
472.000	311.359	80.009	19.994	103.180	20.117	8.010	0.504
480.000	315.504	80.004	19.995	103.212	20.145	6.110	0.490
488.000	319.531	80.007	19.995	103.220	20.160	5.138	0.503
496.000	323.669	80.006	19.994	103.235	20.167	4.688	0.550
504.000	327.711	80.008	19.995	103.256	20.168	4.563	0.505
512.000	331.812	80.007	19.994	103.262	20.179	3.879	0.504
520.000	335.868	80.006	19.994	103.272	20.183	3.571	0.517
528.000	339.887	80.006	19.994	103.295	20.186	3.405	0.503
536.000	343.911	80.006	19.993	103.282	20.194	2.873	0.487
544.000	347.908	80.007	19.994	103.287	20.193	2.917	0.456
552.001	352.039	80.010	19.995	103.289	20.188	3.238	0.499
560.000	356.036	80.007	19.995	103.293	20.187	3.346	0.457
568.000	360.008	80.006	19.995	103.293	20.182	3.624	0.488
576.000	364.014	80.005	19.995	103.295	20.192	2.958	0.470
584.000	368.065	80.007	19.993	103.299	20.187	3.329	0.519
592.000	372.147	80.007	19.995	103.304	20.180	3.770	0.494
600.000	376.254	80.006	19.994	103.298	20.182	3.655	0.518
608.000	380.358	80.010	19.994	103.295	20.172	4.313	0.520
616.000	384.405	80.008	19.994	103.295	20.171	4.411	0.538
624.000	388.458	80.008	19.994	103.307	20.165	4.804	0.524
632.000	392.460	80.010	19.994	103.295	20.151	5.718	0.485
640.000	396.542	80.010	19.995	103.294	20.144	6.202	0.485
648.000	400.584	80.007	19.994	103.297	20.130	7.147	0.476
656.000	404.645	80.006	19.995	103.306	20.108	8.591	0.523
664.000	408.679	80.005	19.995	103.294	20.100	9.151	0.505
672.000	412.658	80.006	19.994	103.297	20.079	10.535	0.508
680.000	416.640	80.006	19.995	103.298	20.054	12.229	0.533
688.000	420.783	80.010	19.996	103.297	20.021	14.430	0.569
696.000	424.780	80.009	19.995	103.295	19.979	17.281	0.488
704.000	428.921	80.007	19.995	103.295	19.946	19.524	0.520
712.000	432.958	80.008	19.993	103.295	19.900	22.592	0.522
720.000	437.020	80.010	19.994	103.293	19.855	25.593	0.499
728.000	441.146	80.006	19.994	103.293	19.822	27.841	0.529
736.000	445.155	80.005	19.995	103.296	19.791	29.875	0.490
744.000	449.255	80.009	19.996	103.339	19.782	30.518	0.499
752.000	453.343	80.007	19.995	103.293	19.783	30.459	0.531
760.000	457.415	80.006	19.996	103.292	19.799	29.344	0.506
768.000	461.571	80.007	19.995	103.289	19.827	27.509	0.492
776.000	465.680	80.010	19.995	103.292	19.860	25.236	0.499
784.000	469.778	80.007	19.993	103.293	19.894	22.956	0.515
792.001	473.965	80.008	19.994	103.301	19.926	20.861	0.513
800.000	478.061	80.008	19.993	103.281	19.952	19.096	0.530
808.000	482.180	80.008	19.993	103.291	19.977	17.400	0.497
816.000	486.259	80.006	19.993	103.281	20.006	15.456	0.543
824.000	490.340	80.005	19.994	103.284	20.040	13.177	0.536
832.000	494.431	80.007	19.994	103.279	20.068	11.304	0.528
840.000	498.530	80.006	19.995	103.276	20.095	9.484	0.506
848.000	502.590	80.005	19.994	103.294	20.118	7.946	0.540
856.000	506.674	80.007	19.996	103.276	20.133	6.945	0.536
864.000	510.748	80.006	19.995	103.272	20.145	6.151	0.509
872.000	514.851	80.007	19.993	103.272	20.151	5.718	0.535
880.000	518.914	80.008	19.994	103.261	20.167	4.625	0.500
888.000	523.050	80.009	19.993	103.254	20.171	4.368	0.539
896.000	527.112	80.008	19.995	103.272	20.172	4.341	0.493
904.000	531.268	80.007	19.994	103.261	20.175	4.108	0.500
912.000	535.397	80.006	19.994	103.258	20.181	3.727	0.556
920.000	539.414	80.005	19.994	103.268	20.191	3.019	0.542
928.000	543.576	80.005	19.995	103.285	20.198	2.579	0.569
936.000	547.683	80.005	19.995	103.279	20.200	2.429	0.552
944.000	551.748	80.008	19.994	103.256	20.198	2.577	0.544
952.000	555.828	80.007	19.996	103.250	20.200	2.464	0.510
960.000	559.905	80.008	19.995	103.253	20.194	2.824	0.519
968.000	564.101	80.010	19.994	103.249	20.199	2.511	0.517
976.000	568.175	80.007	19.995	103.253	20.200	2.447	0.511
984.000	572.289	80.006	19.994	103.258	20.202	2.316	0.512
992.000	576.421	80.006	19.994	103.257	20.202	2.323	0.502
1000.000	580.551	80.006	19.993	103.254	20.202	2.324	0.536
1008.000	584.682	80.006	19.994	103.263	20.204	2.160	0.539
1016.000	588.755	80.005	19.994	103.259	20.208	1.927	0.514
1024.000	592.833	80.007	19.995	103.246	20.204	2.140	0.514
1031.999	596.943	80.008	19.994	103.241	20.208	1.934	0.522
1040.000	600.994	80.007	19.995	103.251	20.212	1.662	0.532
1048.000	605.122	80.008	19.994	103.256	20.207	1.990	0.525
1056.000	609.163	80.009	19.995	103.229	20.211	1.673	0.500
1064.000	613.165	80.006	19.994	103.261	20.208	1.903	0.519
1072.000	617.251	80.006	19.993	103.242	20.210	1.793	0.525
1080.000	621.323	80.007	19.994	103.254	20.215	1.417	0.547
1088.000	625.416	80.005	19.995	103.252	20.213	1.602	0.540
1096.000	629.583	80.005	19.994	103.241	20.219	1.134	0.538
1104.000	633.560	80.007	19.995	103.257	20.217	1.280	0.508
1112.000	637.633	80.006	19.996	103.242	20.219	1.154	0.511
1120.000	641.605	80.006	19.996	103.244	20.218	1.256	0.488
1128.000	645.537	80.008	19.994	103.239	20.227	0.628	0.495
1136.000	649.560	80.009	19.994	103.245	20.218	1.249	0.482
1144.000	653.606	80.005	19.996	103.238	20.218	1.230	0.485
1152.000	657.701	80.005	19.996	103.235	20.219	1.180	0.519
1160.001	661.767	80.007	19.995	103.236	20.219	1.178	0.514
1168.000	665.794	80.006	19.994	103.236	20.221	1.030	0.498
1176.001	669.976	80.006	19.993	103.245	20.216	1.350	0.525
1184.000	674.150	80.007	19.994	103.227	20.221	1.010	0.541
1192.000	678.275	80.007	19.994	103.234	20.223	0.908	0.521
1200.000	682.470	80.008	19.993	103.231	20.219	1.174	0.506
1208.000	686.603	80.006	19.995	103.254	20.219	1.182	0.511
1216.000	690.650	80.008	19.994	103.234	20.219	1.165	0.481
1224.000	694.682	80.006	19.994	103.225	20.215	1.458	0.500
1232.000	698.713	80.008	19.994	103.221	20.216	1.352	0.484
1240.000	702.702	80.006	19.995	103.238	20.220	1.128	0.504
1248.000	706.680	80.006	19.996	103.229	20.221	1.002	0.466
1256.000	710.824	80.004	19.994	103.220	20.224	0.861	0.553
1264.000	714.921	80.005	19.994	103.230	20.224	0.861	0.494
1272.000	718.959	80.009	19.994	103.248	20.227	0.602	0.504
1280.000	722.931	80.008	19.995	103.224	20.228	0.558	0.488
1288.000	726.888	80.006	19.995	103.226	20.223	0.869	0.504
1296.001	730.897	80.008	19.993	103.229	20.223	0.911	0.499
1304.000	734.939	80.009	19.994	103.236	20.222	0.961	0.483
1312.000	738.858	80.006	19.995	103.230	20.219	1.195	0.500
1320.001	742.908	80.007	19.994	103.235	20.226	0.715	0.517
1321.500	743.621	80.006	19.994	103.231	20.223	0.878	0.465