Folder: fsri_materials_database/01_Data/Oak_Flooring/STA/N2/10K_min (part 2)

File: Oak_Flooring_STA_N2_10KData_211208_R3.csv
##Temp./Â°C,Time/min,Mass loss(subtr.2)/mg,DSC(subtr.2)/(mW/mg),Sensit./(uV/mW)
49.281,10.01,-0.04398,0.02523498,1.07447
52.281,11.2941,-0.0479939,0.13897,1.07426
55.281,11.73128,-0.04893091,0.19315,1.07402
58.281,12.1031,-0.05141505,0.22805,1.07376
61.281,12.44933,-0.05097037,0.2496,1.07349
64.281,12.7844,-0.05241047,0.26819,1.07319
67.281,13.11161,-0.05516342,0.28296,1.07287
70.281,13.4347,-0.05637069,0.29646,1.07252
73.281,13.75336,-0.05769127,0.30933,1.07216
76.281,14.0698,-0.05901,0.31982,1.07178
79.281,14.38241,-0.06158451,0.32996,1.07138
82.281,14.6918,-0.06427281,0.33839,1.07095
85.281,14.9993,-0.06522909,0.34318,1.07051
88.281,15.3034,-0.06755391,0.34289,1.07004
91.281,15.60566,-0.0715065,0.34457,1.06955
94.281,15.9053,-0.07281858,0.33951,1.06904
97.281,16.20286,-0.07414145,0.33757,1.06852
100.281,16.49982,-0.07413472,0.33616,1.06797
103.281,16.7955,-0.07586015,0.34044,1.0674
106.281,17.09122,-0.07679474,0.33974,1.06681
109.281,17.3857,-0.07907982,0.33415,1.0662
112.281,17.67999,-0.08017001,0.33202,1.06557
115.281,17.97396,-0.08020593,0.32604,1.06492
118.281,18.2679,-0.07972994,0.32161,1.06425
121.281,18.5607,-0.08102649,0.3235,1.06355
124.281,18.85332,-0.08236864,0.3256,1.06284
127.281,19.1455,-0.0823737,0.33227,1.06211
130.281,19.43714,-0.0817067,0.33574,1.06136
133.281,19.7289,-0.08236926,0.33698,1.06059
136.281,20.02038,-0.0833578,0.34046,1.0598
139.281,20.31152,-0.08269074,0.34294,1.05898
142.281,20.60254,-0.08508819,0.34761,1.05815
145.281,20.8925,-0.085,0.35051,1.0573
148.281,21.1829,-0.08499971,0.35468,1.05643
151.281,21.47264,-0.08597042,0.36077,1.05554
154.281,21.76171,-0.08523306,0.36393,1.05463
157.281,22.05111,-0.08730452,0.36633,1.0537
160.281,22.34039,-0.08599261,0.371,1.05275
163.281,22.62941,-0.0870999,0.37278,1.05178
166.281,22.91865,-0.08709001,0.38048,1.0508
169.281,23.2072,-0.08708768,0.38479,1.04979
172.281,23.49648,-0.08906003,0.38668,1.04876
175.281,23.78499,-0.08938763,0.38827,1.04772
178.281,24.0718,-0.09005847,0.39544,1.04666
181.281,24.35988,-0.09037991,0.39667,1.04557
184.281,24.64678,-0.09136,0.40093,1.04447
187.281,24.93395,-0.09268,0.40348,1.04335
190.281,25.22087,-0.09268106,0.40543,1.04221
193.281,25.50744,-0.09401899,0.40748,1.04106
196.281,25.79417,-0.09465,0.41438,1.03988
199.281,26.08084,-0.09608105,0.4147,1.03868
202.281,26.36732,-0.09740001,0.42343,1.03747
205.281,26.6538,-0.09813409,0.43039,1.03624
208.281,26.9402,-0.10079,0.43816,1.03499
211.281,27.2266,-0.10211,0.44361,1.03372
214.281,27.51251,-0.10408,0.45377,1.03244
217.281,27.7994,-0.10766,0.45734,1.03114
220.281,28.08557,-0.11052,0.46344,1.02981
223.281,28.37213,-0.11482,0.4673,1.02848
226.281,28.65986,-0.11857,0.46973,1.02712
229.281,28.9472,-0.12512,0.46723,1.02574
232.281,29.23459,-0.13064,0.46641,1.02435
235.281,29.521,-0.13765,0.46923,1.02294
238.281,29.80807,-0.14613,0.47387,1.02152
241.281,30.0956,-0.15427,0.47862,1.02007
244.281,30.38317,-0.16116,0.48364,1.01861
247.281,30.66988,-0.17318,0.48497,1.01713
250.281,30.95703,-0.18519,0.48907,1.01564
253.281,31.2447,-0.19545,0.49286,1.01413
256.281,31.5321,-0.21155,0.49747,1.0126
259.281,31.81962,-0.22777,0.49774,1.01105
262.281,32.1068,-0.2467,0.50006,1.00949
265.281,32.39481,-0.26775,0.49979,1.00792
268.281,32.68221,-0.29439,0.49957,1.00632
271.281,32.96998,-0.32236,0.49489,1.00471
274.281,33.25714,-0.35567,0.49202,1.00308
277.281,33.54394,-0.39104,0.48479,1.00144
280.281,33.83119,-0.43252,0.47582,0.99978
283.281,34.11847,-0.47914,0.46433,0.99811
286.281,34.40633,-0.52841,0.45353,0.99642
289.281,34.69401,-0.58156,0.44154,0.99471
292.281,34.98155,-0.63753,0.43355,0.99299
295.281,35.26928,-0.69786,0.42133,0.99125
298.281,35.5572,-0.76065,0.41425,0.9895
301.281,35.84547,-0.82582,0.41168,0.98773
304.281,36.13409,-0.89005,0.41109,0.98595
307.281,36.42257,-0.95702,0.41591,0.98415
310.281,36.71058,-1.02315,0.4268,0.98234
313.281,36.99951,-1.09105,0.43876,0.98051
316.281,37.28864,-1.15818,0.45526,0.97867
319.281,37.5781,-1.22764,0.46918,0.97681
322.281,37.86765,-1.30413,0.4886,0.97494
325.281,38.15749,-1.37811,0.50388,0.97306
328.281,38.44777,-1.46023,0.52107,0.97116
331.281,38.73847,-1.54627,0.54095,0.96924
334.281,39.02833,-1.63665,0.55803,0.96732
337.281,39.31907,-1.73396,0.57919,0.96537
340.281,39.60969,-1.83603,0.59865,0.96342
343.281,39.9009,-1.9447,0.61184,0.96145
346.281,40.19121,-2.06127,0.61665,0.95947
349.281,40.48263,-2.17853,0.6166,0.95747
352.281,40.77326,-2.2998,0.6021,0.95546
355.281,41.06494,-2.41923,0.57623,0.95344
358.281,41.3565,-2.53728,0.54102,0.9514
361.281,41.64719,-2.64092,0.47987,0.94935
364.281,41.93846,-2.73136,0.40824,0.94729
367.281,42.22909,-2.79699,0.33192,0.94522
370.281,42.51961,-2.84346,0.26124,0.94313
373.281,42.8103,-2.87205,0.21516,0.94103
376.281,43.10197,-2.89194,0.18415,0.93892
379.281,43.3932,-2.90677,0.16638,0.93679
382.281,43.68537,-2.91955,0.15204,0.93466
385.281,43.9776,-2.93348,0.13234,0.93251
388.281,44.26984,-2.94396,0.12243,0.93035
391.281,44.56178,-2.95379,0.11032,0.92818
394.281,44.85445,-2.96527,0.09948124,0.92599
397.281,45.14695,-2.97498,0.0918623,0.9238
400.281,45.4398,-2.98488,0.08341695,0.92159
403.281,45.73323,-2.99576,0.07739963,0.91937
406.281,46.0267,-3.00554,0.07012853,0.91714
409.281,46.31997,-3.01494,0.06826633,0.9149
412.281,46.61376,-3.02264,0.06884575,0.91265
415.281,46.90783,-3.03242,0.06249388,0.91038
418.281,47.20172,-3.03971,0.06630489,0.90811
421.281,47.4963,-3.04832,0.06772481,0.90583
424.281,47.79126,-3.0567,0.07240862,0.90353
427.281,48.08593,-3.06494,0.0717828,0.90123
430.281,48.381,-3.06933,0.0793967,0.89891
433.281,48.6759,-3.0778,0.08291578,0.89659
436.281,48.97145,-3.08546,0.08814331,0.89425
439.281,49.26712,-3.09152,0.09497534,0.89191
442.281,49.56273,-3.09954,0.10007,0.88955
445.281,49.85833,-3.10525,0.10576,0.88719
448.281,50.15415,-3.11004,0.11118,0.88481
451.281,50.45009,-3.1153,0.1174,0.88243
454.281,50.7454,-3.12056,0.12394,0.88003
457.281,51.0409,-3.12492,0.12736,0.87763
460.281,51.3364,-3.12978,0.13607,0.87522
463.281,51.6316,-3.1337,0.1456,0.8728
466.281,51.92686,-3.13821,0.15629,0.87037
469.281,52.22274,-3.14307,0.16847,0.86793
472.281,52.5189,-3.14569,0.17761,0.86549
475.281,52.8154,-3.15235,0.18969,0.86303
478.281,53.11178,-3.15571,0.19585,0.86057
481.281,53.409,-3.16016,0.20247,0.8581
484.281,53.70609,-3.16279,0.20268,0.85562
487.281,54.00335,-3.16673,0.20486,0.85313
490.281,54.3,-3.17201,0.2062,0.85064
493.281,54.59672,-3.1746,0.20826,0.84814
496.281,54.89369,-3.17876,0.20972,0.84563
499.281,55.1906,-3.18353,0.20771,0.84311
502.281,55.48737,-3.18495,0.20764,0.84058
505.281,55.7848,-3.19021,0.19542,0.83805
508.281,56.08265,-3.19255,0.17966,0.83551
511.281,56.381,-3.19548,0.16493,0.83296
514.281,56.67896,-3.19943,0.15483,0.83041
517.281,56.9778,-3.20209,0.15032,0.82785
520.281,57.2761,-3.20634,0.14229,0.82528
523.281,57.57453,-3.20771,0.13749,0.82271
526.281,57.87353,-3.21029,0.12867,0.82013
529.281,58.17219,-3.21425,0.12774,0.81755
532.281,58.4713,-3.21588,0.12389,0.81495
535.281,58.7704,-3.21818,0.11565,0.81236
538.281,59.0692,-3.22114,0.10712,0.80975
541.281,59.36824,-3.22266,0.10474,0.80714
544.281,59.6673,-3.22632,0.09995775,0.80453
547.281,59.96606,-3.22904,0.09581837,0.80191
550.281,60.26546,-3.23013,0.09139972,0.79928
553.281,60.5656,-3.23527,0.08837682,0.79665
556.281,60.8651,-3.23595,0.08593448,0.79401
559.281,61.16555,-3.23892,0.07906862,0.79137
562.281,61.4657,-3.24188,0.07969213,0.78872
565.281,61.76543,-3.24485,0.07842087,0.78607
568.281,62.0658,-3.24609,0.07605837,0.78342
571.281,62.3657,-3.24906,0.07305788,0.78075
574.281,62.66591,-3.25076,0.0748822,0.77809
577.281,62.96634,-3.2534,0.07361836,0.77542
580.281,63.26712,-3.25601,0.07200737,0.77275
583.281,63.56795,-3.25865,0.07495151,0.77007
586.281,63.86877,-3.25994,0.07386344,0.76738
589.281,64.16977,-3.2613,0.07655547,0.7647
592.281,64.47052,-3.26331,0.07974021,0.76201
595.281,64.77131,-3.26627,0.08344793,0.75932
598.281,65.0723,-3.26754,0.09004597,0.75662
601.281,65.37323,-3.26952,0.09881804,0.75392
604.281,65.67371,-3.27114,0.10584,0.75121
607.281,65.9747,-3.27149,0.11783,0.74851
610.281,66.2754,-3.27476,0.12656,0.7458
613.281,66.5766,-3.27478,0.14045,0.74308
616.281,66.878,-3.27744,0.14671,0.74037
619.281,67.17975,-3.27873,0.15558,0.73765
622.281,67.48101,-3.28174,0.16199,0.73493
625.281,67.7826,-3.28301,0.16441,0.7322
628.281,68.0831,-3.28551,0.16902,0.72948
631.281,68.3844,-3.28695,0.1823,0.72675
634.281,68.6862,-3.28904,0.17816,0.72402
637.281,68.98815,-3.29002,0.17637,0.72128
640.281,69.2906,-3.29122,0.17933,0.71855
643.281,69.59265,-3.29158,0.18002,0.71581
646.281,69.89464,-3.29311,0.17936,0.71307
649.281,70.1966,-3.29551,0.18366,0.71033
652.281,70.49936,-3.29682,0.18412,0.70759
655.281,70.80211,-3.29551,0.18324,0.70485
658.281,71.10393,-3.29815,0.18323,0.7021
661.281,71.40647,-3.29814,0.18338,0.69935
664.281,71.70902,-3.29946,0.18284,0.69661
667.281,72.0115,-3.30078,0.18359,0.69386
670.281,72.31345,-3.30209,0.18692,0.69111
673.281,72.61579,-3.30243,0.18434,0.68836
676.281,72.91871,-3.30506,0.18683,0.68561
679.281,73.22112,-3.30506,0.18912,0.68286
682.281,73.5236,-3.30539,0.18249,0.6801
685.281,73.82682,-3.30637,0.17735,0.67735
688.281,74.1302,-3.30769,0.17802,0.6746
691.281,74.43375,-3.30834,0.17912,0.67185
694.281,74.7379,-3.30966,0.17506,0.66909
697.281,75.0424,-3.31163,0.17407,0.66634
700.281,75.34747,-3.31295,0.168,0.66359
703.281,75.6525,-3.31164,0.16383,0.66083
706.281,75.9572,-3.31296,0.15893,0.65808
709.281,76.26125,-3.31357,0.15251,0.65533
712.281,76.5653,-3.31495,0.14779,0.65258
715.281,76.86946,-3.31426,0.14158,0.64982
718.281,77.17451,-3.3169,0.13749,0.64707
721.281,77.47875,-3.31655,0.13587,0.64432
724.281,77.7831,-3.31808,0.13361,0.64157
727.281,78.08673,-3.31919,0.12717,0.63883
730.281,78.39061,-3.31953,0.12641,0.63608
733.281,78.69484,-3.32085,0.12224,0.63333
736.281,78.99929,-3.31981,0.11773,0.63059
739.281,79.30291,-3.32053,0.11328,0.62785
742.281,79.60718,-3.32184,0.10529,0.6251
745.281,79.91152,-3.32184,0.10597,0.62236
746.081,79.9924,-3.32257,0.09794291,0.62163