Folder: fsri_materials_database/01_Data/Oak_Flooring/STA/N2/30K_min (part 2)

File: Oak_Flooring_STA_N2_30KData_211209_R3.csv
Temp/C,Time/min,DSC/mW,Mass loss/mg,Sensit./(uV/mW)
50,10.7141,0.365879,-0.0435682,1.0695
52.9,10.9924,0.757039,-0.0450096,1.06923
55.8,11.1808,1.05791,-0.0458648,1.06893
58.7,11.3367,1.29652,-0.0455824,1.06861
61.6,11.4749,1.4956,-0.0472571,1.06827
64.5,11.6025,1.68657,-0.04703613,1.0679
67.4,11.7229,1.85025,-0.0483683,1.0675
70.3,11.8384,1.99753,-0.0473738,1.06709
73.2,11.9502,2.13215,-0.048244,1.06665
76.1,12.0593,2.25391,-0.0499915,1.06619
79,12.1663,2.37659,-0.0495934,1.0657
81.9,12.2713,2.48455,-0.0526264,1.06521
84.8,12.375,2.60442,-0.053404,1.06467
87.7,12.4771,2.70027,-0.0558959,1.06412
90.6,12.5782,2.79508,-0.0575192,1.06354
93.5,12.6785,2.87999,-0.0584851,1.06295
96.4,12.7779,2.93168,-0.0588492,1.06233
99.3,12.877,2.97685,-0.0602476,1.06169
102.2,12.9757,3.00831,-0.0614207,1.06104
105.1,13.0737,3.0074,-0.0627499,1.06034
108,13.1719,2.99741,-0.0647197,1.05964
110.9,13.2696,2.97751,-0.0660015,1.05891
113.8,13.367,2.94276,-0.0660266,1.05816
116.7,13.4641,2.94598,-0.0673408,1.05739
119.6,13.5613,2.94102,-0.06735013,1.0566
122.5,13.6575,2.91797,-0.06867006,1.05579
125.4,13.7538,2.87672,-0.0689353,1.05495
128.3,13.8494,2.85508,-0.06844035,1.0541
131.2,13.9449,2.8178,-0.06997683,1.05322
134.1,14.0395,2.78264,-0.0697684,1.05233
137,14.1337,2.7758,-0.0711092,1.05141
139.9,14.2275,2.76254,-0.0723829,1.05047
142.8,14.3211,2.77123,-0.0719612,1.04951
145.7,14.4142,2.78244,-0.0724,1.04853
148.6,14.507,2.79254,-0.0710842,1.04753
151.5,14.5994,2.81444,-0.0710872,1.04651
154.4,14.6917,2.84889,-0.0710758,1.04548
157.3,14.7839,2.87572,-0.0733923,1.04442
160.2,14.8757,2.91323,-0.07275384,1.04334
163.1,14.9674,2.92842,-0.07338,1.04224
166,15.0588,2.95917,-0.07338,1.04112
168.9,15.1499,2.99236,-0.07338,1.03999
171.8,15.241,3.02878,-0.07338,1.03883
174.7,15.3318,3.05908,-0.0746897,1.03766
177.6,15.4224,3.09248,-0.0760097,1.03646
180.5,15.5125,3.11805,-0.07601,1.03525
183.4,15.6025,3.14507,-0.07601,1.03402
186.3,15.6923,3.18494,-0.07732975,1.03277
189.2,15.7817,3.21061,-0.07850982,1.0315
192.1,15.871,3.24337,-0.07865,1.03022
195,15.9602,3.27617,-0.078661,1.02891
197.9,16.0491,3.31434,-0.07927,1.02759
200.8,16.1382,3.34336,-0.0789841,1.02625
203.7,16.2269,3.37589,-0.08161,1.02489
206.6,16.3154,3.41463,-0.0815626,1.02352
209.5,16.4037,3.44562,-0.08329593,1.02213
212.4,16.4927,3.48464,-0.0855084,1.02072
215.3,16.5812,3.52617,-0.0865703,1.019287
218.2,16.6696,3.5801,-0.0872003,1.017847
221.1,16.7577,3.62734,-0.08852,1.01639
224,16.8459,3.68403,-0.08983,1.01491
226.9,16.934,3.72753,-0.09189917,1.01341
229.8,17.0223,3.76195,-0.0948101,1.0119
232.7,17.1104,3.79313,-0.0964076,1.01038
235.6,17.1985,3.80753,-0.0992827,1.00884
238.5,17.2869,3.80032,-0.10212,1.00728
241.4,17.3749,3.80762,-0.106347,1.0057
244.3,17.4628,3.81151,-0.109427,1.00411
247.2,17.5512,3.82466,-0.116257,1.00251
250.1,17.6392,3.84627,-0.122704,1.00089
253,17.7271,3.87702,-0.1287783,0.999254
255.9,17.8151,3.90988,-0.13305,0.997604
258.8,17.903,3.95255,-0.141896,0.995937
261.7,17.991,3.98209,-0.15025,0.994265
264.6,18.0787,4.02019,-0.158022,0.992565
267.5,18.1665,4.0463,-0.166058,0.990855
270.4,18.2542,4.05994,-0.176279,0.9891344
273.3,18.3421,4.08441,-0.188432,0.9873944
276.2,18.4301,4.09224,-0.202885,0.985644
279.1,18.5179,4.07759,-0.215058,0.983884
282,18.6056,4.06293,-0.232994,0.982104
284.9,18.6936,4.04053,-0.25393,0.980314
287.8,18.7813,3.99247,-0.27642,0.978503
290.7,18.8692,3.91967,-0.301386,0.976692
293.6,18.9571,3.84463,-0.330459,0.974862
296.5,19.0449,3.72549,-0.362991,0.973014
299.4,19.1326,3.61033,-0.399984,0.971162
302.3,19.2206,3.47633,-0.438744,0.969292
305.2,19.3084,3.30482,-0.483871,0.967404
308.1,19.3964,3.14121,-0.530477,0.965514
311,19.4842,2.98051,-0.580865,0.963604
313.9,19.5722,2.82527,-0.634686,0.961693
316.8,19.66,2.72182,-0.689957,0.959763
319.7,19.7482,2.60355,-0.750834,0.957823
322.6,19.8361,2.51944,-0.810394,0.955864
325.5,19.9244,2.49258,-0.872688,0.953902
328.4,20.0126,2.52239,-0.936295,0.951924
331.3,20.1008,2.59308,-0.999263,0.949942
334.2,20.1893,2.69527,-1.06512,0.947942
337.1,20.2778,2.82323,-1.1286,0.945932
340,20.3665,2.99232,-1.19331,0.943914
342.9,20.4551,3.15543,-1.26144,0.941892
345.8,20.544,3.3241,-1.33303,0.939852
348.7,20.6329,3.50555,-1.40378,0.937802
351.6,20.7219,3.71189,-1.48206,0.935742
354.5,20.811,3.88668,-1.56191,0.933672
357.4,20.9002,4.08689,-1.64654,0.931592
360.3,20.9896,4.28258,-1.7385,0.929502
363.2,21.0784,4.45696,-1.8325,0.92741
366.1,21.1683,4.5957,-1.9327,0.925302
369,21.258,4.66985,-2.03857,0.923181
371.9,21.3476,4.67544,-2.14886,0.92106
374.8,21.4374,4.57863,-2.25692,0.918921
377.7,21.527,4.33549,-2.36563,0.916781
380.6,21.6169,3.95305,-2.47252,0.914631
383.5,21.7067,3.40584,-2.57195,0.912471
386.4,21.7967,2.70236,-2.65854,0.91031
389.3,21.8866,1.93188,-2.72999,0.908131
392.2,21.9766,1.22814,-2.78378,0.90595
395.1,22.0667,0.715814,-2.82091,0.90376
398,22.1568,0.364247,-2.84337,0.90156
400.9,22.247,0.131673,-2.85872,0.899351
403.8,22.3374,-0.0509112,-2.87247,0.897138
406.7,22.4279,-0.196688,-2.8848,0.894919
409.6,22.5185,-0.314875,-2.89515,0.892688
412.5,22.6092,-0.433874,-2.90482,0.89046
415.4,22.6998,-0.524541,-2.91445,0.88822
418.3,22.7905,-0.618451,-2.92349,0.885969
421.2,22.8816,-0.701084,-2.93291,0.883711
424.1,22.9724,-0.759263,-2.94191,0.881449
427,23.0635,-0.804393,-2.94934,0.87919
429.9,23.1544,-0.83671,-2.95788,0.876909
432.8,23.2455,-0.851608,-2.96526,0.874631
435.7,23.3367,-0.868027,-2.97375,0.872349
438.6,23.4281,-0.872841,-2.9821,0.870059
441.5,23.5195,-0.849869,-2.98922,0.867759
444.4,23.611,-0.826947,-2.99678,0.865459
447.3,23.7024,-0.797248,-3.00362,0.863159
450.2,23.7941,-0.755415,-3.00878,0.860839
453.1,23.8858,-0.710226,-3.01563,0.8585292
456,23.9776,-0.654756,-3.02209,0.856209
458.9,24.0696,-0.591083,-3.02882,0.8538792
461.8,24.1617,-0.52784,-3.03447,0.8515492
464.7,24.2538,-0.459388,-3.03925,0.849209
467.6,24.3461,-0.419149,-3.04566,0.846869
470.5,24.4384,-0.363671,-3.05006,0.844529
473.4,24.5308,-0.3113786,-3.05521,0.842179
476.3,24.6234,-0.27009,-3.06051,0.839829
479.2,24.7159,-0.213609,-3.0643,0.837469
482.1,24.8082,-0.184444,-3.06893,0.835109
485,24.901,-0.15498,-3.07483,0.832749
487.9,24.9938,-0.123687,-3.07913,0.830378
490.8,25.0865,-0.0927912,-3.08128,0.828009
493.7,25.1791,-0.0850878,-3.08572,0.825639
496.6,25.272,-0.0745327,-3.08877,0.82326
499.5,25.365,-0.0411722,-3.09319,0.820878
502.4,25.458,-0.0309089,-3.09662,0.818499
505.3,25.5506,-0.002146358,-3.10074,0.816117
508.2,25.6438,0.03295958,-3.10428,0.813727
511.1,25.7368,0.0697882,-3.10864,0.811337
514,25.8299,0.108201,-3.11046,0.808938
516.9,25.923,0.137682,-3.11446,0.80655
519.8,26.0161,0.165795,-3.11597,0.80415
522.7,26.1093,0.197653,-3.1187,0.801749
525.6,26.2026,0.2054514,-3.12223,0.79935
528.5,26.2959,0.209429,-3.12492,0.796938
531.4,26.3892,0.225884,-3.12819,0.79454
534.3,26.4826,0.22884,-3.13074,0.792128
537.2,26.5761,0.239385,-3.13343,0.789718
540.1,26.6697,0.230304,-3.13626,0.787308
543,26.7635,0.242416,-3.13888,0.7849
545.9,26.8572,0.220663,-3.14023,0.78249
548.8,26.9511,0.2208,-3.14306,0.780068
551.7,27.0449,0.21827,-3.14568,0.77766
554.6,27.1391,0.196478,-3.14833,0.775238
557.5,27.2332,0.1637,-3.14994,0.772827
560.4,27.3275,0.134222,-3.1541,0.770407
563.3,27.4217,0.116679,-3.15457,0.76799
566.2,27.516,0.0840201,-3.15874,0.76557
569.1,27.6104,0.0796714,-3.16039,0.76315
572,27.7049,0.0589825,-3.16305,0.76073
574.9,27.7995,0.0436952,-3.16462,0.75831
577.8,27.8941,0.0296745,-3.16697,0.755887
580.7,27.9889,0.0331012,-3.16784,0.753467
583.6,28.0836,0.0313302,-3.17005,0.751047
586.5,28.1785,0.008678939,-3.17387,0.748627
589.4,28.2733,0.000390564,-3.17519,0.746198
592.3,28.3683,0.005822091,-3.17782,0.743778
595.2,28.4636,-0.006369518,-3.17884,0.741358
598.1,28.5587,0.00137125,-3.18079,0.738938
601,28.6539,-0.0238403,-3.1821,0.736518
603.9,28.749,-0.0191397,-3.18495,0.734107
606.8,28.8443,-0.0344852,-3.18662,0.731687
609.7,28.9396,-0.024073,-3.18825,0.72927
612.6,29.0347,-0.0292309,-3.18954,0.726848
615.5,29.1301,-0.0255428,-3.19092,0.724437
618.4,29.2257,-0.0335648,-3.1922,0.722019
621.3,29.3209,-0.0201442,-3.19481,0.719607
624.2,29.4164,0.006097822,-3.19746,0.717188
627.1,29.5119,0.0319608,-3.19878,0.714778
630,29.6073,0.0361967,-3.20113,0.712368
632.9,29.7028,0.0662629,-3.20272,0.709958
635.8,29.7984,0.102693,-3.20404,0.707548
638.7,29.8938,0.120216,-3.20535,0.70515
641.6,29.9895,0.152541,-3.20536,0.702738
644.5,30.0849,0.163511,-3.20799,0.70034
647.4,30.1807,0.161534,-3.20832,0.69794
650.3,30.2764,0.151285,-3.21067,0.69554
653.2,30.3721,0.120459,-3.21194,0.69314
656.1,30.4679,0.0916442,-3.21326,0.690738
659,30.5637,0.0589517,-3.21458,0.68835
661.9,30.6597,0.0351326,-3.21589,0.685957
664.8,30.7557,-0.002580411,-3.21819,0.683567
667.7,30.8518,-0.0213337,-3.21951,0.681177
670.6,30.9478,-0.0332928,-3.21853,0.678789
673.5,31.0441,-0.0611269,-3.21984,0.676407
676.4,31.1403,-0.0440474,-3.22116,0.674018
679.3,31.2367,-0.0522082,-3.22214,0.671638
682.2,31.3329,-0.047437,-3.22214,0.66927
685.1,31.4293,-0.0642397,-3.22346,0.66689
688,31.5259,-0.0664793,-3.22478,0.664519
690.9,31.6223,-0.0703289,-3.22478,0.662149
693.8,31.7188,-0.0576444,-3.22477,0.659779
696.7,31.8152,-0.0600462,-3.22689,0.65742
699.6,31.9118,-0.0709304,-3.22708,0.655057
702.5,32.0086,-0.0840162,-3.22798,0.6527
705.4,32.1052,-0.0887892,-3.2284,0.650339
708.3,32.2019,-0.101167,-3.2282,0.64799
711.2,32.2986,-0.0866128,-3.22925,0.645637
714.1,32.3952,-0.0900679,-3.22971,0.643289
717,32.4921,-0.0944655,-3.23102,0.640939
719.9,32.5888,-0.0950929,-3.23102,0.6385992
722.8,32.6857,-0.105731,-3.23101,0.636259
725.7,32.7827,-0.103918,-3.23098,0.63393
728.6,32.8796,-0.0878524,-3.23362,0.631589
731.5,32.9766,-0.09123362,-3.23365,0.629259
734.4,33.0738,-0.0889195,-3.23498,0.6269392
737.3,33.1709,-0.0716083,-3.23573,0.6246092
740.2,33.268,-0.0616615,-3.23564,0.622289
743.1,,,,
746,,,,
748.9,,,,
750,,,,