Folder: fsri_materials_database/01_Data/Oak_Flooring/STA/N2/30K_min

Note: 01_Data/README.md
# Materials and Products Database
## 01_Data

Raw data generated from each apparatus are included here in plain-text format. The data is organized first by material, next by the short name of test apparatus used, and where applicable additional filtering by test settings.

### material.json

Each material directory contains a json file of the same name as the material. This file links the data stored in the repository as well as data and graphs produced by the accompanying scripts (__02_Scripts__) to the respective landing page for the material on the front-end website.

File: Oak_Flooring_STA_N2_30KData_211208_R1.csv
,Time/min,DSC/mW,Mass loss/mg,Sensit./(uV/mW)
50.0,10.707,0.420647,-0.0379707,1.0695
52.8,10.9803,0.861347,-0.0396083,1.06924
55.6,11.1663,1.20106,-0.0408367,1.06895
58.4,11.3195,1.48516,-0.0399992,1.06864
61.2,11.4554,1.73239,-0.0416839,1.06831
64,11.5808,1.93546,-0.039558,1.06796
66.8,11.6986,2.13072,-0.0406472,1.06758
69.6,11.8113,2.30255,-0.0398949,1.06719
72.4,11.9204,2.46565,-0.0413624,1.06677
75.2,12.0267,2.60536,-0.0417488,1.06633
78,12.1308,2.74375,-0.0434105,1.06587
80.8,12.2329,2.87097,-0.0434271,1.06539
83.6,12.3339,2.98574,-0.0425014,1.06489
86.4,12.4332,3.10317,-0.0447411,1.06437
89.2,12.5314,3.20281,-0.0457781,1.06382
92,12.6285,3.2949,-0.0462057,1.06326
94.8,12.725,3.36119,-0.0491472,1.06267
97.6,12.821,3.42331,-0.0500029,1.06207
100.4,12.9163,3.4665,-0.0504561,1.06144
103.2,13.0115,3.50065,-0.0517595,1.0608
106,13.1062,3.5011,-0.0520646,1.06013
108.8,13.2007,3.49754,-0.05309,1.05944
111.6,13.2951,3.48593,-0.055061,1.05873
114.4,13.3892,3.48992,-0.0577006,1.058
117.2,13.4826,3.5049,-0.05769,1.05726
120,13.5764,3.49911,-0.0563888,1.0565
122.8,13.6693,3.4683,-0.05901,1.0557
125.6,13.762,3.45765,-0.0589995,1.05489
128.4,13.8543,3.43316,-0.06032,1.05407
131.2,13.946,3.40382,-0.06032,1.05322
134,14.0373,3.39461,-0.0616411,1.05235
136.8,14.1284,3.38036,-0.0616457,1.05147
139.6,14.2191,3.36991,-0.06165,1.05057
142.4,14.3092,3.38732,-0.0604773,1.04964
145.2,14.3992,3.40466,-0.0603418,1.04871
148,14.4886,3.42884,-0.06164,1.04775
150.8,14.578,3.44887,-0.0623145,1.04677
153.6,14.6671,3.48292,-0.0616508,1.04577
156.4,14.7559,3.51578,-0.060399,1.04475
159.2,14.8445,3.54555,-0.0616966,1.04372
162,14.9331,3.5769,-0.062276,1.04266
164.8,15.0214,3.60558,-0.0621221,1.04159
167.6,15.1096,3.64699,-0.06164,1.0405
170.4,15.1975,3.6738,-0.0629608,1.03939
173.2,15.2852,3.69882,-0.06362,1.03827
176,15.3728,3.72706,-0.0621991,1.03713
178.8,15.4602,3.76081,-0.06362,1.03597
181.6,15.5472,3.80308,-0.0629655,1.03479
184.4,15.6339,3.84252,-0.0649445,1.03359
187.2,15.7205,3.87642,-0.0636155,1.03238
190,15.8069,3.9247,-0.0623,1.03115
192.8,15.8932,3.95545,-0.0636974,1.0299
195.6,15.9791,3.99457,-0.0635835,1.02864
198.4,16.0651,4.02353,-0.0662158,1.02736
201.2,16.151,4.05122,-0.0674076,1.02606
204,16.2367,4.08139,-0.06757,1.02475
206.8,16.3225,4.11957,-0.06757,1.02342
209.6,16.4081,4.1533,-0.0682303,1.02208
212.4,16.4935,4.19289,-0.0698705,1.02072
215.2,16.579,4.23714,-0.06987,1.01934
218,16.664,4.27779,-0.070316,1.01795
220.8,16.7496,4.33044,-0.07053,1.01654
223.6,16.8347,4.38415,-0.0718502,1.01511
226.4,16.92,4.44073,-0.07447,1.01367
229.2,17.0052,4.48021,-0.07448,1.01222
232,17.0904,4.52517,-0.0772082,1.01075
234.8,17.1754,4.55286,-0.0803309,1.00926
237.6,17.2606,4.55216,-0.083372,1.00776
240.4,17.3459,4.54838,-0.0861019,1.00625
243.2,17.4308,4.55769,-0.0906041,1.00472
246,17.5159,4.56959,-0.0951543,1.00318
248.8,17.6009,4.59155,-0.100399,1.00162
251.6,17.6858,4.63295,-0.10804,1.00005
254.4,17.7705,4.672,-0.116454,0.99846
257.2,17.8556,4.71241,-0.122095,0.99686
260,17.9403,4.75178,-0.129574,0.99525
262.8,18.0252,4.78182,-0.136249,0.99362
265.6,18.1099,4.82543,-0.145692,0.99198
268.4,18.1948,4.84999,-0.153687,0.990328
271.2,18.2795,4.87969,-0.165071,0.98866
274,18.3643,4.88218,-0.176161,0.98698
276.8,18.4492,4.90281,-0.190685,0.985279
279.6,18.534,4.90606,-0.205412,0.98358
282.4,18.6186,4.89648,-0.22194,0.98186
285.2,18.7035,4.86656,-0.242213,0.980129
288,18.7882,4.83754,-0.265918,0.978381
290.8,18.8731,4.77134,-0.290591,0.97663
293.6,18.9578,4.69249,-0.32001,0.974859
296.4,19.0428,4.60073,-0.351762,0.97308
299.2,19.1275,4.47953,-0.387668,0.97129
302,19.2126,4.34466,-0.42697,0.969481
304.8,19.2974,4.19544,-0.469072,0.96767
307.6,19.3823,4.04131,-0.51399,0.965841
310.4,19.4672,3.87019,-0.563319,0.964001
313.2,19.5523,3.70899,-0.616127,0.96215
316,19.6372,3.54618,-0.673505,0.96029
318.8,19.7223,3.41626,-0.73008,0.958421
321.6,19.8076,3.32012,-0.788475,0.956542
324.4,19.8928,3.24967,-0.85011,0.954652
327.2,19.978,3.22766,-0.911685,0.95274
330,20.0633,3.25619,-0.975562,0.950831
332.8,20.1488,3.33217,-1.03856,0.948911
335.6,20.2344,3.4526,-1.10136,0.946971
338.4,20.3199,3.5753,-1.16772,0.945031
341.2,20.4054,3.7344,-1.23332,0.943081
344,20.4913,3.90562,-1.30087,0.941111
346.8,20.5773,4.09437,-1.37141,0.939141
349.6,20.6633,4.27633,-1.44472,0.937161
352.4,20.7494,4.46128,-1.52145,0.935171
355.2,20.8356,4.66696,-1.60154,0.933171
358,20.9218,4.85991,-1.6864,0.931161
360.8,21.0082,5.05131,-1.77577,0.929141
363.6,21.0944,5.21198,-1.87319,0.927112
366.4,21.1808,5.36816,-1.97264,0.925081
369.2,21.2673,5.44601,-2.07629,0.923042
372,21.3538,5.43826,-2.18385,0.920982
374.8,21.4405,5.33826,-2.29537,0.918922
377.6,21.5271,5.1324,-2.40476,0.916862
380.4,21.6137,4.74587,-2.50953,0.914782
383.2,21.7005,4.1908,-2.60933,0.912702
386,21.7871,3.47126,-2.69874,0.910602
388.8,21.8738,2.65473,-2.77379,0.908502
391.6,21.9605,1.87981,-2.83106,0.906402
394.4,22.0472,1.26025,-2.87154,0.904282
397.2,22.1338,0.836388,-2.9003,0.902162
400,22.2206,0.545202,-2.91529,0.900041
402.8,22.3075,0.328886,-2.9306,0.897903
405.6,22.3946,0.171983,-2.94296,0.895763
408.4,22.4818,0.0342376,-2.95449,0.893613
411.2,22.5687,-0.0885426,-2.9649,0.891462
414,22.6561,-0.197198,-2.97498,0.889302
416.8,22.7433,-0.28217,-2.98461,0.887133
419.6,22.8307,-0.370549,-2.99508,0.884962
422.4,22.9181,-0.445275,-3.00232,0.882782
425.2,23.0057,-0.500168,-3.01058,0.880593
428,23.0933,-0.54142,-3.01922,0.878403
430.8,23.1809,-0.564694,-3.02684,0.876203
433.6,23.2687,-0.586125,-3.03416,0.874003
436.4,23.3566,-0.594094,-3.04176,0.871792
439.2,23.4445,-0.578126,-3.04987,0.869583
442,23.5325,-0.562139,-3.05805,0.867363
444.8,23.6205,-0.535593,-3.0654,0.865143
447.6,23.709,-0.500302,-3.07015,0.862913
450.4,23.7975,-0.449255,-3.07761,0.860683
453.2,23.8859,-0.402442,-3.08417,0.858443
456,23.9745,-0.35348,-3.09059,0.856203
458.8,24.0631,-0.298569,-3.09846,0.853963
461.6,24.1518,-0.255927,-3.10323,0.851713
464.4,24.2408,-0.185978,-3.10954,0.849453
467.2,24.3298,-0.135774,-3.11446,0.847193
470,24.4188,-0.0764841,-3.11872,0.844933
472.8,24.5078,-0.0188489,-3.12263,0.842662
475.6,24.597,0.0354267,-3.12815,0.840392
478.4,24.6863,0.0646676,-3.13295,0.838123
481.2,24.7756,0.122872,-3.13634,0.835843
484,24.8651,0.151995,-3.13995,0.833563
486.8,24.9546,0.193431,-3.14383,0.831283
489.6,25.0442,0.213649,-3.14694,0.828993
492.4,25.1337,0.225177,-3.15205,0.826703
495.2,25.2236,0.250187,-3.15517,0.824414
498,25.3131,0.275266,-3.15872,0.822113
500.8,25.403,0.287518,-3.16193,0.819813
503.6,25.4928,0.312169,-3.16467,0.817513
506.4,25.5829,0.355175,-3.16889,0.815214
509.2,25.6728,0.411102,-3.17295,0.812903
512,25.7628,0.444608,-3.176,0.810593
514.8,25.8528,0.481755,-3.17954,0.808283
517.6,25.9428,0.512232,-3.18336,0.805964
520.4,26.0331,0.53727,-3.18605,0.803653
523.2,26.1234,0.560603,-3.18807,0.801333
526,26.2137,0.578324,-3.19088,0.799014
528.8,26.304,0.601497,-3.19362,0.796693
531.6,26.3943,0.603946,-3.196,0.794373
534.4,26.4848,0.621627,-3.19903,0.792044
537.2,26.5753,0.618005,-3.2022,0.789723
540,26.6659,0.625532,-3.20513,0.787393
542.8,26.7567,0.631072,-3.20762,0.785064
545.6,26.8474,0.634474,-3.20904,0.782734
548.4,26.9383,0.626223,-3.21128,0.780404
551.2,27.0291,0.617193,-3.21418,0.778072
554,27.1201,0.608418,-3.21676,0.775744
556.8,27.2111,0.597967,-3.21934,0.773404
559.6,27.302,0.576466,-3.22074,0.771072
562.4,27.3928,0.5488,-3.22203,0.768734
565.2,27.4838,0.522725,-3.22477,0.766402
568,27.575,0.488806,-3.22634,0.764064
570.8,27.666,0.45196,-3.22773,0.761734
573.6,27.7571,0.422256,-3.22905,0.759392
576.4,27.8485,0.409522,-3.23202,0.757054
579.2,27.9397,0.372596,-3.23359,0.754714
582,28.0309,0.34686,-3.23607,0.752384
584.8,28.1224,0.346838,-3.23888,0.750042
587.6,28.2136,0.327239,-3.24431,0.747704
590.4,28.3051,0.302028,-3.24428,0.745374
593.2,28.3967,0.296411,-3.24455,0.743034
596,28.4882,0.275809,-3.24692,0.740692
598.8,28.58,0.269293,-3.24824,0.738354
601.6,28.6715,0.256503,-3.25037,0.736022
604.4,28.7634,0.250147,-3.25219,0.733684
607.2,28.8553,0.259445,-3.25484,0.731352
610,28.9471,0.238391,-3.25614,0.729014
612.8,29.0392,0.237972,-3.25745,0.726682
615.6,29.1311,0.245342,-3.25894,0.724352
618.4,29.2231,0.240485,-3.26071,0.722024
621.2,29.3152,0.238149,-3.26192,0.719694
624,29.4073,0.257396,-3.26345,0.717364
626.8,29.4995,0.265447,-3.26624,0.715034
629.6,29.5917,0.285614,-3.26798,0.712702
632.4,29.6837,0.320267,-3.26936,0.710374
635.2,29.7757,0.340811,-3.27064,0.708053
638,29.868,0.372992,-3.27194,0.705724
640.8,29.9602,0.380726,-3.27194,0.703403
643.6,30.0526,0.392552,-3.27453,0.701083
646.4,30.145,0.394105,-3.2759,0.698763
649.2,30.2375,0.383046,-3.27724,0.696444
652,30.3297,0.352384,-3.2794,0.694134
654.8,30.4223,0.333547,-3.28216,0.691813
657.6,30.5151,0.29323,-3.28213,0.689503
660.4,30.6078,0.260588,-3.28216,0.687193
663.2,30.7004,0.235785,-3.28477,0.684883
666,30.7932,0.221884,-3.28609,0.682573
668.8,30.886,0.201824,-3.28609,0.680274
671.6,30.9789,0.160749,-3.2874,0.677964
674.4,31.0718,0.181792,-3.28872,0.675662
677.2,31.1649,0.178791,-3.29005,0.673362
680,31.2581,0.153473,-3.29137,0.671074
682.8,31.3512,0.151631,-3.29267,0.668773
685.6,31.4444,0.134618,-3.29266,0.666483
688.4,31.5376,0.143767,-3.29282,0.664193
691.2,31.6308,0.126625,-3.29398,0.661903
694,31.7241,0.136023,-3.29497,0.659624
696.8,31.8175,0.136639,-3.29628,0.657332
699.6,31.9108,0.130571,-3.29637,0.655053
702.4,32.0042,0.108659,-3.2969,0.652772
705.2,32.0975,0.107867,-3.29791,0.650503
708,32.191,0.119948,-3.29925,0.648234
710.8,32.2844,0.0945687,-3.29925,0.645964
713.6,32.3778,0.10901,-3.29925,0.643693
716.4,32.4712,0.0955361,-3.30188,0.641422
719.2,32.5648,0.106584,-3.3032,0.639163
722,32.6581,0.108008,-3.30219,0.636903
724.8,32.7515,0.105728,-3.30353,0.634653
727.6,32.8451,0.0999459,-3.30484,0.632393
730.4,32.9383,0.101901,-3.30484,0.630143
733.2,33.0319,0.0926804,-3.30616,0.627903
736,33.1254,0.0904681,-3.30704,0.625653
738.8,33.2191,0.0883292,-3.30715,0.623413
741.6,33.3127,0.0832764,-3.30681,0.621173
744.4,,,,
747.2,,,,
750,,,,

File: Oak_Flooring_STA_N2_30KData_211209_R2.csv
,Time/min,DSC/mW,Mass loss/mg,Sensit./(uV/mW)
50.0,10.6849,0.39041,-0.0185104,1.0695
52.8,10.9676,0.916991,-0.0173721,1.06924
55.6,11.1564,1.3187,-0.0177568,1.06895
58.4,11.3109,1.64412,-0.0172733,1.06864
61.2,11.4475,1.91698,-0.0179757,1.06831
64,11.5728,2.17027,-0.0192678,1.06796
66.8,11.6904,2.37182,-0.0189321,1.06759
69.6,11.8038,2.56836,-0.0186999,1.06719
72.4,11.9131,2.74871,-0.0193203,1.06678
75.2,12.0193,2.9052,-0.0212353,1.06634
78,12.1236,3.05238,-0.0209782,1.06588
80.8,12.2258,3.19564,-0.0216641,1.0654
83.6,12.3269,3.33682,-0.0221718,1.0649
86.4,12.4264,3.45673,-0.0229599,1.06437
89.2,12.5247,3.57753,-0.0237047,1.06383
92,12.622,3.66862,-0.0255352,1.06327
94.8,12.7187,3.75621,-0.0265401,1.06268
97.6,12.8147,3.82857,-0.0279823,1.06208
100.4,12.9103,3.88643,-0.0302564,1.06145
103.2,13.0053,3.91477,-0.0315807,1.0608
106,13.1001,3.94283,-0.03159,1.06013
108.8,13.1948,3.94285,-0.0329103,1.05945
111.6,13.2891,3.92148,-0.03422,1.05874
114.4,13.3835,3.92446,-0.0355126,1.05801
117.2,13.4772,3.95331,-0.03422,1.05726
120,13.5708,3.94809,-0.03554,1.0565
122.8,13.6639,3.93498,-0.0363657,1.05571
125.6,13.7566,3.91514,-0.03685,1.0549
128.4,13.849,3.90125,-0.03685,1.05407
131.2,13.9408,3.89241,-0.0388056,1.05323
134,14.0323,3.87211,-0.0388316,1.05236
136.8,14.1234,3.86396,-0.03882,1.05148
139.6,14.2139,3.86859,-0.03882,1.05057
142.4,14.3043,3.87734,-0.03882,1.04965
145.2,14.3942,3.90822,-0.03882,1.0487
148,14.4837,3.94358,-0.04014,1.04774
150.8,14.5731,3.95784,-0.0388304,1.04676
153.6,14.6622,4.00267,-0.0404177,1.04576
156.4,14.7511,4.03193,-0.04114,1.04475
159.2,14.8398,4.07754,-0.0398203,1.04371
162,14.9282,4.10925,-0.04113,1.04266
164.8,15.0166,4.14489,-0.04113,1.04158
167.6,15.1045,4.17938,-0.04113,1.04049
170.4,15.1926,4.21372,-0.04113,1.03939
173.2,15.2803,4.25397,-0.04113,1.03826
176,15.3678,4.29507,-0.04113,1.03712
178.8,15.4551,4.33322,-0.04113,1.03596
181.6,15.5422,4.38431,-0.04113,1.03478
184.4,15.629,4.42417,-0.04113,1.03359
187.2,15.7155,4.46478,-0.04113,1.03237
190,15.8018,4.50667,-0.0437905,1.03114
192.8,15.8879,4.53866,-0.04377,1.0299
195.6,15.9741,4.59757,-0.04377,1.02863
198.4,16.0599,4.63639,-0.04377,1.02735
201.2,16.1457,4.68627,-0.04377,1.02606
204,16.2314,4.73279,-0.04508,1.02475
206.8,16.317,4.77591,-0.04508,1.02342
209.6,16.4027,4.82217,-0.0464,1.02207
212.4,16.4882,4.88526,-0.047349,1.02071
215.2,16.5737,4.9341,-0.0468644,1.01933
218,16.659,4.99073,-0.04804,1.01794
220.8,16.7442,5.04726,-0.0507145,1.01653
223.6,16.8296,5.1003,-0.05199,1.01511
226.4,16.9148,5.14697,-0.0542843,1.01367
229.2,16.9998,5.20591,-0.0543011,1.01221
232,17.0851,5.23957,-0.0558815,1.01074
234.8,17.1703,5.26498,-0.0596524,1.00926
237.6,17.2556,5.27795,-0.0636617,1.00776
240.4,17.3406,5.28697,-0.0658024,1.00625
243.2,17.4257,5.32103,-0.0704104,1.00472
246,17.5109,5.35607,-0.0753021,1.00317
248.8,17.5958,5.3955,-0.0809709,1.00162
251.6,17.6807,5.44654,-0.0880613,1.00004
254.4,17.7655,5.4823,-0.0950717,0.998462
257.2,17.8503,5.53373,-0.100586,0.996861
260,17.9352,5.59072,-0.106185,0.995243
262.8,18.02,5.63606,-0.113743,0.993621
265.6,18.105,5.6779,-0.124513,0.991981
268.4,18.1899,5.72314,-0.133242,0.990322
271.2,18.2745,5.75846,-0.14322,0.988662
274,18.3596,5.7832,-0.153712,0.986982
276.8,18.4445,5.79817,-0.166918,0.985282
279.6,18.5292,5.80149,-0.181493,0.983581
282.4,18.614,5.8001,-0.19933,0.981862
285.2,18.6989,5.77811,-0.21923,0.980131
288,18.7837,5.74625,-0.240658,0.978382
290.8,18.8686,5.67785,-0.26798,0.976631
293.6,18.9534,5.61999,-0.294642,0.97486
296.4,19.0383,5.52305,-0.325115,0.973081
299.2,19.1231,5.40758,-0.361332,0.97129
302,19.2082,5.2754,-0.398364,0.969481
304.8,19.293,5.12473,-0.439971,0.967671
307.6,19.3778,4.97134,-0.486012,0.96584
310.4,19.4628,4.8265,-0.534192,0.964001
313.2,19.5477,4.66969,-0.586098,0.962151
316,19.6326,4.53346,-0.639969,0.960291
318.8,19.7176,4.41846,-0.696318,0.95842
321.6,19.8028,4.32734,-0.754912,0.95654
324.4,19.888,4.28056,-0.81405,0.95465
327.2,19.9731,4.2715,-0.87476,0.952741
330,20.0584,4.3118,-0.936133,0.95083
332.8,20.1439,4.38514,-0.99751,0.94891
335.6,20.2292,4.50271,-1.06041,0.946971
338.4,20.3149,4.63538,-1.1229,0.94503
341.2,20.4007,4.79985,-1.18796,0.94308
344,20.4864,4.96657,-1.25358,0.94112
346.8,20.5722,5.14808,-1.32113,0.93914
349.6,20.658,5.33009,-1.39318,0.93716
352.4,20.744,5.52182,-1.46834,0.93517
355.2,20.8303,5.70647,-1.54696,0.93317
358,20.9166,5.89255,-1.63021,0.93116
360.8,21.0029,6.07025,-1.71935,0.92914
363.6,21.0894,6.22598,-1.81242,0.927119
366.4,21.1759,6.34848,-1.91038,0.92508
369.2,21.2626,6.41411,-2.01208,0.923039
372,21.3492,6.38375,-2.11772,0.920989
374.8,21.436,6.26677,-2.22487,0.918929
377.6,21.5227,6.02631,-2.33139,0.916859
380.4,21.6095,5.63381,-2.43497,0.91478
383.2,21.6963,5.07431,-2.53074,0.912699
386,21.7829,4.38628,-2.6172,0.910609
388.8,21.8698,3.6066,-2.69014,0.908509
391.6,21.9565,2.87817,-2.74508,0.9064
394.4,22.0434,2.30841,-2.78384,0.904289
397.2,22.1302,1.92382,-2.80864,0.90217
400,22.2173,1.6534,-2.82741,0.900039
402.8,22.3044,1.46402,-2.84091,0.8979
405.6,22.3916,1.30872,-2.85255,0.89576
408.4,22.4788,1.17473,-2.86313,0.89361
411.2,22.5663,1.06039,-2.87362,0.891458
414,22.6539,0.977495,-2.88206,0.889299
416.8,22.7415,0.890533,-2.89119,0.887129
419.6,22.8293,0.826177,-2.90104,0.884959
422.4,22.917,0.758933,-2.91059,0.882779
425.2,23.005,0.706689,-2.91815,0.88059
428,23.0929,0.668763,-2.92545,0.878399
430.8,23.1809,0.642511,-2.93431,0.876209
433.6,23.269,0.64165,-2.94206,0.874
436.4,23.3567,0.635372,-2.94858,0.871799
439.2,23.4454,0.657512,-2.95805,0.869589
442,23.5336,0.694692,-2.96329,0.867369
444.8,23.622,0.732015,-2.97013,0.86514
447.6,23.7105,0.781253,-2.9768,0.862919
450.4,23.7988,0.829866,-2.98182,0.860679
453.2,23.8875,0.892816,-2.98975,0.858449
456,23.9761,0.964628,-2.99463,0.856209
458.8,24.0648,1.022,-3.00008,0.853959
461.6,24.1536,1.08385,-3.00519,0.851709
464.4,24.2425,1.16025,-3.01101,0.849458
467.2,24.3316,1.23538,-3.01753,0.847199
470,24.4204,1.28973,-3.02247,0.844928
472.8,24.5095,1.3597,-3.0267,0.842669
475.6,24.5987,1.43042,-3.02951,0.840399
478.4,24.6878,1.45656,-3.0355,0.838119
481.2,24.777,1.51238,-3.03934,0.835849
484,24.8664,1.5472,-3.04349,0.833568
486.8,24.9559,1.58907,-3.04799,0.831279
489.6,25.0454,1.632,-3.0508,0.828988
492.4,25.1346,1.65647,-3.05328,0.826698
495.2,25.2244,1.69527,-3.05762,0.824409
498,25.3141,1.71385,-3.0625,0.822108
500.8,25.404,1.7396,-3.06539,0.819818
503.6,25.4937,1.75549,-3.06814,0.817508
506.4,25.5836,1.77635,-3.07116,0.815209
509.2,25.6737,1.80711,-3.07465,0.812898
512,25.7637,1.85004,-3.07785,0.810588
514.8,25.8535,1.89979,-3.08158,0.808278
517.6,25.9438,1.93027,-3.08411,0.805969
520.4,26.0339,1.95663,-3.08818,0.803648
523.2,26.1242,2.00741,-3.09095,0.801338
526,26.2143,2.03583,-3.09359,0.799018
528.8,26.3045,2.06142,-3.09634,0.796698
531.6,26.3951,2.09265,-3.10028,0.794368
534.4,26.4856,2.12407,-3.10181,0.792049
537.2,26.5759,2.15496,-3.10421,0.789718
540,26.6665,2.17227,-3.10659,0.787398
542.8,26.7573,2.19422,-3.10827,0.785068
545.6,26.8477,2.21048,-3.11236,0.782738
548.4,26.9385,2.22567,-3.11377,0.780408
551.2,27.0294,2.24912,-3.11673,0.778078
554,27.1201,2.24388,-3.11908,0.775738
556.8,27.2111,2.25885,-3.11899,0.773409
559.6,27.3021,2.25184,-3.12161,0.771068
562.4,27.393,2.23733,-3.1243,0.768739
565.2,27.4839,2.23194,-3.12579,0.766398
568,27.575,2.24247,-3.12824,0.764068
570.8,27.6665,2.22915,-3.13088,0.761729
573.6,27.7578,2.22967,-3.13217,0.759388
576.4,27.8492,2.228,-3.13362,0.757058
579.2,27.9405,2.22765,-3.13614,0.754719
582,28.0319,2.23024,-3.13888,0.752378
584.8,28.1234,2.23335,-3.14018,0.750038
587.6,28.2148,2.23351,-3.14168,0.747708
590.4,28.3065,2.24097,-3.1435,0.745369
593.2,28.398,2.26242,-3.14569,0.743028
596,28.4897,2.28026,-3.14746,0.740698
598.8,28.5814,2.28587,-3.14875,0.738359
601.6,28.6733,2.30485,-3.15007,0.736018
604.4,28.7652,2.30612,-3.15196,0.733689
607.2,28.857,2.31615,-3.15396,0.731348
610,28.9488,2.35321,-3.15535,0.729019
612.8,29.0409,2.36911,-3.15798,0.726688
615.6,29.1329,2.39127,-3.15928,0.724348
618.4,29.2251,2.41696,-3.16059,0.722019
621.2,29.317,2.44129,-3.16421,0.719689
624,29.4093,2.46001,-3.16434,0.717359
626.8,29.5014,2.4925,-3.16691,0.715028
629.6,29.5937,2.51564,-3.16686,0.712698
632.4,29.686,2.53827,-3.16817,0.710379
635.2,29.7782,2.57215,-3.17082,0.708048
638,29.8708,2.60926,-3.17195,0.705729
640.8,29.9632,2.65236,-3.17399,0.703408
643.6,30.0553,2.70452,-3.1753,0.701088
646.4,30.1478,2.75687,-3.17662,0.698768
649.2,30.24,2.80475,-3.17794,0.696449
652,30.3326,2.84851,-3.1789,0.694129
654.8,30.4251,2.87084,-3.18154,0.691818
657.6,30.5179,2.87629,-3.18188,0.689498
660.4,30.6107,2.87622,-3.1832,0.687188
663.2,30.7034,2.85658,-3.18451,0.684878
666,30.7962,2.8206,-3.18686,0.682578
668.8,30.8891,2.80861,-3.18715,0.680269
671.6,30.982,2.76062,-3.18848,0.677969
674.4,31.0749,2.74536,-3.19011,0.675668
677.2,31.1678,2.73298,-3.19056,0.673369
680,31.2606,2.75067,-3.19012,0.671069
682.8,31.3537,2.78323,-3.19143,0.668778
685.6,31.4467,2.79164,-3.19314,0.666479
688.4,31.5396,2.80322,-3.19454,0.664189
691.2,31.6324,2.80494,-3.19449,0.661898
694,31.7254,2.83096,-3.19581,0.659619
696.8,31.8183,2.82798,-3.19713,0.657338
699.6,31.9113,2.83337,-3.19713,0.655058
702.4,32.0043,2.82613,-3.19812,0.652779
705.2,32.0974,2.82248,-3.19814,0.650499
708,32.1904,2.84174,-3.19812,0.648229
710.8,32.2836,2.8275,-3.19943,0.645959
713.6,32.3768,2.81339,-3.20078,0.643689
716.4,32.4702,2.80627,-3.20075,0.641429
719.2,32.5635,2.8013,-3.20135,0.639169
722,32.6568,2.77154,-3.20075,0.636909
724.8,32.7504,2.77941,-3.20292,0.634649
727.6,32.8439,2.76901,-3.20437,0.632399
730.4,32.9374,2.74686,-3.20306,0.630149
733.2,33.0312,2.69697,-3.20269,0.627899
736,33.1246,2.69324,-3.20315,0.625659
738.8,33.2184,2.67818,-3.20568,0.623409
741.6,33.3121,2.62586,-3.207,0.621179
744.4,,,,
747.2,,,,
750,,,,