Folder: fsri_materials_database/01_Data/Oak_Flooring/STA/N2/3K_min

Note: 01_Data/README.md
# Materials and Products Database
## 01_Data

Raw data generated from each apparatus are included here in plain-text format. The data is organized first by material, next by the short name of test apparatus used, and where applicable additional filtering by test settings.

### material.json

Each material directory contains a json file of the same name as the material. This file links the data stored in the repository as well as data and graphs produced by the accompanying scripts (__02_Scripts__) to the respective landing page for the material on the front-end website.

File: Oak_Flooring_STA_N2_3KData_211209_R1.csv
##Temp./Â°C,Time/min,Mass loss(subtr.2)/mg,DSC(subtr.2)/(mW/mg),Sensit./(uV/mW)
50.038,10.01,-0.03893,0.01614162,1.06378
53.138,12.2882,-0.04089767,0.06525605,1.06303
56.238,13.4761,-0.04748743,0.07429581,1.06228
59.338,14.6012,-0.05131879,0.08202482,1.06152
62.438,15.6865,-0.05148143,0.0877872,1.06076
65.538,16.75029,-0.05286169,0.09127665,1.06
68.638,17.80641,-0.055722,0.09459817,1.05923
71.738,18.85531,-0.05999,0.09264432,1.05846
74.838,19.90387,-0.06460018,0.09126037,1.05768
77.938,20.94536,-0.0649983,0.09363926,1.0569
81.038,21.98321,-0.06833838,0.08707913,1.05611
84.138,23.0206,-0.07074001,0.082989,1.05532
87.238,24.06054,-0.07272,0.08188785,1.05452
90.338,25.0977,-0.07436021,0.08146658,1.05371
93.438,26.13244,-0.07534024,0.08113566,1.05291
96.538,27.16099,-0.07653626,0.07934026,1.05209
99.638,28.19045,-0.07754,0.07952742,1.05127
102.738,29.2198,-0.07985,0.07837863,1.05044
105.838,30.24755,-0.08116,0.07785026,1.04961
108.938,31.27484,-0.08049971,0.07810112,1.04877
112.038,32.3032,-0.08018,0.08026764,1.04793
115.138,33.3288,-0.08149664,0.07955733,1.04708
118.238,34.35179,-0.08136776,0.07897248,1.04622
121.338,35.3765,-0.07918286,0.08183091,1.04535
124.438,36.40198,-0.08082931,0.08262356,1.04448
127.538,37.42477,-0.08050999,0.08536284,1.0436
130.638,38.44899,-0.08048181,0.08747489,1.04272
133.738,39.47007,-0.08379021,0.0859693,1.04183
136.838,40.48875,-0.08324016,0.08574687,1.04093
139.938,41.51113,-0.08299631,0.08768664,1.04002
143.038,42.53539,-0.08423029,0.08923664,1.0391
146.138,43.55332,-0.08522,0.08997833,1.03818
149.238,44.57039,-0.08488974,0.08789111,1.03725
152.338,45.58464,-0.0846014,0.08924897,1.03631
155.438,46.59859,-0.08259,0.09011677,1.03536
158.538,47.6113,-0.08226,0.0927392,1.03441
161.638,48.62748,-0.08094091,0.09096504,1.03345
164.738,49.6442,-0.0839,0.09601499,1.03247
167.838,50.65755,-0.0839,0.09805137,1.03149
170.938,51.67474,-0.08398864,0.09555617,1.0305
174.038,52.68999,-0.08533,0.0964704,1.0295
177.138,53.6991,-0.08924965,0.09807023,1.02849
180.238,54.7109,-0.08894948,0.10081,1.02748
183.338,55.72,-0.09190995,0.10036,1.02645
186.438,56.738,-0.09059,0.09966701,1.02541
189.538,57.75428,-0.09025749,0.10326,1.02437
192.638,58.76465,-0.09125,0.10547,1.02331
195.738,59.7762,-0.09323529,0.10359,1.02225
198.838,60.7882,-0.0955298,0.10395,1.02117
201.938,61.79566,-0.09933242,0.10728,1.02008
205.038,62.80684,-0.10179,0.10609,1.01899
208.138,63.8205,-0.10442,0.1108,1.01788
211.238,64.83,-0.11034,0.1115,1.01676
214.338,65.83713,-0.117,0.11535,1.01563
217.438,66.8442,-0.12494,0.11452,1.01449
220.538,67.85712,-0.13173,0.11488,1.01334
223.638,68.86542,-0.14029,0.12027,1.01218
226.738,69.87186,-0.15,0.12256,1.01101
229.838,70.8851,-0.16113,0.12135,1.00982
232.938,71.89635,-0.17055,0.12711,1.00862
236.038,72.9046,-0.1833,0.12253,1.00742
239.138,73.91425,-0.1993,0.12178,1.0062
242.238,74.92663,-0.21882,0.11736,1.00496
245.338,75.93705,-0.24065,0.11962,1.00372
248.438,76.94329,-0.2645,0.11927,1.00246
251.538,77.95634,-0.29187,0.11768,1.00119
254.638,78.96735,-0.32415,0.11594,0.99991
257.738,79.97814,-0.36442,0.11492,0.99862
260.838,80.98841,-0.40663,0.1132,0.99731
263.938,81.99292,-0.45226,0.10967,0.99599
267.038,82.9998,-0.50597,0.10909,0.99466
270.138,84.01504,-0.56073,0.10074,0.99332
273.238,85.0275,-0.61933,0.10238,0.99196
276.338,86.04048,-0.67972,0.09832959,0.99059
279.438,87.0535,-0.74321,0.09544977,0.9892
282.538,88.06376,-0.80894,0.0942704,0.9878
285.638,89.07177,-0.87587,0.09718595,0.98639
288.738,90.08336,-0.9432,0.10058,0.98496
291.838,91.0996,-1.01225,0.10573,0.98353
294.938,92.10961,-1.08038,0.11083,0.98207
298.038,93.12325,-1.15024,0.1149,0.9806
301.138,94.13499,-1.22473,0.11921,0.97912
304.238,95.14663,-1.30322,0.12997,0.97762
307.338,96.16439,-1.38718,0.1356,0.97611
310.438,97.1738,-1.47609,0.14407,0.97459
313.538,98.1866,-1.5705,0.15222,0.97305
316.638,99.19951,-1.67486,0.15853,0.9715
319.738,100.215,-1.78559,0.16331,0.96993
322.838,101.231,-1.90231,0.16709,0.96834
325.938,102.247,-2.02386,0.1725,0.96674
329.038,103.267,-2.15173,0.16329,0.96513
332.138,104.283,-2.28245,0.1594,0.9635
335.238,105.291,-2.40551,0.1443,0.96186
338.338,106.3074,-2.51913,0.11865,0.9602
341.438,107.329,-2.61709,0.08873295,0.95852
344.538,108.342,-2.69158,0.05406174,0.95683
347.638,109.357,-2.74101,0.02660263,0.95513
350.738,110.374,-2.77139,0.009418766,0.95341
353.838,111.393,-2.78966,8.388515e-05,0.95167
356.938,112.411,-2.80401,-0.008689401,0.94992
360.038,113.428,-2.82242,-0.009485152,0.94815
363.138,114.449,-2.83527,-0.01222846,0.94637
366.238,115.472,-2.84449,-0.01735576,0.94457
369.338,116.4901,-2.85568,-0.0212883,0.94275
372.438,117.504,-2.86752,-0.02545228,0.94092
375.538,118.526,-2.88063,-0.02865978,0.93907
378.638,119.548,-2.89187,-0.03147128,0.93721
381.738,120.568,-2.90074,-0.02868203,0.93533
384.838,121.59,-2.90963,-0.02988208,0.93343
387.938,122.6088,-2.91918,-0.0336638,0.93152
391.038,123.629,-2.92973,-0.03319742,0.92959
394.138,124.651,-2.94024,-0.02921353,0.92764
397.238,125.676,-2.94775,-0.02812405,0.92568
400.338,126.702,-2.9568,-0.02828278,0.92371
403.438,127.731,-2.96294,-0.02702446,0.92171
406.538,128.756,-2.9717,-0.02720477,0.9197
409.638,129.774,-2.97775,-0.02665596,0.91767
412.738,130.797,-2.98532,-0.02552434,0.91563
415.838,131.823,-2.9919,-0.02216136,0.91357
418.938,132.851,-2.99881,-0.01814365,0.91149
422.038,133.878,-3.00473,-0.00790424,0.9094
425.138,134.903,-3.00868,-0.003973031,0.90729
428.238,135.926,-3.01134,-0.00109708,0.90516
431.338,136.952,-3.01864,7.238158e-05,0.90302
434.438,137.98,-3.02645,0.000225718,0.90086
437.538,139.008,-3.03072,0.0008902497,0.89868
440.638,140.036,-3.036,0.0005509505,0.89649
443.738,141.065,-3.04114,0.002347535,0.89428
446.838,142.096,-3.04323,0.00369646,0.89206
449.938,143.121,-3.04652,-0.002041434,0.88981
453.038,144.149,-3.04949,-0.009624703,0.88755
456.138,145.179,-3.05343,-0.02347898,0.88528
459.238,146.21,-3.05705,-0.02717597,0.88299
462.338,147.244,-3.06199,-0.0307999,0.88068
465.438,148.272,-3.06698,-0.02830022,0.87835
468.538,149.303,-3.06989,-0.02982261,0.87601
471.638,150.334,-3.06989,-0.03593112,0.87365
474.738,151.366,-3.07252,-0.04600477,0.87127
477.838,152.398,-3.07812,-0.05080315,0.86888
480.938,153.438,-3.08075,-0.06215859,0.86647
484.038,154.473,-3.08307,-0.0645475,0.86405
487.138,155.501,-3.08579,-0.06640656,0.86161
490.238,156.538,-3.08679,-0.06711882,0.85915
493.338,157.576,-3.09072,-0.07071075,0.85668
496.438,158.612,-3.09348,-0.07258507,0.85419
499.538,159.6483,-3.09533,-0.0733838,0.85168
502.638,160.68,-3.09961,-0.07697926,0.84916
505.738,161.717,-3.10225,-0.0739181,0.84662
508.838,162.756,-3.10493,-0.07565017,0.84407
511.938,163.79,-3.10588,-0.07786149,0.8415
515.038,164.829,-3.10751,-0.07788539,0.83891
518.138,165.868,-3.10981,-0.07714719,0.83631
521.238,166.906,-3.11245,-0.07630877,0.83369
524.338,167.941,-3.11475,-0.07533149,0.83106
527.438,168.981,-3.11639,-0.0804141,0.82841
530.538,170.023,-3.12265,-0.07793891,0.82575
533.638,171.06,-3.12199,-0.07919133,0.82307
536.738,172.1,-3.12331,-0.08256616,0.82037
539.838,173.142,-3.12461,-0.08225601,0.81766
542.938,174.1756,-3.12528,-0.08013339,0.81494
546.038,175.2119,-3.12957,-0.080541,0.81219
549.138,176.251,-3.13087,-0.08152006,0.80944
552.238,177.288,-3.13252,-0.08306842,0.80667
555.338,178.331,-3.13482,-0.08515294,0.80388
558.438,179.373,-3.1368,-0.08064425,0.80108
561.538,180.41,-3.1391,-0.08140142,0.79826
564.638,181.446,-3.13927,-0.08068211,0.79543
567.738,182.492,-3.14105,-0.07805872,0.79259
570.838,183.529,-3.14404,-0.07757072,0.78973
573.938,184.571,-3.14699,-0.08003688,0.78686
577.038,185.616,-3.14864,-0.07803135,0.78397
580.138,186.657,-3.15065,-0.07679383,0.78107
583.238,187.697,-3.15193,-0.07814924,0.77815
586.338,188.738,-3.15358,-0.07921018,0.77522
589.438,189.79,-3.15687,-0.08436262,0.77228
592.538,190.825,-3.15888,-0.08177549,0.76933
595.638,191.862,-3.15941,-0.07725725,0.76636
598.738,192.908,-3.16049,-0.08399879,0.76337
601.838,193.949,-3.16214,-0.07903083,0.76038
604.938,194.99,-3.16247,-0.08682429,0.75737
608.038,196.038,-3.16378,-0.0863248,0.75434
611.138,197.079,-3.16444,-0.0863822,0.75131
614.238,198.121,-3.16641,-0.08960214,0.74826
617.338,199.166,-3.1674,-0.09228507,0.7452
620.438,200.209,-3.16873,-0.09305314,0.74213
623.538,201.2532,-3.16872,-0.0962007,0.73904
626.638,202.2972,-3.16971,-0.10044,0.73594
629.738,203.342,-3.17234,-0.10376,0.73283
632.838,204.389,-3.17366,-0.11209,0.72971
635.938,205.43,-3.17497,-0.11345,0.72658
639.038,206.4759,-3.17792,-0.11897,0.72344
642.138,207.523,-3.17826,-0.12434,0.72028
645.238,208.574,-3.17696,-0.12755,0.71711
648.338,209.616,-3.18122,-0.1277,0.71394
651.438,210.657,-3.18418,-0.12401,0.71075
654.538,211.703,-3.18583,-0.12795,0.70755
657.638,212.75,-3.18583,-0.13154,0.70434
660.738,213.798,-3.18684,-0.13086,0.70112
663.838,214.846,-3.18977,-0.12672,0.69789
666.938,215.884,-3.19184,-0.12969,0.69465
670.038,216.931,-3.1934,-0.12862,0.6914
673.138,217.985,-3.19373,-0.1247,0.68814
676.238,219.033,-3.1957,-0.12612,0.68487
679.338,220.08,-3.19701,-0.12545,0.68159
682.438,221.126,-3.19965,-0.12073,0.6783
685.538,222.171,-3.2003,-0.12132,0.675
688.638,223.217,-3.20063,-0.1217,0.6717
691.738,224.266,-3.20426,-0.11597,0.66838
694.838,225.313,-3.20491,-0.11016,0.66506
697.938,226.366,-3.20494,-0.10524,0.66173
701.038,227.412,-3.20689,-0.10312,0.65839
704.138,228.459,-3.20821,-0.09787304,0.65504
707.238,229.507,-3.20985,-0.09696419,0.65168
710.338,230.55,-3.21018,-0.09061127,0.64832
713.438,231.601,-3.21314,-0.08715396,0.64495
716.538,232.652,-3.21282,-0.08471963,0.64157
719.638,233.708,-3.21676,-0.08561083,0.63819
722.738,234.754,-3.21676,-0.08248251,0.6348
725.838,235.799,-3.21806,-0.07765728,0.6314
728.938,236.847,-3.21742,-0.07768876,0.628
732.038,237.903,-3.21808,-0.02868633,0.62458
735.138,238.952,-3.22071,-0.06658476,0.62117
738.238,240.0061,-3.22038,-0.07397776,0.61775
741.338,241.054,-3.22166,-0.07854779,0.61432
744.438,242.105,-3.22005,-0.08143242,0.61088
747.538,243.157,-3.22209,-0.07922558,0.60745
748.038,243.327,-3.22136,-0.08121385,0.60689