Folder: fsri_materials_database/01_Data/Overstuffed_Chair_Assembly/Cone

Note: 01_Data/README.md
# Materials and Products Database
## 01_Data

Raw data generated from each apparatus are included here in plain-text format. The data is organized first by material, next by the short name of test apparatus used, and where applicable additional filtering by test settings.

### material.json

Each material directory contains a json file of the same name as the material. This file links the data stored in the repository as well as data and graphs produced by the accompanying scripts (__02_Scripts__) to the respective landing page for the material on the front-end website.

File: Overstuffed_Chair_Assembly_Cone_HF25Scalar_210325_R1.csv
LABORATORY,FSRI
TEST IDENT,FurnitureStack_H25_1
OPERATOR,Morrissey
MATERIAL,1'' PUF-1.75''PEBat-PEFabric
ORIENTATION,Horizontal
HEAT FLUX,25
SURF AREA,0.01
C FACTOR,0.0386052
SPEC HOLDER DIFF,-87.61
SPECIMEN MASS,20.4
SCAN TIME,0.25
O2 DELAY TIME,11
CO DELAY TIME,11
CO2 DELAY TIME,8
FLOW FACTOR,1
SCAN COUNT,1486
TIME TO IGN,59.5
END OF TEST SCAN,1006
END OF TEST TIME,251.5
TEST STATUS,1
PRE TEST CMT,"Sample is an assembly of approximately 1 inch polyurethane foam, topped by 1.75 inch polyester batting, topped by polyester fabric."
POST TEST CMT,"The fabric shrivelled upon heating and impacted the spark ignitor causing a spike in the mass time history data. The sample then retracted away from the spark ignitor prior to ignition due to further pyrolysis and melting of the materials. See test pictures."

File: Overstuffed_Chair_Assembly_Cone_HF25Scalar_210325_R2.csv
LABORATORY,FSRI
TEST IDENT,FurnitureStack_H25_2
OPERATOR,Morrissey
MATERIAL,1'' PUF-1.75''PEBat-PEFabric
ORIENTATION,Horizontal
HEAT FLUX,25
SURF AREA,0.01
C FACTOR,0.0386052
SPEC HOLDER DIFF,-84.42
SPECIMEN MASS,16.6
SCAN TIME,0.25
O2 DELAY TIME,11
CO DELAY TIME,11
CO2 DELAY TIME,8
FLOW FACTOR,1
SCAN COUNT,1457
TIME TO IGN,76.5
END OF TEST SCAN,977
END OF TEST TIME,244.25
TEST STATUS,1
PRE TEST CMT,"Sample is an assembly of approximately 1 inch polyurethane foam, topped by 1.75 inch polyester batting, topped by polyester fabric."
POST TEST CMT,"The fabric shrivelled upon heating and impacted the spark ignitor causing a spike in the mass time history data. The sample then retracted away from the spark ignitor prior to ignition due to further pyrolysis and melting of the materials."

File: Overstuffed_Chair_Assembly_Cone_HF50Scalar_210326_R1.csv
LABORATORY,FSRI
TEST IDENT,Stack_HF50_1
OPERATOR,Morrissey
MATERIAL,"1"" PUF, 1.75"" PE Batting, PE Fabric"
ORIENTATION,Horizontal
HEAT FLUX,50
SURF AREA,0.01
C FACTOR,0.0386052
SPEC HOLDER DIFF,-96.93
SPECIMEN MASS,16.99
SCAN TIME,0.25
O2 DELAY TIME,11
CO DELAY TIME,11
CO2 DELAY TIME,8
FLOW FACTOR,1
SCAN COUNT,948
TIME TO IGN,12.75
END OF TEST SCAN,468
END OF TEST TIME,117
TEST STATUS,1
PRE TEST CMT,"Sample is an assembly of approximately 1 inch polyurethane foam, topped by 1.75 inch polyester batting, topped by polyester fabric."
POST TEST CMT,"The fabric shrivelled upon heating and impacted the spark ignitor causing a spike in the mass time history data. The sample then retracted away from the spark ignitor prior to ignition due to further pyrolysis and melting of the materials."

File: Overstuffed_Chair_Assembly_Cone_HF50Scalar_210326_R2.csv
LABORATORY,FSRI
TEST IDENT,Stack_HF50_2
OPERATOR,Morrissey
MATERIAL,"1"" PUF, 1.75"" PE Batting, PE Fabric"
ORIENTATION,Horizontal
HEAT FLUX,50
SURF AREA,0.01
C FACTOR,0.0386052
SPEC HOLDER DIFF,-95.12
SPECIMEN MASS,15.95
SCAN TIME,0.25
O2 DELAY TIME,11
CO DELAY TIME,11
CO2 DELAY TIME,8
FLOW FACTOR,1
SCAN COUNT,968
TIME TO IGN,15.25
END OF TEST SCAN,488
END OF TEST TIME,122
TEST STATUS,1
PRE TEST CMT,"Sample is an assembly of approximately 1 inch polyurethane foam, topped by 1.75 inch polyester batting, topped by polyester fabric."
POST TEST CMT,"The fabric shrivelled upon heating and impacted the spark ignitor causing a spike in the mass time history data. The sample then retracted away from the spark ignitor prior to ignition due to further pyrolysis and melting of the materials."

File: Overstuffed_Chair_Assembly_Cone_HF75Scalar_210325_R1.csv
LABORATORY,FSRI
TEST IDENT,Stack_HF75_1
OPERATOR,Dow
MATERIAL,"1"" PUF, 1.75"" PE Batting, PE Fabric"
ORIENTATION,Horizontal
HEAT FLUX,35
SURF AREA,0.01
C FACTOR,0.0386052
SPEC HOLDER DIFF,-71.86
SPECIMEN MASS,15.85
SCAN TIME,0.25
O2 DELAY TIME,11
CO DELAY TIME,11
CO2 DELAY TIME,8
FLOW FACTOR,1
SCAN COUNT,815
TIME TO IGN,8
END OF TEST SCAN,335
END OF TEST TIME,83.75
TEST STATUS,1
PRE TEST CMT,"Sample is an assembly of approximately 1 inch polyurethane foam, topped by 1.75 inch polyester batting, topped by polyester fabric."
POST TEST CMT,"The fabric shrivelled upon heating and impacted the spark ignitor causing a spike in the mass time history data. The sample then retracted away from the spark ignitor prior to ignition due to further pyrolysis and melting of the materials. The foil pan folded upwards slightly after ignition and was impacted by the removal of the spark ignitor causing further disturbances in the mass time history data. The foil pan continue to fold in on itself before end of test."

File: Overstuffed_Chair_Assembly_Cone_HF75Scalar_210325_R2.csv
LABORATORY,FSRI
TEST IDENT,Stack_HF75_2
OPERATOR,Dow
MATERIAL,"1"" PUF, 1.75"" PE Batting, PE Fabric"
ORIENTATION,Horizontal
HEAT FLUX,75
SURF AREA,0.01
C FACTOR,0.0386052
SPEC HOLDER DIFF,-96.92
SPECIMEN MASS,15.77
SCAN TIME,0.25
O2 DELAY TIME,11
CO DELAY TIME,11
CO2 DELAY TIME,8
FLOW FACTOR,1
SCAN COUNT,774
TIME TO IGN,10.75
END OF TEST SCAN,294
END OF TEST TIME,73.5
TEST STATUS,1
PRE TEST CMT,"Sample is an assembly of approximately 1 inch polyurethane foam, topped by 1.75 inch polyester batting, topped by polyester fabric."
POST TEST CMT,"The fabric shrivelled upon heating and impacted the spark ignitor causing a spike in the mass time history data. The sample then retracted away from the spark ignitor prior to ignition due to further pyrolysis and melting of the materials."

File: Overstuffed_Chair_Assembly_Cone_HF75Scan_210325_R3.csv
Names,Time,Stack TC,Smoke TC,Exh Press,Smoke Comp,Smoke Meas,CO Meter,CO2 Meter,O2 Meter,Sample Mass,Ext Coeff,Start Test,Flame Verif
Chan Gain,,500,500,1,1,1,1,1,1,1,1,1.0,1.0
Offset,,0,0,0.138348,0,0,0,0,0,0,0,0.0,0.0
Gain,,1,1,25.011,13.5067,16.616,1,1,1,1.00091,1.04608,1.0,1.0
Units,sec,C,C,Pa,%,%,%,%,%,g,/m,,
Baseline,,38.2579,41.4736,158.112,100.256,100.379,-0.000534893,0.0816873,20.8691,-3.61691,-0.0112461,,
8,1.75,35.5388,38.0444,158.952,100.748,100.885,-0.000233831,0.0853457,20.8662,483.67,-0.0124792,0.0,0.0
16,3.75,35.7245,38.782,157.656,100.773,101.027,-0.000205728,0.0859937,20.866,484.641,-0.0230567,0.0,0.0
24,5.75,36.3397,39.0345,160.152,100.806,101.109,-9.43845e-05,0.086115,20.8659,484.251,-0.0274668,0.0,0.0
32,7.75,35.9634,38.9009,156.805,100.852,100.691,7.05673e-05,0.0862828,20.8659,484.231,0.0146124,0.0,0.0
40,9.75,36.1381,39.4272,155.754,100.852,96.4485,0.000473221,0.0878791,20.8616,484.061,0.40964,0.0,0.0
48,11.75,36.9751,40.8517,150.95,100.89,97.7821,0.00144853,0.117234,20.7862,483.63,0.287153,0.0,1.0
56,13.75,38.8782,43.9673,141.302,100.913,88.319,0.00307898,0.207034,20.6122,483.33,1.22318,0.0,1.0
64,15.75,40.7812,47.0571,147.563,100.928,86.6066,0.00477407,0.305795,20.4888,483.07,1.40427,0.0,0.0
72,17.75,42.5996,50.3264,142.375,100.948,83.5063,0.00598013,0.379496,20.4049,482.82,1.74053,0.0,0.0
80,19.75,44.3622,54.0347,142.792,100.958,86.5594,0.00654116,0.4227,20.3666,482.579,1.412,0.0,0.0
88,21.75,45.7382,54.9684,141.942,100.984,84.6787,0.00668445,0.445908,20.3521,482.329,1.61594,0.0,0.0
96,23.75,46.9976,56.9701,142.63,101.007,85.9185,0.00689516,0.458359,20.3476,482.049,1.48462,0.0,0.0
104,25.75,48.0451,58.6193,141.352,101.027,81.734,0.00827707,0.47141,20.3263,481.799,1.94456,0.0,0.0
112,27.75,49.6847,61.2975,138.264,101.05,70.0667,0.0113594,0.526444,20.2045,481.508,3.35996,0.0,0.0
120,29.75,51.71,64.5625,139.9,101.068,68.4384,0.0151392,0.623061,20.0641,481.048,3.5774,0.0,0.0
128,31.75,55.3736,70.2653,124.762,101.09,70.9191,0.0196052,0.768665,19.8567,480.467,3.25267,0.0,0.0
136,33.75,59.9425,78.4279,130.68,101.099,68.8994,0.0236139,0.965793,19.4931,479.787,3.51865,0.0,0.0
144,35.75,65.8783,87.0644,122.898,101.121,71.1929,0.0271269,1.19941,19.1568,479.126,3.22015,0.0,0.0
152,37.75,71.2029,98.0962,94.2459,101.141,69.1686,0.030478,1.42889,18.8347,478.285,3.48664,0.0,0.0
160,39.75,77.6467,111.308,94.4115,101.171,70.2913,0.0340711,1.69545,18.4573,477.635,3.34159,0.0,0.0
168,41.75,85.4204,123.708,118.851,101.166,73.6684,0.0378721,1.93853,18.173,476.844,2.91057,0.0,0.0
176,43.75,91.9875,133.55,111.613,101.187,69.4191,0.0407928,2.09511,18.0461,476.043,3.45765,0.0,0.0
184,45.75,96.3737,141.249,102.502,101.204,64.1278,0.043776,2.17095,18.014,475.193,4.18671,0.0,0.0
192,47.75,100.775,145.956,113.42,101.223,63.1587,0.0462899,2.21024,18.033,474.322,4.32811,0.0,0.0
200,49.75,103.656,149.889,104.948,101.234,60.5402,0.0478729,2.22532,18.0707,473.611,4.71771,0.0,0.0
208,51.75,106.565,152.778,114.691,101.247,59.5341,0.048668,2.21501,18.1265,472.76,4.87264,0.0,0.0
216,53.75,107.102,155.521,103.384,101.251,59.7679,0.0483667,2.18667,18.2014,472.04,4.83701,0.0,0.0
224,55.75,108.757,156.391,118.268,101.279,61.3469,0.046358,2.1228,18.3449,471.259,4.60031,0.0,0.0
232,57.75,109.341,155.069,118.289,101.28,60.8135,0.0431731,1.97672,18.5418,470.668,4.68056,0.0,0.0
240,59.75,107.632,151.325,129.669,101.301,64.6272,0.039019,1.77819,18.8171,470.148,4.1243,0.0,0.0
248,61.75,105.883,146.943,133.634,101.337,67.7899,0.033694,1.55192,19.1408,469.668,3.68914,0.0,0.0
256,63.75,103.153,141.483,125.481,101.326,71.5372,0.0276807,1.33639,19.4386,469.417,3.19441,0.0,0.0
264,65.75,100.139,135.044,136.915,101.35,74.9615,0.0218086,1.14836,19.6772,469.237,2.7676,0.0,0.0
272,67.75,96.2423,129.769,140.297,101.372,91.1941,0.0166723,0.961103,19.8729,469.167,0.970918,0.0,0.0
280,69.75,93.7528,121.97,149.271,101.385,98.6573,0.0120792,0.791444,20.1032,469.237,0.2503,0.0,0.0
288,71.75,89.782,114.96,149.558,101.393,100.92,0.00874954,0.606442,20.3288,469.237,0.0429424,0.0,0.0
296,73.75,86.4192,109.011,149.225,101.416,102.237,0.00649457,0.469226,20.4872,469.257,-0.0739772,0.0,0.0
304,75.75,82.8626,103.136,147.612,101.436,102.25,0.00516345,0.369478,20.5988,469.247,-0.0733239,0.0,0.0
312,77.75,79.3892,97.6782,153.885,101.433,102.007,0.00460854,0.299714,20.669,469.287,-0.0517164,0.0,0.0
320,79.75,76.2223,92.7731,148.985,101.453,102.455,0.00465342,0.251979,20.7125,469.277,-0.0901697,0.0,0.0
328,81.75,73.9821,88.7214,148.719,101.465,102.461,0.00494375,0.219064,20.7406,469.257,-0.0896251,0.0,0.0
336,83.75,71.8198,85.38,145.881,101.476,103.026,0.00519434,0.195998,20.7573,469.197,-0.13907,0.0,0.0
344,85.75,69.9516,82.5311,153.123,101.477,102.493,0.00531118,0.179725,20.7687,469.257,-0.0914059,0.0,0.0
352,87.75,68.5124,79.3517,149.486,101.489,103.19,0.00548447,0.16815,20.7784,469.257,-0.152491,0.0,0.0
360,89.75,66.0896,76.2644,146.232,101.491,102.495,0.00573411,0.15927,20.7847,469.287,-0.0903652,0.0,0.0
368,91.75,65.3669,74.6745,150.429,101.489,102.871,0.00611704,0.153118,20.79,469.257,-0.124167,0.0,0.0
376,93.75,63.8862,72.2425,149.016,101.503,102.371,0.00635407,0.149307,20.794,469.237,-0.0781101,0.0,0.0
384,95.75,62.7644,70.2219,148.158,101.503,102.887,0.0062952,0.146226,20.7958,469.187,-0.124264,0.0,0.0
392,97.75,61.7976,68.5512,151.562,101.507,102.484,0.00615353,0.143905,20.7976,469.167,-0.0879507,0.0,0.0
400,99.75,61.0386,67.3518,151.533,101.496,102.873,0.00604973,0.14187,20.7994,469.127,-0.12364,0.0,0.0
408,101.75,60.2112,65.7408,149.868,101.502,103.012,0.00599978,0.139955,20.8015,469.107,-0.13554,0.0,0.0
416,103.75,59.7717,64.9937,148.267,101.503,102.703,0.0061472,0.137935,20.8029,469.087,-0.107878,0.0,0.0
424,105.75,58.686,64.3667,148.452,101.5,102.72,0.00638781,0.136598,20.8024,469.047,-0.109626,0.0,0.0
432,107.75,58.5589,63.1765,150.735,101.498,102.782,0.00667058,0.136027,20.802,469.087,-0.115353,0.0,0.0
440,109.75,57.521,62.286,147.411,101.495,102.503,0.00678501,0.135384,20.8031,469.067,-0.0907182,0.0,0.0
448,111.75,57.1021,61.6269,149.966,101.472,102.632,0.00673901,0.134593,20.8048,469.037,-0.104246,0.0,0.0
456,113.75,56.9684,61.1465,151.617,101.47,102.603,0.00662681,0.133722,20.8063,469.017,-0.101922,0.0,0.0
464,115.75,56.9164,59.814,150.684,101.456,102.199,0.00653021,0.132911,20.8072,469.037,-0.0669379,0.0,0.0
472,117.75,55.3815,59.5023,154.715,101.456,102.923,0.00646638,0.132588,20.8067,469.007,-0.131761,0.0,0.0
480,119.75,55.4434,59.1081,149.847,101.442,102.425,0.00641471,0.132553,20.8065,468.957,-0.0884891,0.0,0.0
488,121.75,55.5264,58.7334,147.693,101.431,102.76,0.00633471,0.132044,20.8064,468.957,-0.119475,0.0,0.0
496,123.75,54.1721,57.3062,146.511,101.419,102.697,0.00639411,0.131337,20.8063,468.927,-0.114903,0.0,0.0
504,125.75,54.0887,57.9619,149.455,101.413,102.529,0.00661781,0.131053,20.8063,468.957,-0.100445,0.0,0.0
512,127.75,54.5894,57.7743,148.755,101.393,102.547,0.00671874,0.131013,20.8063,468.907,-0.103831,0.0,0.0
520,129.75,53.6466,57.2586,150.692,101.38,102.457,0.00670722,0.130706,20.8063,468.937,-0.0970274,0.0,0.0
528,131.75,53.556,56.0618,152.486,101.344,102.396,0.00675209,0.130609,20.8063,468.927,-0.0947768,0.0,0.0
536,133.75,52.9318,56.6733,152.471,101.332,102.637,0.00684433,0.130576,20.8063,468.917,-0.117418,0.0,0.0
544,135.75,53.513,56.4787,153.255,101.322,102.232,0.00679558,0.130481,20.8072,468.907,-0.0821036,0.0,0.0
552,137.75,52.9529,56.2849,147.306,101.287,102.299,0.0066031,0.129815,20.8083,468.817,-0.0911629,0.0,0.0
560,139.75,52.7083,55.7195,154.954,101.283,102.101,0.00639336,0.129248,20.8086,468.857,-0.0738256,0.0,0.0
568,141.75,52.8875,55.4121,155.032,101.256,101.886,0.00630599,0.128184,20.8109,468.837,-0.0569013,0.0,0.0
576,143.75,52.3578,56.2699,153.536,101.234,102.286,0.0063801,0.127483,20.8118,468.827,-0.0948807,0.0,0.0
584,145.75,51.8502,55.3346,151.589,101.203,101.881,0.00650851,0.127382,20.8119,468.817,-0.0612732,0.0,0.0
592,147.75,52.0279,55.198,152.128,101.175,102.087,0.00664053,0.127647,20.8118,468.817,-0.0823304,0.0,0.0
600,149.75,51.7943,55.351,152.557,101.153,102.577,0.00681021,0.127843,20.8118,468.807,-0.128274,0.0,0.0
608,151.75,51.6012,55.1892,151.695,101.122,101.909,0.00687394,0.127459,20.8117,468.747,-0.0710676,0.0,0.0
616,153.75,51.4923,55.113,151.078,101.084,101.827,0.00692549,0.126306,20.8128,468.707,-0.0672299,0.0,0.0
624,155.75,51.929,54.34,153.577,101.051,101.739,0.00701545,0.125062,20.8135,468.737,-0.0622318,0.0,0.0
632,157.75,51.1753,55.0282,152.826,101.025,101.983,0.00710744,0.123911,20.8149,468.727,-0.0865625,0.0,0.0
640,159.75,51.1576,54.4281,152.129,101.011,101.915,0.00703132,0.122807,20.8157,468.717,-0.0818028,0.0,0.0
648,161.75,50.676,53.9297,156.605,100.979,101.652,0.00680057,0.121364,20.8179,468.697,-0.0609235,0.0,0.0
656,163.75,50.5112,53.9998,156.353,100.977,101.977,0.00660816,0.120046,20.8203,468.707,-0.090442,0.0,0.0
664,165.75,50.8068,53.8848,151.234,100.949,102.059,0.00658457,0.119076,20.8215,468.697,-0.100416,0.0,0.0
672,167.75,50.057,53.7428,151.194,100.932,101.63,0.00659024,0.118367,20.823,468.627,-0.0632545,0.0,0.0
680,169.75,50.0838,53.591,151.217,100.925,101.436,0.00663671,0.1176,20.824,468.677,-0.0463397,0.0,0.0
688,171.75,50.2012,53.2051,153.984,100.902,102,0.00670026,0.117025,20.8244,468.687,-0.0992779,0.0,0.0
696,173.75,50.125,53.1453,152.575,100.894,101.897,0.00665571,0.116358,20.8258,468.627,-0.0907535,0.0,0.0
704,175.75,49.2489,53.3394,153.285,100.886,101.699,0.00657227,0.115588,20.8265,468.597,-0.0736856,0.0,0.0
712,177.75,49.3945,52.9076,152.723,100.872,101.659,0.00656017,0.114722,20.8268,468.647,-0.0713454,0.0,0.0
720,179.75,49.9037,52.7238,156.18,100.861,101.361,0.00663117,0.114021,20.827,468.617,-0.0453674,0.0,0.0
728,181.75,49.2901,52.7032,150.441,100.902,101.774,0.00662597,0.113536,20.827,468.597,-0.0789469,0.0,0.0
736,183.75,49.222,51.801,151.397,100.952,101.61,0.00652355,0.112915,20.8277,468.617,-0.0595879,0.0,0.0
744,185.75,49.6701,53.2431,150.618,101,101.623,,0.112195,,468.637,-0.0564787,0.0,0.0
752,187.75,49.6324,52.509,154.386,101.043,101.544,,0.111765,,468.617,-0.0453646,0.0,0.0
760,189.75,49.1088,52.5872,149.073,101.117,101.756,,,,468.557,-0.0577544,0.0,0.0
768,191.75,49.1234,51.9005,148.409,101.175,102.1,,,,468.526,-0.0834778,0.0,0.0
776,193.75,48.7194,52.0614,152.213,101.223,101.876,,,,468.516,-0.0590143,0.0,0.0
784,195.75,48.5539,51.8003,154.281,101.26,102.296,,,,468.567,-0.0934379,0.0,0.0
786,196.25,48.4544,51.9116,149.028,101.275,102.178,,,,468.547,-0.0814971,0.0,0.0