Folder: fsri_materials_database/01_Data/Lightweight_Gypsum_Wallboard/Cone (part 2)

File: Lightweight_Gypsum_Wallboard_Cone_HF50Scan_220506_R2.csv
Names,Time,Stack TC,Smoke TC,Exh Press,Smoke Comp,Smoke Meas,CO Meter,CO2 Meter,O2 Meter,Sample Mass,Ext Coeff,Start Test,Flame Verif
Chan Gain,,500,500,1,1,1,1,1,1,1,1,1.0,1.0
Offset,,0,0,0.135316,0,0,0,0,0,0,0,0.0,0.0
Gain,,1,1,25.011,13.8443,15.4071,1,1,1,1.00079,1.02936,1.0,1.0
Units,sec,C,C,Pa,%,%,%,%,%,g,/m,,
Baseline,,30.7147,31.832,136.292,103.87,104.234,0.00031159,0.041915,21.0019,-447.06,-0.0315685,,
7,1.5,28.7293,29.7035,136.642,103.838,103.939,0.00020198,0.0475348,20.9991,112.819,-0.0088022,0.0,0.0
14,3.25,29.0705,29.9961,135.709,103.829,104.462,0.00025727,0.0465443,21.0007,112.729,-0.0548855,0.0,0.0
21,5,28.798,29.5508,136.312,103.808,103.787,0.00031004,0.0455962,21.0014,112.679,0.00179202,0.0,0.0
28,6.75,29.1193,29.9847,136.572,103.78,104.316,0.000367291,0.0449982,21.0019,112.589,-0.0465365,0.0,0.0
35,8.5,29.1283,30.5833,134.296,103.762,104.159,0.000374012,0.0448887,21.0021,112.619,-0.0345542,0.0,0.0
42,10.25,28.571,29.9095,135.613,103.755,103.809,0.000297176,0.0449468,21.001,112.559,-0.00468461,0.0,0.0
49,12,29.182,29.9737,132.798,103.745,103.975,0.000193323,0.0451208,21.0015,112.579,-0.0200335,0.0,0.0
56,13.75,28.7663,30.1136,136.134,103.732,103.68,0.000118235,0.0451098,21.0011,112.489,0.00457997,0.0,0.0
63,15.5,29.376,30.2879,133.379,103.713,104.183,0.000111608,0.0448832,21.0002,112.439,-0.040858,0.0,0.0
70,17.25,29.2253,29.9327,137.812,103.705,104.228,0.000172339,0.0447508,20.9997,112.389,-0.0453946,0.0,0.0
77,19,29.2577,30.436,136.317,103.708,103.513,0.000183381,0.0452363,20.9995,112.319,0.0169169,0.0,0.0
84,20.75,29.5298,30.6821,138.322,103.697,103.504,0.000151434,0.0461204,20.9976,112.249,0.0168546,0.0,0.0
91,22.5,29.3842,30.5367,137.463,103.673,102.841,0.000201222,0.0472668,20.9961,112.178,0.0727374,0.0,0.0
98,24.25,29.4625,30.7848,137.03,103.66,102.254,0.000463566,0.0479455,20.9954,112.128,0.123348,0.0,0.0
105,26,29.9277,30.8858,138.715,103.644,101.483,0.000774087,0.0482483,20.9926,111.988,0.190299,0.0,0.0
112,27.75,29.6251,30.7653,139.391,103.619,100.099,0.00113539,0.0539569,20.9844,111.978,0.312016,0.0,0.0
119,29.5,29.6357,30.8135,125.093,103.604,107.431,0.00153763,0.092643,20.9342,111.698,-0.327487,0.0,1.0
126,31.25,30.6084,31.2278,118.769,103.584,108.615,0.00196418,0.181182,20.8187,111.388,-0.428256,0.0,1.0
133,33,32.6532,32.2014,123.536,103.57,108.412,0.00225705,0.286955,20.7041,111.088,-0.412569,0.0,1.0
140,34.75,33.6628,33.5189,114.339,103.544,108.549,0.00244008,0.355386,20.6198,110.677,-0.426168,0.0,0.0
147,36.5,35.5729,35.4652,120.658,103.522,107.404,0.00249182,0.398006,20.5803,110.537,-0.332342,0.0,0.0
154,38.25,37.6447,36.9082,121.552,103.507,107.235,0.00253291,0.404002,20.5705,110.287,-0.319466,0.0,0.0
161,40,39.2688,37.3137,121.303,103.486,107.082,0.00284384,0.379731,20.6035,110.177,-0.308393,0.0,0.0
168,41.75,38.7249,39.6047,126.243,103.476,105.321,0.00367576,0.336454,20.671,109.947,-0.159526,0.0,0.0
175,43.5,40.0836,39.6633,127.538,103.472,104.654,0.00490787,0.274764,20.7466,109.877,-0.102552,0.0,0.0
182,45.25,39.9709,39.8263,135.361,103.429,103.61,0.00663899,0.217384,20.8135,109.717,-0.0157609,0.0,0.0
189,47,39.1429,38.9371,130.706,103.421,104.687,0.00814578,0.169306,20.8647,109.646,-0.109858,0.0,0.0
196,48.75,38.9117,39.3604,136.635,103.424,103.909,0.00927018,0.136595,20.8969,109.506,-0.0421903,0.0,0.0
203,50.5,38.0365,38.7898,133.885,103.399,103.782,0.00995722,0.116931,20.9173,109.336,-0.0333652,0.0,0.0
210,52.25,37.7725,38.4559,134.252,103.394,104.012,0.0103893,0.105673,20.9288,109.256,-0.0537534,0.0,0.0
217,54,36.9947,38.362,135.806,103.394,103.848,0.0106512,0.0999046,20.9353,109.166,-0.039533,0.0,0.0
224,55.75,37.3529,38.144,134.994,103.38,103.951,0.0107587,0.0964344,20.9384,109.076,-0.0496628,0.0,0.0
231,57.5,37.0914,38.2528,134.632,103.394,104.317,0.010743,0.0940418,20.9408,108.946,-0.0802417,0.0,0.0
238,59.25,36.3606,37.5093,137.004,103.389,104.642,0.0106757,0.0925192,20.9422,108.896,-0.108764,0.0,0.0
245,61,36.6776,37.4364,137.184,103.38,104.271,0.0102387,0.0914245,20.9426,108.786,-0.0775108,0.0,0.0
252,62.75,36.2582,37.2352,135.783,103.386,104.007,0.00974077,0.0901632,20.9427,108.746,-0.0540793,0.0,0.0
259,64.5,35.996,37.0372,136.629,103.411,104.224,0.00933865,0.0889542,20.944,108.676,-0.070704,0.0,0.0
266,66.25,35.7571,37.2719,136.754,103.418,104.358,0.00904481,0.0882067,20.9454,108.586,-0.0816791,0.0,0.0
273,68,36.1769,37.0584,135.926,103.428,103.64,0.00884503,0.086797,20.9471,108.496,-0.0185346,0.0,0.0
280,69.75,35.8871,36.7104,134.836,103.437,104.423,0.00869607,0.085398,20.9485,108.365,-0.0856685,0.0,0.0
287,71.5,35.4231,37.2463,134.431,103.455,104.646,0.00851923,0.0842896,20.9492,108.325,-0.103337,0.0,0.0
294,73.25,35.0124,36.34,133.519,103.49,104.167,0.00833518,0.083494,20.9497,108.165,-0.0588413,0.0,0.0
301,75,34.6862,36.6973,133.501,103.487,104.194,0.00823225,0.082739,20.9509,108.145,-0.0614588,0.0,0.0
308,76.75,35.2746,36.9697,139.139,103.505,104.178,0.00812022,0.0819534,20.9515,108.045,-0.0584882,0.0,0.0
315,78.5,35.2084,36.3927,137.117,103.539,104.203,0.00791367,0.0811086,20.953,107.965,-0.0577775,0.0,0.0
322,80.25,34.7642,36.3645,136.515,103.565,104.097,0.00755578,0.0801762,20.9537,107.885,-0.0462844,0.0,0.0
329,82,34.7179,36.082,132.153,103.587,104.357,0.0072347,0.0793505,20.9555,107.815,-0.0668547,0.0,0.0
336,83.75,34.3515,36.1094,135.596,103.609,104.821,0.00705582,0.0785441,20.9576,107.735,-0.105002,0.0,0.0
343,85.5,34.7656,36.4122,134.175,103.646,104.573,0.00697518,0.0778415,20.9593,107.655,-0.0804312,0.0,0.0
350,87.25,34.2989,35.9029,132.799,103.681,104.485,0.00695449,0.0774048,20.9601,107.565,-0.0697413,0.0,0.0
357,89,34.1952,35.8487,130.98,103.711,105.395,0.00688959,0.0772882,20.9605,107.415,-0.145454,0.0,0.0
364,90.75,33.8477,36.0623,138.561,103.737,104.681,0.00682241,0.0771184,20.961,107.405,-0.0817411,0.0,0.0
371,92.5,33.6524,35.8377,134.124,103.765,104.538,0.00677565,0.076532,20.9621,107.275,-0.0669762,0.0,0.0
378,94.25,33.8747,36.3286,132.729,103.789,104.792,0.00670931,0.0757538,20.9627,107.185,-0.0868622,0.0,0.0
385,96,33.5096,35.7847,133.187,103.854,104.489,0.00662522,0.0751445,20.9637,107.135,-0.0550745,0.0,0.0
392,97.75,33.2662,35.9428,131.118,103.863,104.468,0.00652871,0.074315,20.9653,107.004,-0.0523972,0.0,0.0
399,99.5,33.2701,35.3242,132.772,103.891,104.764,0.00632573,0.0732562,20.9666,106.974,-0.0755367,0.0,0.0
406,101.25,33.6645,35.6598,135.969,103.926,104.545,0.00592862,0.07231,20.9672,106.934,-0.0535482,0.0,0.0
413,103,33.3758,35.9191,133.898,103.975,105.08,0.00554323,0.0714076,20.9681,106.894,-0.0954276,0.0,0.0
420,104.75,33.1841,34.9633,129.992,104.021,104.612,0.00532022,0.0702908,20.9691,106.814,-0.0512118,0.0,0.0
427,106.5,33.2519,34.8695,133.327,104.058,105.18,0.0051872,0.0689969,20.9696,106.674,-0.0968005,0.0,0.0
434,108.25,33.5671,35.4938,131.115,104.089,104.966,0.00490796,0.0675635,20.9706,106.604,-0.0757435,0.0,0.0
441,110,33.0407,34.9592,133.667,104.14,104.65,0.00452236,0.0660268,20.9738,106.514,-0.0441625,0.0,0.0
448,111.75,33.1013,35.1649,134.92,104.191,104.623,0.00420994,0.0641001,20.977,106.504,-0.0373408,0.0,0.0
455,113.5,32.8983,34.9594,137.318,104.237,104.612,0.00403795,0.0622057,20.9793,106.374,-0.032454,0.0,0.0
462,115.25,33.0539,34.8842,136.245,104.278,104.728,0.00387164,0.060662,20.9809,106.334,-0.0388866,0.0,0.0
469,117,32.9576,34.5112,134.054,104.331,105.536,0.00357141,0.0590262,20.9837,106.294,-0.103653,0.0,0.0
476,118.75,32.2245,34.6803,134.051,104.377,104.859,0.00319874,0.0574234,20.9863,106.204,-0.0416296,0.0,0.0
483,120.5,33.115,34.4723,131.81,104.429,105.284,0.00290288,0.0560036,20.9878,106.164,-0.0736222,0.0,0.0
490,122.25,32.6226,34.6782,132.535,104.465,104.986,0.00270779,0.0544965,20.9885,106.104,-0.0448786,0.0,0.0
497,124,32.2756,35.0399,132.401,104.503,104.932,0.00244495,0.0530208,20.991,105.984,-0.0369814,0.0,0.0
504,125.75,32.9976,34.5796,129.476,104.551,105.073,0.00208671,0.0515267,20.9933,105.954,-0.0449105,0.0,0.0
511,127.5,32.8361,34.8479,133.094,104.606,105.027,0.00176866,0.0502099,20.9952,105.904,-0.0363249,0.0,0.0
518,129.25,32.4454,34.0612,133.148,104.648,105.246,0.00156632,0.0491366,20.9968,105.864,-0.0513785,0.0,0.0
525,131,31.7718,33.3986,134.362,104.679,105.598,0.0014776,0.0479952,20.9966,105.743,-0.0789218,0.0,0.0
532,132.75,31.8322,34.2579,136.426,104.724,105.47,0.0013593,0.0470532,20.9972,105.693,-0.0640775,0.0,0.0
539,134.5,32.3479,34.5193,139.478,104.786,105.197,0.00118292,0.0462746,20.9974,105.713,-0.0353058,0.0,0.0
546,136.25,32.3089,34.4924,134.029,104.812,105.308,0.00107917,0.0455611,20.9975,105.653,-0.042645,0.0,0.0
553,138,32.1306,34.0808,135.271,104.859,105.511,0.00107046,0.0448294,20.9976,105.633,-0.0559658,0.0,0.0
560,139.75,32.0441,34.2161,136.212,104.918,105.997,0.00106374,0.0444114,20.9976,105.553,-0.0923843,0.0,0.0
567,141.5,32.2789,33.9608,136.192,104.959,105.672,0.00101055,0.0443017,20.9977,105.523,-0.0610979,0.0,0.0
574,143.25,32.051,34.0254,135.126,105.013,105.234,0.000897586,0.0440868,20.9977,105.463,-0.0189693,0.0,0.0
581,145,31.9777,33.8833,133.353,105.046,105.752,0.000723789,0.0439358,20.9977,105.393,-0.0605219,0.0,0.0
588,146.75,31.747,33.7729,135.517,105.083,105.577,0.000569426,0.0437357,20.9977,105.393,-0.0423357,0.0,0.0
595,148.5,31.614,33.7315,134.075,105.157,105.18,0.000457763,0.0435619,20.9977,105.293,-0.00194472,0.0,0.0
602,150.25,31.5997,33.696,135.344,105.175,106.131,0.000495624,0.0433751,20.9977,105.263,-0.0817155,0.0,0.0
609,152,32.0615,33.949,131.463,105.211,106.179,0.000579895,0.0432504,20.9989,105.213,-0.0827485,0.0,0.0
616,153.75,31.5208,34.001,134.088,105.237,106.177,0.000657299,0.0432446,21.0002,105.223,-0.0803775,0.0,0.0
623,155.5,31.9928,33.7111,135.071,105.271,105.818,,0.0432597,,105.183,-0.0468406,0.0,0.0
630,157.25,31.9572,33.0896,133.108,105.305,106.488,,,,105.113,-0.100822,0.0,0.0
637,159,32.0095,33.0998,132.638,105.33,105.894,,,,105.083,-0.0481905,0.0,0.0
644,160.75,31.5045,33.4769,133.446,105.335,105.924,,,,105.023,-0.0503529,0.0,0.0
651,162.5,31.945,33.5421,137.996,105.347,105.684,,,,104.973,-0.0288784,0.0,0.0
658,164.25,32.2488,33.0347,135.167,105.389,106.426,,,,104.873,-0.0884241,0.0,0.0
661,165,31.9628,33.4414,134.515,105.398,105.867,,,,104.903,-0.0400752,0.0,0.0

File: Lightweight_Gypsum_Wallboard_Cone_HF75Scalar_220506_R3.csv
LABORATORY,FSRI
TEST IDENT,LW_Gypsum_HF75_3
OPERATOR,Dow
MATERIAL,lightweight gypsum
ORIENTATION,Horizontal
HEAT FLUX,75
SURF AREA,0.01
C FACTOR,0.0414606
SPEC HOLDER DIFF,-566
SPECIMEN MASS,63.71
SCAN TIME,0.25
O2 DELAY TIME,11
CO DELAY TIME,11
CO2 DELAY TIME,8
FLOW FACTOR,1
SCAN COUNT,592
TIME TO IGN,14.5
END OF TEST SCAN,112
END OF TEST TIME,28
TEST STATUS,1
PRE TEST CMT,Dimensions: 102.03 x 98.74 x 12.60 mm