Folder: fsri_materials_database/01_Data/Lightweight_Gypsum_Wallboard/Cone

Note: 01_Data/README.md
# Materials and Products Database
## 01_Data

Raw data generated from each apparatus are included here in plain-text format. The data is organized first by material, next by the short name of test apparatus used, and where applicable additional filtering by test settings.

### material.json

Each material directory contains a json file of the same name as the material. This file links the data stored in the repository as well as data and graphs produced by the accompanying scripts (__02_Scripts__) to the respective landing page for the material on the front-end website.

File: Lightweight_Gypsum_Wallboard_Cone_HF25Scalar_220506_R1.csv
LABORATORY,FSRI
TEST IDENT,LW_Gypsum_HF25_1
OPERATOR,Dow
MATERIAL,lightweight gypsum
ORIENTATION,Horizontal
HEAT FLUX,25
SURF AREA,0.01
C FACTOR,0.0414606
SPEC HOLDER DIFF,-566
SPECIMEN MASS,64.16
SCAN TIME,0.25
O2 DELAY TIME,11
CO DELAY TIME,11
CO2 DELAY TIME,8
FLOW FACTOR,1
SCAN COUNT,1153
TIME TO IGN,150.75
END OF TEST SCAN,673
END OF TEST TIME,168.25
TEST STATUS,1
PRE TEST CMT,Dimensions: 101.66 x 98.69 x 12.61 mm

File: Lightweight_Gypsum_Wallboard_Cone_HF25Scalar_220506_R2.csv
LABORATORY,FSRI
TEST IDENT,LW_Gypsum_HF25_2
OPERATOR,Dow
MATERIAL,lightweight gypsum
ORIENTATION,Horizontal
HEAT FLUX,25
SURF AREA,0.01
C FACTOR,0.0414606
SPEC HOLDER DIFF,-566
SPECIMEN MASS,64.39
SCAN TIME,0.25
O2 DELAY TIME,11
CO DELAY TIME,11
CO2 DELAY TIME,8
FLOW FACTOR,1
SCAN COUNT,1148
TIME TO IGN,149.25
END OF TEST SCAN,668
END OF TEST TIME,167
TEST STATUS,1
PRE TEST CMT,Dimensions: 99.15 x 102.00 x 12.50 mm

File: Lightweight_Gypsum_Wallboard_Cone_HF25Scalar_220506_R3.csv
LABORATORY,FSRI
TEST IDENT,LW_Gypsum_HF25_3
OPERATOR,Dow
MATERIAL,lightweight gypsum
ORIENTATION,Horizontal
HEAT FLUX,25
SURF AREA,0.01
C FACTOR,0.0414606
SPEC HOLDER DIFF,-566
SPECIMEN MASS,64.08
SCAN TIME,0.25
O2 DELAY TIME,11
CO DELAY TIME,11
CO2 DELAY TIME,8
FLOW FACTOR,1
SCAN COUNT,1145
TIME TO IGN,150.5
END OF TEST SCAN,665
END OF TEST TIME,166.25
TEST STATUS,1
PRE TEST CMT,Dimensions: 101.95 x 98.64 x 12.53 mm

File: Lightweight_Gypsum_Wallboard_Cone_HF25Scan_220506_R2.csv
Names,Time,Stack TC,Smoke TC,Exh Press,Smoke Comp,Smoke Meas,CO Meter,CO2 Meter,O2 Meter,Sample Mass,Ext Coeff,Start Test,Flame Verif
Chan Gain,,500,500,1,1,1,1,1,1,1,1,1.0,1.0
Offset,,0,0,0.135316,0,0,0,0,0,0,0,0.0,0.0
Gain,,1,1,25.011,13.8443,15.4071,1,1,1,1.00079,1.02936,1.0,1.0
Units,sec,C,C,Pa,%,%,%,%,%,g,/m,,
Baseline,,18.2578,18.7871,142.135,104.634,103.652,2.21041e-05,0.0449432,21.0016,-446.387,0.0851273,,
12,2.75,17.2179,17.8932,149.136,104.455,103.482,0.000186234,0.0492572,20.9988,114.03,0.0844634,0.0,0.0
24,5.75,17.2003,17.7723,137.508,104.45,103.569,8.84266e-05,0.0479157,21.0005,114.06,0.076476,0.0,0.0
36,8.75,16.9957,18.0849,143.978,104.446,103.691,-1.91935e-05,0.0477643,21.0001,114.03,0.0655764,0.0,0.0
48,11.75,17.6064,18.1144,141.4,104.441,103.459,-0.00013856,0.0487991,20.9986,114.01,0.0853474,0.0,0.0
60,14.75,17.0492,17.6699,140.348,104.434,103.537,-0.000141,0.0490373,20.9982,113.97,0.0779157,0.0,0.0
72,17.75,17.474,17.985,143.912,104.424,103.545,-7.5316e-05,0.048466,20.9999,113.97,0.0763383,0.0,0.0
84,20.75,17.4281,18.0958,142.19,104.428,103.475,2.20704e-05,0.0474799,21.0014,113.95,0.0828189,0.0,0.0
96,23.75,17.64,18.2847,141.843,104.427,103.433,-3.53287e-06,0.0464139,21.0024,113.89,0.0863976,0.0,0.0
108,26.75,17.3216,18.4135,138.85,104.434,103.522,1.39303e-05,0.0456721,21.0027,113.86,0.0791513,0.0,0.0
120,29.75,17.0956,17.8774,139.176,104.423,103.434,0.000169519,0.0451533,21.0028,113.81,0.0859146,0.0,0.0
132,32.75,17.6332,18.4741,144.292,104.426,103.42,0.000122354,0.0448238,21.0028,113.75,0.0873965,0.0,0.0
144,35.75,17.6677,17.9323,145.152,104.42,103.467,0.000106749,0.0446971,21.0046,113.71,0.0827816,0.0,0.0
156,38.75,17.8597,18.4663,140.762,104.426,103.418,0.000278402,0.0444188,21.0054,113.65,0.0876023,0.0,0.0
168,41.75,17.495,17.6623,139.577,104.422,103.688,0.000271355,0.0444476,21.0046,113.61,0.063704,0.0,0.0
180,44.75,18.031,18.3731,137.498,104.41,103.465,0.000164143,0.0443007,21.003,113.57,0.0820691,0.0,0.0
192,47.75,17.5809,18.1238,143.002,104.409,103.384,6.99222e-05,0.0442949,21.0023,113.5,0.0890615,0.0,0.0
204,50.75,17.4418,18.158,143.255,104.395,103.44,8.16981e-05,0.0444532,21.0021,113.439,0.0830066,0.0,0.0
216,53.75,17.4247,18.2565,144.984,104.394,103.497,0.000163178,0.0447258,21.002,113.389,0.0778911,0.0,0.0
228,56.75,17.6555,18.4599,139.42,104.388,103.386,0.000195847,0.0446109,21.002,113.339,0.0870693,0.0,0.0
240,59.75,18.1391,18.1239,144.141,104.385,103.406,0.000216309,0.0444749,21.002,113.309,0.0850894,0.0,0.0
252,62.75,18.0559,18.1,144.567,104.378,103.39,0.000299185,0.0445903,21.0013,113.239,0.0858229,0.0,0.0
264,65.75,18.632,18.5135,139.118,104.37,103.287,0.00040225,0.044572,21.0006,113.169,0.0941675,0.0,0.0
276,68.75,18.1261,18.6931,141.123,104.365,103.321,0.000379078,0.0445748,21.0007,113.089,0.0908008,0.0,0.0
288,71.75,17.9943,18.7179,144.599,104.359,103.203,0.000266394,0.0446082,21.0007,113.039,0.10061,0.0,0.0
300,74.75,18.484,18.9338,143.415,104.361,103.205,0.000288731,0.0448257,21.0015,112.979,0.100554,0.0,0.0
312,77.75,18.1885,18.754,141.85,104.359,102.791,0.000238094,0.044938,21.002,112.969,0.136681,0.0,0.0
324,80.75,18.1628,18.4471,141.625,104.355,102.883,0.000117421,0.044996,21.0006,112.909,0.128261,0.0,0.0
336,83.75,17.8536,18.2444,143.545,104.385,102.722,0.000107192,0.0450738,20.9997,112.869,0.145062,0.0,0.0
348,86.75,18.1228,18.5986,142.833,104.474,102.638,0.000288054,0.0452719,21.0012,112.819,0.160052,0.0,0.0
360,89.75,18.1635,18.4295,138.287,104.569,102.618,0.000377865,0.045369,21.0021,112.719,0.170079,0.0,0.0
372,92.75,18.5243,19.6379,141.787,104.656,102.654,0.000449793,0.0454762,21.0024,112.619,0.17437,0.0,0.0
384,95.75,18.3776,19.2605,138.527,104.731,102.589,0.000511391,0.0459495,21.0024,112.559,0.18657,0.0,0.0
396,98.75,18.4985,19.2431,143.751,104.784,102.278,0.000623089,0.0461624,21.0015,112.539,0.218596,0.0,0.0
408,101.75,18.0492,19.0463,140.462,104.86,102.1,0.000761103,0.046267,21.0014,112.449,0.240847,0.0,0.0
420,104.75,18.8476,19.7545,143.576,104.907,102.28,0.000875314,0.0465146,21.0028,112.339,0.229056,0.0,0.0
432,107.75,18.6474,19.0456,139.824,104.983,102.385,0.000817792,0.0468265,21.0027,112.259,0.226265,0.0,0.0
444,110.75,18.5211,19.53,139.94,105.026,102.475,0.000767883,0.0470066,21.0007,112.158,0.222017,0.0,0.0
456,113.75,19.0168,19.7398,142.761,105.069,102.401,0.000926572,0.0472238,20.9998,112.128,0.232227,0.0,0.0
468,116.75,18.4234,19.3503,145.988,105.106,102.235,0.00120658,0.0475303,20.9996,112.008,0.250069,0.0,0.0
480,119.75,19.0382,19.4802,141.561,105.137,102.568,0.00136736,0.0478841,20.9989,111.948,0.223365,0.0,0.0
492,122.75,18.8803,19.0186,146.827,105.146,102.057,0.00148369,0.0482034,20.9988,111.868,0.269233,0.0,0.0
504,125.75,18.5412,19.2645,143.236,105.179,101.978,0.00161496,0.0486189,20.9987,111.768,0.279095,0.0,0.0
516,128.75,18.7259,19.0009,141.533,105.182,101.792,0.00166733,0.049128,20.9985,111.678,0.295774,0.0,0.0
528,131.75,19.2099,19.4089,143.891,105.174,101.836,0.00195722,0.0495305,20.9972,111.558,0.291278,0.0,0.0
540,134.75,18.7952,19.1051,145.926,105.173,101.605,0.00248599,0.0502591,20.9957,111.418,0.311662,0.0,0.0
552,137.75,18.5607,19.7199,140.28,105.147,100.683,0.00291127,0.0512305,20.9951,111.328,0.391763,0.0,0.0
564,140.75,19.0008,19.6403,139.966,105.126,100.288,0.00326876,0.0522342,20.994,111.218,0.425403,0.0,0.0
576,143.75,18.8836,19.148,141.072,105.092,100.576,0.00374531,0.0534677,20.991,111.088,0.396593,0.0,0.0
588,146.75,19.5696,20.3287,137.813,105.051,100.647,0.00411871,0.0550986,20.9865,110.958,0.386735,0.0,0.0
600,149.75,19.184,19.5532,138.09,104.998,104.866,0.00384167,0.0810131,20.9495,110.787,0.011408,0.0,1.0
612,152.75,20.1185,20.3781,129.888,104.945,105.707,0.00304135,0.162029,20.8623,110.437,-0.0653145,0.0,1.0
624,155.75,21.2898,21.0654,133.772,104.854,105.079,0.00337923,0.215867,20.8052,110.157,-0.0193118,0.0,0.0
636,158.75,22.4831,22.2059,139.497,104.786,104.264,0.00483034,0.205856,20.8122,109.907,0.0451215,0.0,0.0
648,161.75,22.7657,22.8353,139.453,104.694,103.947,0.00654643,0.166757,20.8665,109.717,0.0645911,0.0,0.0
660,164.75,22.6322,22.8849,141.204,104.593,103.938,0.00803751,0.125564,20.9114,109.566,0.0567272,0.0,0.0
672,167.75,21.8461,23.0409,140.991,104.582,103.722,0.00923636,0.102347,20.9334,109.466,0.0746282,0.0,0.0
684,170.75,22.2266,22.6187,137.991,104.61,103.922,0.00988743,0.0937353,20.9407,109.366,0.0595378,0.0,0.0
696,173.75,21.489,22.1358,141.591,104.672,103.977,0.0102268,0.0919026,20.9415,109.216,0.0601227,0.0,0.0
708,176.75,21.3501,22.1756,136.13,104.725,103.843,0.0102245,0.0921193,20.9415,109.096,0.0764354,0.0,0.0
720,179.75,21.5993,22.187,140.008,104.795,104.027,0.00977461,0.0914427,20.9425,108.986,0.0663543,0.0,0.0
732,182.75,21.2587,22.4538,140.23,104.86,104.169,0.00921271,0.090242,20.9428,108.886,0.0596789,0.0,0.0
744,185.75,21.2447,21.9098,141.597,104.932,104.132,0.00859146,0.0880141,20.9455,108.766,0.0690818,0.0,0.0
756,188.75,21.2466,21.833,139.802,104.999,104.198,0.00804749,0.0849473,20.9499,108.666,0.069195,0.0,0.0
768,191.75,21.0086,21.4238,139.522,105.065,104.379,0.00770327,0.0828517,20.9526,108.516,0.0592245,0.0,0.0
780,194.75,20.4503,21.8023,140.846,105.135,104.308,0.00739324,0.0808474,20.9556,108.406,0.0713567,0.0,0.0
792,197.75,20.5174,21.0221,142.383,105.17,104.456,0.00720919,0.0785808,20.9586,108.335,0.0615201,0.0,0.0
804,200.75,20.5324,21.0449,142.607,105.219,104.475,0.00718111,0.0771708,20.9603,108.185,0.0640962,0.0,0.0
816,203.75,20.707,21.2179,140.259,105.25,104.535,0.00680711,0.0759772,20.9617,108.095,0.0615789,0.0,0.0
828,206.75,20.6284,21.7636,139.474,105.273,104.524,0.00634806,0.0741323,20.9651,108.045,0.0644703,0.0,0.0
840,209.75,20.224,21.205,139.716,105.317,104.441,0.00614526,0.0726421,20.9675,107.965,0.0754342,0.0,0.0
852,212.75,20.006,21.3191,140.314,105.326,104.495,0.00605075,0.0711069,20.9699,107.875,0.0714817,0.0,0.0
864,215.75,20.307,21.1121,138.705,105.354,104.656,0.00563167,0.0699365,20.974,107.755,0.0600232,0.0,0.0
876,218.75,20.191,21.266,145.634,105.365,104.4,0.00525321,0.0685385,20.9754,107.685,0.08306,0.0,0.0
888,221.75,19.6851,20.5256,143.651,105.379,104.659,0.00502777,0.0672773,20.9758,107.655,0.0619167,0.0,0.0
900,224.75,20.2388,21.1288,141.447,105.382,104.675,0.00463841,0.0662961,20.975,107.575,0.0607899,0.0,0.0
912,227.75,20.1135,20.9506,141.89,105.389,104.633,0.00424023,0.0650659,20.9761,107.485,0.0649394,0.0,0.0
924,230.75,19.2199,20.2605,140.188,105.386,104.602,0.00382995,0.0635293,20.9781,107.425,0.067365,0.0,0.0
936,233.75,19.8192,20.7413,141.724,105.384,104.545,0.00354488,0.0621167,20.979,107.315,0.07221,0.0,0.0
948,236.75,19.7074,20.851,139.999,105.381,104.486,0.00333465,0.0605534,20.9804,107.235,0.0770331,0.0,0.0
960,239.75,19.5099,20.9024,141.94,105.386,104.472,0.00298417,0.058608,20.982,107.165,0.0786146,0.0,0.0
972,242.75,19.1748,20.5419,142.648,105.376,104.639,0.00230788,0.0566104,20.9847,107.135,0.0634079,0.0,0.0
984,245.75,19.5812,20.7538,139.397,105.363,104.574,0.00196181,0.0546818,20.9865,107.084,0.0678821,0.0,0.0
996,248.75,19.4456,20.183,142.331,105.348,104.56,0.00178257,0.0531183,20.9909,107.034,0.0678319,0.0,0.0
1008,251.75,19.6384,20.6608,141.369,105.343,104.451,0.0013597,0.051284,20.9943,106.974,0.0768218,0.0,0.0
1020,254.75,19.5468,19.9232,140.612,105.316,104.468,0.00110217,0.049764,20.997,106.924,0.0729691,0.0,0.0
1032,257.75,19.5425,20.113,143.783,105.295,104.432,0.00125822,0.0485282,21,106.864,0.0742834,0.0,0.0
1044,260.75,19.1537,19.9065,144.776,105.285,104.436,0.00121658,0.0476106,21.001,106.834,0.0730482,0.0,0.0
1056,263.75,19.1278,20.2295,141.771,105.266,104.503,0.000947097,0.0469917,21.0012,106.724,0.0657227,0.0,0.0
1068,266.75,18.7939,20.0336,142.776,105.248,104.541,0.000732749,0.0466588,21.0009,106.694,0.0608743,0.0,0.0
1080,269.75,19.2576,20.2212,143.234,105.21,104.44,0.000512966,0.0461921,21.0001,106.664,0.0663831,0.0,0.0
1092,272.75,18.6433,19.8942,140.866,105.198,104.367,0.000420351,0.0460273,21.0003,106.584,0.0715938,0.0,0.0
1104,275.75,19.1462,20.1766,141.86,105.178,104.23,0.000586879,0.0460241,21.0014,106.554,0.0817395,0.0,0.0
1116,278.75,19.1945,20.0232,140.269,105.149,104.319,,0.0462383,,106.484,0.0714998,0.0,0.0
1128,281.75,18.5785,19.8781,138.802,105.138,104.404,,,,106.444,0.0631941,0.0,0.0
1140,284.75,18.3624,19.5134,140.675,105.111,104.592,,,,106.394,0.044693,0.0,0.0
1148,286.75,19.2323,19.5769,140.967,105.105,104.22,,,,106.364,0.0763543,0.0,0.0

File: Lightweight_Gypsum_Wallboard_Cone_HF50Scalar_220506_R1.csv
LABORATORY,FSRI
TEST IDENT,LW_Gypsum_HF50_1
OPERATOR,Dow
MATERIAL,lightweight gypsum
ORIENTATION,Horizontal
HEAT FLUX,50
SURF AREA,0.01
C FACTOR,0.0414606
SPEC HOLDER DIFF,-566
SPECIMEN MASS,63.69
SCAN TIME,0.25
O2 DELAY TIME,11
CO DELAY TIME,11
CO2 DELAY TIME,8
FLOW FACTOR,1
SCAN COUNT,667
TIME TO IGN,31.25
END OF TEST SCAN,187
END OF TEST TIME,46.75
TEST STATUS,1
PRE TEST CMT,Dimensions: 99.06 x 101.69 x 12.55 mm

File: Lightweight_Gypsum_Wallboard_Cone_HF50Scalar_220506_R3.csv
LABORATORY,FSRI
TEST IDENT,LW_Gypsum_HF50_3
OPERATOR,Dow
MATERIAL,lightweight gypsum
ORIENTATION,Horizontal
HEAT FLUX,50
SURF AREA,0.01
C FACTOR,0.0414606
SPEC HOLDER DIFF,-566
SPECIMEN MASS,64.45
SCAN TIME,0.25
O2 DELAY TIME,11
CO DELAY TIME,11
CO2 DELAY TIME,8
FLOW FACTOR,1
SCAN COUNT,660
TIME TO IGN,29
END OF TEST SCAN,180
END OF TEST TIME,45
TEST STATUS,1
PRE TEST CMT,Dimensions: 99.06 x 102.08 x 12.65 mm

File: Lightweight_Gypsum_Wallboard_Cone_HF50Scan_220506_R1.csv
Names,Time,Stack TC,Smoke TC,Exh Press,Smoke Comp,Smoke Meas,CO Meter,CO2 Meter,O2 Meter,Sample Mass,Ext Coeff,Start Test,Flame Verif
Chan Gain,,500,500,1,1,1,1,1,1,1,1,1.0,1.0
Offset,,0,0,0.135316,0,0,0,0,0,0,0,0.0,0.0
Gain,,1,1,25.011,13.8443,15.4071,1,1,1,1.00079,1.02936,1.0,1.0
Units,sec,C,C,Pa,%,%,%,%,%,g,/m,,
Baseline,,29.1243,30.3238,137.001,105.25,105.119,0.000493459,0.0419306,20.9985,-446.952,0.0112523,,
7,1.5,27.7959,30.0049,134.916,104.238,104.014,0.000247684,0.0440463,20.9997,109.426,0.0193898,0.0,0.0
14,3.25,27.2616,28.964,135.051,104.213,104.133,0.000341907,0.0439541,21.0002,109.356,0.00698632,0.0,0.0
21,5,28.1501,29.3233,135.475,104.209,104.008,0.000452683,0.0443039,21.0011,109.346,0.0173907,0.0,0.0
28,6.75,28.0609,29.0007,136.877,104.294,104.25,0.000526875,0.0452052,21.0007,109.336,0.00386666,0.0,0.0
35,8.5,27.95,29.3987,131.834,104.425,104.595,0.000566553,0.0459956,20.9992,109.266,-0.0146444,0.0,0.0
42,10.25,28.2402,29.4298,135.316,104.54,103.998,0.0005329,0.0467195,20.9982,109.206,0.0469485,0.0,0.0
49,12,28.4475,29.3058,135.812,104.652,104.384,0.000433301,0.0470788,20.9972,109.126,0.0231558,0.0,0.0
56,13.75,28.5755,29.8504,133.923,104.771,104.757,0.000342883,0.0472469,20.9961,109.036,0.00123777,0.0,0.0
63,15.5,28.4808,29.6248,136.788,104.88,104.38,0.00036995,0.0472391,20.9962,109.006,0.0431441,0.0,0.0
70,17.25,28.2046,29.4091,135.086,104.961,104.626,0.000427428,0.0472252,20.9956,108.916,0.0288411,0.0,0.0
77,19,28.5967,30.0009,134.609,105.032,104.514,0.000460118,0.0472377,20.9954,108.776,0.0446481,0.0,0.0
84,20.75,28.6243,29.368,136.686,105.073,104.208,0.000489909,0.0470572,20.9952,108.716,0.0746902,0.0,0.0
91,22.5,28.5465,29.8531,137.025,105.096,103.443,0.000543073,0.0468889,20.9952,108.746,0.143104,0.0,0.0
98,24.25,29.0482,29.8323,134.799,105.084,102.994,0.000638764,0.046966,20.9932,108.676,0.181405,0.0,0.0
105,26,29.2385,30.1008,135.336,105.027,101.392,0.000791866,0.0479575,20.9897,108.546,0.317973,0.0,0.0
112,27.75,29.185,29.9736,129.319,104.973,100.091,0.00120259,0.0492648,20.9862,108.516,0.430006,0.0,0.0
119,29.5,29.1092,30.4181,136.709,104.874,99.6719,0.001696,0.0527393,20.9829,108.406,0.459377,0.0,0.0
126,31.25,29.5002,30.3307,126.351,104.731,107.345,0.0021153,0.101118,20.9066,108.145,-0.222579,0.0,1.0
133,33,29.272,31.1414,114.499,104.569,109.012,0.00237238,0.205602,20.7915,107.885,-0.375743,0.0,1.0
140,34.75,31.5496,31.2823,120.936,104.543,108.593,0.00259995,0.299265,20.687,107.595,-0.34324,0.0,1.0
147,36.5,33.3213,32.8566,115.013,104.615,107.542,0.00276691,0.377985,20.606,107.285,-0.249234,0.0,1.0
154,38.25,35.423,34.9713,121.639,104.693,108.526,0.00289821,0.40904,20.5769,107.014,-0.324666,0.0,0.0
161,40,37.0876,36.493,123.226,104.76,107.213,0.00310544,0.400085,20.5947,106.774,-0.208983,0.0,0.0
168,41.75,37.8859,37.6517,129.165,104.854,107.819,0.00378554,0.357733,20.6288,106.654,-0.251801,0.0,0.0
175,43.5,38.8187,38.5726,131.512,104.959,106.278,0.00519259,0.309409,20.6944,106.494,-0.112774,0.0,0.0
182,45.25,38.7597,39.1221,132.031,105.048,105.24,0.00709417,0.245023,20.7785,106.434,-0.0165513,0.0,0.0
189,47,38.8873,39.0483,130.915,105.125,105.803,0.00864576,0.189509,20.8436,106.304,-0.0580678,0.0,0.0
196,48.75,37.7282,38.3398,132.384,105.2,105.868,0.00994853,0.151608,20.8839,106.174,-0.0571465,0.0,0.0
203,50.5,37.9882,38.1478,134.285,105.275,105.523,0.0107446,0.12819,20.9069,106.114,-0.0212871,0.0,0.0
210,52.25,37.4512,38.0108,133.436,105.347,105.523,0.0111272,0.113612,20.9212,105.994,-0.015053,0.0,0.0
217,54,37.229,38.0647,133.599,105.366,106.232,0.0111908,0.105352,20.928,105.904,-0.0739684,0.0,0.0
224,55.75,37.142,38.1017,130.372,105.376,105.752,0.0109833,0.100372,20.9331,105.833,-0.0322028,0.0,0.0
231,57.5,36.3011,37.1674,135.27,105.377,105.929,0.0107347,0.0976187,20.9363,105.743,-0.047137,0.0,0.0
238,59.25,36.2323,37.8257,131.689,105.336,105.633,0.0105021,0.0954164,20.9382,105.583,-0.0254803,0.0,0.0
245,61,36.6727,37.6329,131.586,105.303,105.547,0.0103183,0.0937162,20.9391,105.463,-0.0209472,0.0,0.0
252,62.75,35.5776,37.0674,130.738,105.211,105.95,0.0102105,0.0920874,20.9396,105.413,-0.0632146,0.0,0.0
259,64.5,35.9025,36.9426,132.716,105.109,105.94,0.0100957,0.0911896,20.941,105.323,-0.07108,0.0,0.0
266,66.25,35.373,35.7213,136.344,104.99,105.615,0.00980546,0.0900161,20.9421,105.233,-0.053546,0.0,0.0
273,68,35.5287,37.0499,136.616,104.851,105.411,0.00948329,0.0885838,20.9434,105.033,-0.0481228,0.0,0.0
280,69.75,35.0891,36.0964,135.03,104.675,105.182,0.00905926,0.0873454,20.944,105.063,-0.0436714,0.0,0.0
287,71.5,34.4162,36.6737,137.728,104.505,104.779,0.00866177,0.0863713,20.9459,104.973,-0.0236395,0.0,0.0
294,73.25,34.4688,35.6397,133.893,104.339,104.595,0.00831315,0.0850348,20.9492,104.873,-0.0220996,0.0,0.0
301,75,35.1084,36.0354,134.533,104.14,104.14,0.00805341,0.0835157,20.9516,104.753,2.15279e-06,0.0,0.0
308,76.75,34.2873,36.1448,137.687,103.975,104.245,0.00789116,0.0820882,20.9523,104.653,-0.0234258,0.0,0.0
315,78.5,34.647,35.7881,132.937,103.808,104.461,0.00786096,0.0814224,20.9519,104.572,-0.0566412,0.0,0.0
322,80.25,34.2572,35.8057,133.93,103.646,104.291,0.00783569,0.0812073,20.9517,104.462,-0.055962,0.0,0.0
329,82,33.9505,35.5529,134.381,103.514,103.845,0.00774932,0.080992,20.9522,104.452,-0.0288925,0.0,0.0
336,83.75,34.0552,35.6575,135.784,103.417,103.614,0.00754825,0.0805857,20.953,104.402,-0.0172404,0.0,0.0
343,85.5,33.9028,35.4485,133.027,103.343,104.515,0.00729198,0.0800228,20.954,104.302,-0.101788,0.0,0.0
350,87.25,33.9457,36.5049,137.554,103.277,103.938,0.00712038,0.0792486,20.9561,104.202,-0.0576426,0.0,0.0
357,89,33.7581,35.524,135.106,103.265,103.713,0.00703892,0.0786167,20.9571,104.112,-0.0391309,0.0,0.0
364,90.75,34.0237,35.5484,135.551,103.304,103.586,0.00699387,0.0780451,20.9588,104.072,-0.0245995,0.0,0.0
371,92.5,33.3137,35.7307,133.828,103.378,103.863,0.00688891,0.0774035,20.9597,103.982,-0.04228,0.0,0.0
378,94.25,33.1492,35.2275,134.662,103.468,103.817,0.0067267,0.0764277,20.9606,103.912,-0.0304578,0.0,0.0
385,96,33.3631,35.6859,131.407,103.585,103.793,0.00661304,0.0754198,20.9618,103.812,-0.0181641,0.0,0.0
392,97.75,33.9857,35.5122,132.564,103.72,104.344,0.00650041,0.0744777,20.9619,103.762,-0.0541627,0.0,0.0
399,99.5,33.2483,34.7114,134.985,103.875,104.054,0.00624392,0.0735855,20.9624,103.692,-0.0155306,0.0,0.0
406,101.25,33.0495,35.3762,135.25,104.015,104.254,0.00593304,0.0728114,20.9634,103.602,-0.0207881,0.0,0.0
413,103,32.9635,34.8037,134.921,104.159,104.653,0.00563597,0.0720902,20.9651,103.472,-0.0427207,0.0,0.0
420,104.75,32.7561,34.9663,134.836,104.301,104.582,0.00538222,0.0711803,20.9658,103.432,-0.0242951,0.0,0.0
427,106.5,33.2295,34.6747,133.174,104.417,104.651,0.00506916,0.0696705,20.9669,103.412,-0.0201678,0.0,0.0
434,108.25,32.8306,34.1039,136.811,104.52,105.112,0.00478049,0.0680637,20.9693,103.342,-0.0509639,0.0,0.0
441,110,33.2918,34.9764,132.163,104.602,104.95,0.00449985,0.0662464,20.9727,103.281,-0.0299848,0.0,0.0
448,111.75,33.264,34.899,136.519,104.639,105.147,0.00415866,0.0643733,20.9762,103.191,-0.043706,0.0,0.0
455,113.5,32.5801,34.6142,135.718,104.664,105.119,0.00377478,0.0625125,20.9788,103.091,-0.0391314,0.0,0.0
462,115.25,32.8274,34.8285,134.613,104.651,104.719,0.00346798,0.0604503,20.9817,103.001,-0.00590649,0.0,0.0
469,117,32.1562,34.2362,134.261,104.599,104.6,0.00318221,0.058431,20.9846,102.931,-0.000165228,0.0,0.0
476,118.75,32.5054,34.3542,135.616,104.522,105.14,0.00286772,0.0564439,20.9864,102.881,-0.0532038,0.0,0.0
483,120.5,32.5077,34.9492,133.702,104.47,104.854,0.00256213,0.0547372,20.9891,102.811,-0.0331102,0.0,0.0
490,122.25,32.428,34.2677,135.219,104.396,105.193,0.00225385,0.0529964,20.9919,102.761,-0.068726,0.0,0.0
497,124,32.4226,34.1819,136.126,104.302,104.775,0.00199946,0.0513833,20.9941,102.741,-0.0408878,0.0,0.0
504,125.75,32.4238,34.2129,134.452,104.238,104.946,0.00176561,0.0502366,20.9951,102.681,-0.0611093,0.0,0.0
511,127.5,32.2227,33.7679,133.859,104.197,104.914,0.00153835,0.0490727,20.9957,102.601,-0.0619085,0.0,0.0
518,129.25,32.0404,33.7837,136.225,104.228,104.474,0.00125997,0.0481207,20.996,102.541,-0.0212461,0.0,0.0
525,131,32.1175,33.8843,133.295,104.536,104.748,0.00103235,0.0473552,20.9962,102.491,-0.0182962,0.0,0.0
532,132.75,32.1678,33.5995,137.741,104.776,105.262,0.000869803,0.0469323,20.9967,102.421,-0.0418285,0.0,0.0
539,134.5,31.6779,33.9687,134.671,104.942,105.353,0.000851547,0.0464317,20.9977,102.361,-0.0353117,0.0,0.0
546,136.25,32.136,33.7938,133.313,105.048,105.701,0.000902904,0.0460145,20.9982,102.281,-0.055923,0.0,0.0
553,138,32.0035,33.7991,136.448,105.081,105.431,0.000922507,0.0455416,20.9986,102.251,-0.0300464,0.0,0.0
560,139.75,31.7863,33.9759,135.689,105.034,105.148,0.000846376,0.0451971,20.9997,102.211,-0.0098032,0.0,0.0
567,141.5,32.0481,33.9863,133.014,104.916,105.146,0.000730581,0.0448704,21.0003,102.171,-0.0198172,0.0,0.0
574,143.25,31.6355,33.8736,133.237,104.708,105.028,0.000630927,0.0445746,21.0006,102.101,-0.0275077,0.0,0.0
581,145,31.3352,33.6759,135.414,104.521,104.903,0.000561208,0.0443992,21.0008,102.051,-0.0329395,0.0,0.0
588,146.75,31.8169,33.2204,139.933,104.619,105.1,0.000548075,0.0442192,21.0018,102.03,-0.0414209,0.0,0.0
595,148.5,31.9628,33.2207,135.158,104.732,104.875,0.000569763,0.0440788,21.0027,101.99,-0.0123164,0.0,0.0
602,150.25,31.2999,33.437,135.444,104.877,105.335,0.000534071,0.0439148,21.0011,101.96,-0.0393801,0.0,0.0
609,152,31.4016,32.6751,138.937,105.022,105.411,0.000485452,0.0438293,20.9997,101.9,-0.0333225,0.0,0.0
616,153.75,31.4086,33.3507,134.301,105.164,105.551,0.000456188,0.0437355,20.9992,101.84,-0.03312,0.0,0.0
623,155.5,31.5949,33.2264,135.807,105.29,105.577,0.000408114,0.0436353,21,101.8,-0.0245687,0.0,0.0
630,157.25,31.7041,33.5064,134.504,105.343,105.96,,0.0436718,,101.72,-0.0527513,0.0,0.0
637,159,31.3338,33.1337,135.037,105.366,105.778,,,,101.67,-0.0352393,0.0,0.0
644,160.75,31.5013,33.2141,134.309,105.382,105.858,,,,101.6,-0.0406845,0.0,0.0
651,162.5,31.3085,33.5686,138.284,105.333,106.199,,,,101.5,-0.0739147,0.0,0.0
658,164.25,30.9343,32.997,135.811,105.254,106.03,,,,101.28,-0.0663673,0.0,0.0
665,166,31.5225,33.2204,135.125,105.124,105.327,,,,101.39,-0.0174404,0.0,0.0
667,166.5,31.2647,33.456,132.813,105.094,106.17,,,,101.42,-0.0920026,0.0,0.0