Folder: fsri_materials_database/01_Data/Lightweight_Gypsum_Wallboard/HFM

Note: 01_Data/README.md
# Materials and Products Database
## 01_Data

Raw data generated from each apparatus are included here in plain-text format. The data is organized first by material, next by the short name of test apparatus used, and where applicable additional filtering by test settings.

### material.json

Each material directory contains a json file of the same name as the material. This file links the data stored in the repository as well as data and graphs produced by the accompanying scripts (__02_Scripts__) to the respective landing page for the material on the front-end website.

File: Lightweight_Gypsum_Wallboard_Density_Dry_R2.csv
,Lightweight_Gypsum_Wallboard_DRY_2
Sample Mass [g],218.8
Sample Volume [cm3],514.6
Sample Density [kg/m3],425

File: Lightweight_Gypsum_Wallboard_Density_Dry_R3.csv
,Lightweight_Gypsum_Wallboard_DRY_3
Sample Mass [g],227.5
Sample Volume [cm3],529.2
Sample Density [kg/m3],430

File: Lightweight_Gypsum_Wallboard_Density_Wet_R2.csv
,Lightweight_Gypsum_Wallboard_WET_2
Sample Mass [g],251.5
Sample Volume [cm3],514.6
Sample Density [kg/m3],489