Folder: fsri_materials_database/01_Data/Lightweight_Gypsum_Wallboard_Unpainted_Paper/STA/N2/10K_min

Note: 01_Data/README.md
# Materials and Products Database
## 01_Data

Raw data generated from each apparatus are included here in plain-text format. The data is organized first by material, next by the short name of test apparatus used, and where applicable additional filtering by test settings.

### material.json

Each material directory contains a json file of the same name as the material. This file links the data stored in the repository as well as data and graphs produced by the accompanying scripts (__02_Scripts__) to the respective landing page for the material on the front-end website.

File: Lightweight_Gypsum_Wallboard_Paper_STA_N2_10KData_220203_R4.csv
##Temp./Â°C,Time/min,DSC(subtr.2)/(mW/mg),Mass loss(subtr.2)/mg,Sensit./(uV/mW)
49.678,10.00583,0.02556673,-0.00867,1.07517
52.678,11.2819,0.13426,-0.008918448,1.0736
55.678,11.71486,0.18616,-0.009657076,1.07204
58.678,12.0824,0.21979,-0.01008475,1.07048
61.678,12.42475,0.24678,-0.01185045,1.06892
64.678,12.75717,0.26355,-0.01316636,1.06736
67.678,13.08359,0.28106,-0.01448007,1.06581
70.678,13.4055,0.30057,-0.01579519,1.06425
73.678,13.7239,0.31981,-0.01956586,1.0627
76.678,14.03916,0.33411,-0.02172,1.06115
79.678,14.35014,0.34749,-0.02238125,1.0596
82.678,14.6611,0.36294,-0.02599809,1.05805
85.678,14.9673,0.38271,-0.02862994,1.0565
88.678,15.27,0.40066,-0.03126004,1.05496
91.678,15.5709,0.40882,-0.03421674,1.05341
94.678,15.86895,0.41192,-0.03752993,1.05187
97.678,16.16549,0.405,-0.04048,1.05033
100.678,16.46273,0.39677,-0.04263542,1.04878
103.678,16.75747,0.38712,-0.04475999,1.04725
106.678,17.05198,0.37734,-0.0483694,1.04571
109.678,17.34552,0.36757,-0.04969,1.04417
112.678,17.63963,0.36139,-0.05232,1.04264
115.678,17.93323,0.35713,-0.0539702,1.0411
118.678,18.22706,0.35608,-0.05429006,1.03957
121.678,18.51986,0.35057,-0.05469883,1.03804
124.678,18.81201,0.34436,-0.0566067,1.03651
127.678,19.1039,0.33646,-0.05791,1.03498
130.678,19.3962,0.32885,-0.05798264,1.03345
133.678,19.6871,0.32453,-0.05922995,1.03193
136.678,19.97731,0.32595,-0.05792006,1.0304
139.678,20.2667,0.32083,-0.06055091,1.02888
142.678,20.55579,0.32114,-0.05804412,1.02736
145.678,20.84446,0.32297,-0.05856977,1.02583
148.678,21.13317,0.32341,-0.06086987,1.02431
151.678,21.42191,0.32422,-0.05956928,1.02279
154.678,21.71143,0.32573,-0.06087998,1.02128
157.678,22.0004,0.32599,-0.06088,1.01976
160.678,22.28922,0.32953,-0.06088,1.01824
163.678,22.5773,0.33133,-0.06088,1.01672
166.678,22.86561,0.33414,-0.06088,1.01521
169.678,23.15319,0.337,-0.06153,1.01369
172.678,23.44105,0.34169,-0.06218822,1.01218
175.678,23.72873,0.34282,-0.06219129,1.01066
178.678,24.0155,0.34796,-0.06219912,1.00915
181.678,24.3025,0.34768,-0.06217721,1.00764
184.678,24.58925,0.35404,-0.06318001,1.00613
187.678,24.87612,0.35618,-0.06340036,1.00461
190.678,25.1619,0.35674,-0.06404989,1.0031
193.678,25.44899,0.36233,-0.06504001,1.00159
196.678,25.73612,0.36334,-0.06504777,1.00008
199.678,26.0234,0.36518,-0.06508524,0.99857
202.678,26.3102,0.36896,-0.06735,0.99706
205.678,26.597,0.36947,-0.06859038,0.99554
208.678,26.88443,0.37261,-0.06932,0.99403
211.678,27.17178,0.37406,-0.07130027,0.99252
214.678,27.458,0.37952,-0.07261994,0.99101
217.678,27.7435,0.38501,-0.07361,0.9895
220.678,28.0287,0.39078,-0.07623116,0.98798
223.678,28.313,0.39395,-0.07788,0.98647
226.678,28.5974,0.39432,-0.08051002,0.98496
229.678,28.88263,0.39712,-0.08079027,0.98344
232.678,29.1678,0.39807,-0.08611001,0.98193
235.678,29.4528,0.40485,-0.08973107,0.98041
238.678,29.7381,0.40654,-0.09368005,0.9789
241.678,30.02311,0.41035,-0.09894226,0.97738
244.678,30.30821,0.41047,-0.10331,0.97586
247.678,30.5936,0.40982,-0.1112,0.97434
250.678,30.8795,0.40596,-0.11802,0.97282
253.678,31.1658,0.40392,-0.12593,0.9713
256.678,31.45223,0.40332,-0.13513,0.96978
259.678,31.73965,0.40574,-0.14654,0.96826
262.678,32.0275,0.40565,-0.15847,0.96673
265.678,32.31521,0.40866,-0.17229,0.9652
268.678,32.60266,0.41506,-0.18949,0.96367
271.678,32.89063,0.42321,-0.20909,0.96214
274.678,33.17823,0.43705,-0.23055,0.96061
277.678,33.46512,0.44699,-0.25379,0.95908
280.678,33.75297,0.46211,-0.2806,0.95754
283.678,34.0407,0.47552,-0.31278,0.95601
286.678,34.3284,0.49313,-0.34628,0.95447
289.678,34.61728,0.51155,-0.38342,0.95292
292.678,34.90586,0.52833,-0.4257,0.95138
295.678,35.19419,0.54513,-0.47272,0.94983
298.678,35.48285,0.56243,-0.52317,0.94828
301.678,35.77212,0.58044,-0.57685,0.94673
304.678,36.06122,0.596,-0.63476,0.94518
307.678,36.35026,0.61206,-0.69909,0.94362
310.678,36.63975,0.62827,-0.762,0.94206
313.678,36.9286,0.64481,-0.83231,0.9405
316.678,37.21732,0.66122,-0.90316,0.93893
319.678,37.50594,0.67889,-0.9803,0.93736
322.678,37.79502,0.69729,-1.06107,0.93579
325.678,38.08385,0.71643,-1.14603,0.93421
328.678,38.37332,0.73891,-1.23628,0.93263
331.678,38.66301,0.7635,-1.33092,0.93105
334.678,38.95251,0.79569,-1.43019,0.92947
337.678,39.2418,0.82905,-1.53968,0.92788
340.678,39.53158,0.85783,-1.65539,0.92628
343.678,39.82134,0.88715,-1.77499,0.92469
346.678,40.11222,0.90599,-1.90096,0.92309
349.678,40.4028,0.89904,-2.02953,0.92148
352.678,40.69324,0.86314,-2.15461,0.91987
355.678,40.9843,0.79115,-2.27157,0.91826
358.678,41.27601,0.69157,-2.37453,0.91664
361.678,41.567,0.57906,-2.45952,0.91502
364.678,41.8579,0.46203,-2.52778,0.9134
367.678,42.14747,0.3527,-2.57812,0.91176
370.678,42.4379,0.26919,-2.60921,0.91013
373.678,42.72827,0.20962,-2.63398,0.90849
376.678,43.0191,0.1751,-2.64475,0.90685
379.678,43.31031,0.15888,-2.657,0.9052
382.678,43.60188,0.15039,-2.66589,0.90354
385.678,43.89343,0.14519,-2.67335,0.90188
388.678,44.185,0.13851,-2.68194,0.90022
391.678,44.47596,0.13863,-2.69033,0.89855
394.678,44.76744,0.13209,-2.69876,0.89687
397.678,45.05912,0.12826,-2.70552,0.89519
400.678,45.35106,0.12203,-2.71361,0.89351
403.678,45.64356,0.12019,-2.72286,0.89182
406.678,45.93672,0.11599,-2.73108,0.89012
409.678,46.23035,0.11318,-2.73817,0.88842
412.678,46.52366,0.11325,-2.74751,0.88671
415.678,46.81797,0.11175,-2.75411,0.885
418.678,47.11118,0.11331,-2.76102,0.88328
421.678,47.40547,0.11116,-2.76769,0.88155
424.678,47.69863,0.11375,-2.77705,0.87982
427.678,47.99238,0.11628,-2.78592,0.87808
430.678,48.2858,0.11499,-2.79097,0.87634
433.678,48.57911,0.1161,-2.79656,0.87459
436.678,48.87263,0.12229,-2.80204,0.87283
439.678,49.16753,0.12109,-2.80994,0.87107
442.678,49.46196,0.12438,-2.81674,0.8693
445.678,49.75568,0.12694,-2.82201,0.86752
448.678,50.0505,0.12712,-2.82769,0.86574
451.678,50.3461,0.12839,-2.83288,0.86395
454.678,50.64132,0.13165,-2.8391,0.86216
457.678,50.9368,0.13107,-2.84339,0.86035
460.678,51.23227,0.13095,-2.84636,0.85854
463.678,51.52835,0.13026,-2.85139,0.85673
466.678,51.82458,0.13219,-2.85622,0.8549
469.678,52.1214,0.13579,-2.85918,0.85307
472.678,52.41752,0.13126,-2.86489,0.85123
475.678,52.71354,0.13864,-2.86763,0.84939
478.678,53.00963,0.14188,-2.87224,0.84754
481.678,53.30565,0.13953,-2.87521,0.84568
484.678,53.6028,0.14196,-2.87981,0.84381
487.678,53.89949,0.14209,-2.88146,0.84194
490.678,54.1961,0.14038,-2.88375,0.84005
493.678,54.49196,0.14344,-2.88727,0.83816
496.678,54.7883,0.15072,-2.89187,0.83627
499.678,55.0844,0.16942,-2.8942,0.83436
502.678,55.3808,0.17703,-2.89947,0.83245
505.678,55.6762,0.18675,-2.90076,0.83053
508.678,55.9726,0.1864,-2.90339,0.8286
511.678,56.2705,0.18506,-2.90668,0.82667
514.678,56.56762,0.18697,-2.90881,0.82473
517.678,56.86555,0.18651,-2.91161,0.82277
520.678,57.1636,0.18021,-2.91321,0.82082
523.678,57.46114,0.16145,-2.91589,0.81885
526.678,57.75911,0.15292,-2.91973,0.81687
529.678,58.0586,0.15077,-2.92105,0.81489
532.678,58.357,0.14851,-2.9225,0.8129
535.678,58.65565,0.1464,-2.92566,0.8109
538.678,58.95431,0.14342,-2.92961,0.80889
541.678,59.253,0.13622,-2.93093,0.80688
544.678,59.5516,0.12632,-2.93323,0.80485
547.678,59.85004,0.12161,-2.93554,0.80282
550.678,60.14812,0.11721,-2.93811,0.80078
553.678,60.44654,0.10578,-2.94003,0.79874
556.678,60.74507,0.10128,-2.94193,0.79668
559.678,61.04486,0.10071,-2.94529,0.79461
562.678,61.34395,0.09851959,-2.94726,0.79254
565.678,61.6435,0.09232331,-2.9488,0.79046
568.678,61.94364,0.09296419,-2.95306,0.78837
571.678,62.24416,0.09047985,-2.95417,0.78627
574.678,62.5452,0.08842049,-2.95582,0.78417
577.678,62.8453,0.09023634,-2.95807,0.78205
580.678,63.1443,0.08977643,-2.96076,0.77993
583.678,63.4432,0.09320667,-2.96175,0.7778
586.678,63.7426,0.09313291,-2.96438,0.77566
589.678,64.04174,0.09771168,-2.96604,0.77351
592.678,64.3411,0.0996766,-2.96866,0.77135
595.678,64.64081,0.10314,-2.97096,0.76919
598.678,64.9413,0.10577,-2.97096,0.76702
601.678,65.2417,0.1118,-2.97371,0.76483
604.678,65.5432,0.11842,-2.97766,0.76264
607.678,65.8442,0.1222,-2.97996,0.76045
610.678,66.14466,0.12206,-2.98079,0.75824
613.678,66.44558,0.12423,-2.98423,0.75602
616.678,66.74655,0.13437,-2.98785,0.7538
619.678,67.04762,0.14055,-2.99048,0.75157
622.678,67.34841,0.14655,-2.99246,0.74933
625.678,67.65018,0.15129,-2.99603,0.74708
628.678,67.9516,0.15921,-2.99666,0.74482
631.678,68.2531,0.16445,-3.00036,0.74256
634.678,68.55551,0.17218,-3.00337,0.74028
637.678,68.85724,0.18093,-3.00595,0.738
640.678,69.15868,0.18755,-3.00825,0.73571
643.678,69.4602,0.2034,-3.01352,0.73342
646.678,69.76186,0.2122,-3.01746,0.73111
649.678,70.06469,0.22169,-3.0201,0.7288
652.678,70.36788,0.23305,-3.02529,0.72647
655.678,70.67093,0.24295,-3.02734,0.72414
658.678,70.9738,0.24924,-3.0326,0.7218
661.678,71.27673,0.25405,-3.03788,0.71946
664.678,71.5795,0.25951,-3.04303,0.7171
667.678,71.88244,0.25772,-3.04874,0.71474
670.678,72.1841,0.26145,-3.05267,0.71237
673.678,72.4863,0.2629,-3.05663,0.70999
676.678,72.7884,0.25897,-3.06076,0.70761
679.678,73.09115,0.25658,-3.06738,0.70521
682.678,73.39341,0.24585,-3.07001,0.70281
685.678,73.6965,0.22225,-3.07489,0.7004
688.678,74.00055,0.19654,-3.07933,0.69799
691.678,74.3045,0.17922,-3.08086,0.69556
694.678,74.60849,0.17628,-3.08276,0.69313
697.678,74.91153,0.17638,-3.08941,0.69069
700.678,75.21415,0.17508,-3.09019,0.68825
703.678,75.51651,0.17179,-3.0925,0.68579
706.678,75.81917,0.16857,-3.09513,0.68333
709.678,76.12204,0.16705,-3.09907,0.68086
712.678,76.42545,0.1669,-3.10171,0.67839
715.678,76.72844,0.15859,-3.10434,0.6759
718.678,77.03161,0.15974,-3.10432,0.67341
721.678,77.33547,0.15361,-3.10693,0.67092
724.678,77.63972,0.15137,-3.1096,0.66841
727.678,77.94292,0.14965,-3.10948,0.6659
730.678,78.24571,0.14882,-3.11388,0.66339
733.678,78.54948,0.14287,-3.11579,0.66086
736.678,78.85295,0.1431,-3.11727,0.65833
739.678,79.15834,0.13133,-3.11991,0.65579
742.678,79.46367,0.13357,-3.11859,0.65325
745.678,79.76948,0.12658,-3.12255,0.6507
747.878,79.99223,0.12483,-3.12386,0.64883

File: Lightweight_Gypsum_Wallboard_Unpainted_Paper_STA_N2_10KData_220103_R2.csv
##Temp./Â°C,Time/min,DSC(subtr.2)/(mW/mg),Mass loss(subtr.2)/mg,Sensit./(uV/mW)
49.666,10.01,0.0265438,-0.01448,1.07517
52.766,11.29543,0.13031,-0.01544819,1.07356
55.866,11.73907,0.18277,-0.01655696,1.07194
58.966,12.11663,0.21538,-0.01799536,1.07033
62.066,12.47007,0.23605,-0.01831888,1.06872
65.166,12.81103,0.25397,-0.02039409,1.06711
68.266,13.14683,0.27302,-0.02066326,1.0655
71.366,13.4772,0.28856,-0.0217399,1.0639
74.466,13.80427,0.30667,-0.02067745,1.06229
77.566,14.12914,0.31773,-0.02633057,1.06069
80.666,14.45086,0.33024,-0.0286314,1.05909
83.766,14.7702,0.34596,-0.03158986,1.05749
86.866,15.0854,0.36476,-0.03421588,1.05589
89.966,15.3975,0.38516,-0.03819528,1.05429
93.066,15.70817,0.39253,-0.04176416,1.0527
96.166,16.01517,0.39362,-0.04343096,1.0511
99.266,16.32181,0.38402,-0.04739,1.04951
102.366,16.62816,0.3756,-0.05035006,1.04792
105.466,16.93284,0.36347,-0.05264326,1.04633
108.566,17.23759,0.35346,-0.05626879,1.04474
111.666,17.5411,0.34562,-0.05758,1.04315
114.766,17.84465,0.33797,-0.05840881,1.04157
117.866,18.14796,0.33309,-0.06017826,1.03999
120.966,18.45009,0.33292,-0.06285,1.0384
124.066,18.75159,0.32593,-0.06350999,1.03682
127.166,19.05209,0.31667,-0.06416,1.03524
130.266,19.3534,0.30506,-0.06547986,1.03366
133.366,19.65423,0.29755,-0.06679,1.03209
136.466,19.95407,0.29073,-0.06689499,1.03051
139.566,20.254,0.28792,-0.06842079,1.02894
142.666,20.55239,0.28854,-0.06811304,1.02736
145.766,20.85164,0.28407,-0.06666278,1.02579
148.866,21.15138,0.28523,-0.06843897,1.02422
151.966,21.45022,0.28372,-0.06910673,1.02265
155.066,21.74821,0.28766,-0.06957851,1.02108
158.166,22.04542,0.29101,-0.07053984,1.01951
161.266,22.34367,0.29084,-0.06930702,1.01794
164.366,22.64104,0.29257,-0.07141,1.01638
167.466,22.93881,0.29471,-0.07042057,1.01481
170.566,23.2363,0.29583,-0.07042384,1.01324
173.666,23.53361,0.29983,-0.07305706,1.01168
176.766,23.83086,0.30077,-0.07041995,1.01012
179.866,24.12807,0.30229,-0.07305,1.00855
182.966,24.425,0.30617,-0.07305064,1.00699
186.066,24.7214,0.31008,-0.07338,1.00543
189.166,25.01746,0.3101,-0.07467547,1.00386
192.266,25.3142,0.31058,-0.07633991,1.0023
195.366,25.61028,0.31331,-0.07568,1.00074
198.466,25.90581,0.315,-0.07799,0.99918
201.566,26.2018,0.31698,-0.07799012,0.99762
204.666,26.4972,0.31959,-0.07962983,0.99605
207.766,26.7927,0.32044,-0.08127,0.99449
210.866,27.08799,0.32488,-0.08159128,0.99293
213.966,27.38407,0.32291,-0.08524098,0.99137
217.066,27.68035,0.3248,-0.08522,0.98981
220.166,27.9765,0.32736,-0.08818902,0.98824
223.266,28.2729,0.32924,-0.09152628,0.98668
226.366,28.56912,0.32902,-0.09443592,0.98512
229.466,28.8656,0.33131,-0.09529255,0.98355
232.566,29.1618,0.33457,-0.10134,0.98199
235.666,29.4562,0.33638,-0.1036,0.98042
238.766,29.75287,0.33682,-0.10892,0.97885
241.866,30.04897,0.33846,-0.11313,0.97729
244.966,30.34485,0.34288,-0.1211,0.97572
248.066,30.64108,0.34062,-0.12613,0.97415
251.166,30.93709,0.34071,-0.1331,0.97258
254.266,31.23272,0.342,-0.14303,0.971
257.366,31.52869,0.34439,-0.15152,0.96943
260.466,31.82518,0.34349,-0.16474,0.96786
263.566,32.12095,0.34589,-0.17706,0.96628
266.666,32.41686,0.35285,-0.1925,0.9647
269.766,32.71367,0.35274,-0.21043,0.96312
272.866,33.0102,0.35952,-0.23089,0.96154
275.966,33.30708,0.37084,-0.25627,0.95995
279.066,33.60412,0.38042,-0.28293,0.95837
282.166,33.90183,0.39414,-0.31168,0.95678
285.266,34.19989,0.41271,-0.34473,0.95519
288.366,34.4977,0.42735,-0.38186,0.9536
291.466,34.79549,0.44614,-0.42437,0.952
294.566,35.0937,0.46694,-0.47189,0.95041
297.666,35.3922,0.4854,-0.52194,0.94881
300.766,35.6905,0.50173,-0.57498,0.9472
303.866,35.9885,0.51952,-0.63547,0.9456
306.966,36.2876,0.53807,-0.69876,0.94399
310.066,36.58623,0.55581,-0.76615,0.94238
313.166,36.88482,0.57133,-0.83916,0.94076
316.266,37.1826,0.5893,-0.91228,0.93915
319.366,37.48107,0.60685,-0.99424,0.93752
322.466,37.7789,0.62036,-1.07511,0.9359
325.566,38.07826,0.63972,-1.16474,0.93427
328.666,38.378,0.65676,-1.25774,0.93264
331.766,38.67824,0.68556,-1.35645,0.93101
334.866,38.97769,0.7145,-1.4624,0.92937
337.966,39.2776,0.74775,-1.57517,0.92772
341.066,39.57692,0.77683,-1.69492,0.92608
344.166,39.87697,0.80105,-1.82089,0.92443
347.266,40.17726,0.80814,-1.95315,0.92277
350.366,40.47736,0.79179,-2.08388,0.92111
353.466,40.77858,0.7403,-2.21105,0.91945
356.566,41.07897,0.65588,-2.3262,0.91778
359.666,41.37856,0.54462,-2.42526,0.91611
362.766,41.67945,0.42698,-2.50782,0.91443
365.866,41.9794,0.31277,-2.56933,0.91275
368.966,42.27837,0.21011,-2.61071,0.91106
372.066,42.57711,0.13533,-2.63927,0.90937
375.166,42.8769,0.08955304,-2.65746,0.90768
378.266,43.1776,0.06519483,-2.67026,0.90597
381.366,43.47777,0.05261287,-2.68012,0.90427
384.466,43.7789,0.0465435,-2.68968,0.90255
387.566,44.07991,0.03567823,-2.69784,0.90084
390.666,44.38122,0.02792672,-2.70892,0.89911
393.766,44.68306,0.02141996,-2.71301,0.89738
396.866,44.9856,0.01802454,-2.72563,0.89565
399.966,45.28901,0.01365012,-2.73155,0.89391
403.066,45.59176,0.008896881,-2.74027,0.89216
406.166,45.89423,0.009412448,-2.74724,0.89041
409.266,46.19685,0.00968584,-2.75912,0.88865
412.366,46.49904,0.006149314,-2.76595,0.88689
415.466,46.80182,0.006182467,-2.77142,0.88512
418.566,47.104,0.007647151,-2.78079,0.88334
421.666,47.4069,0.006763526,-2.78756,0.88156
424.766,47.71,0.004096586,-2.79448,0.87977
427.866,48.01315,0.00543834,-2.80209,0.87797
430.966,48.31758,0.00925926,-2.80863,0.87617
434.066,48.62238,0.009597711,-2.81685,0.87436
437.166,48.9269,0.01670808,-2.82142,0.87255
440.266,49.23162,0.02390261,-2.8295,0.87072
443.366,49.5357,0.02434192,-2.83349,0.86889
446.466,49.84114,0.0284155,-2.84087,0.86706
449.566,50.1461,0.02510632,-2.84624,0.86521
452.666,50.4514,0.02928911,-2.85183,0.86336
455.766,50.75541,0.02718431,-2.85677,0.8615
458.866,51.06013,0.03119927,-2.8617,0.85964
461.966,51.3645,0.03163334,-2.86654,0.85776
465.066,51.66858,0.03709603,-2.87112,0.85588
468.166,51.97298,0.03777924,-2.87395,0.854
471.266,52.27752,0.04175058,-2.8787,0.8521
474.366,52.5823,0.04360769,-2.88398,0.8502
477.466,52.8872,0.04308604,-2.8859,0.84829
480.566,53.19311,0.04525915,-2.89072,0.84637
483.666,53.49899,0.04497647,-2.89593,0.84444
486.766,53.80515,0.0447729,-2.89844,0.84251
489.866,54.11144,0.05114158,-2.90099,0.84056
492.966,54.4172,0.06936291,-2.90493,0.83861
496.066,54.7235,0.07349137,-2.90887,0.83666
499.166,55.02921,0.08137495,-2.91183,0.83469
502.266,55.33605,0.08639854,-2.9162,0.83271
505.366,55.6424,0.08907489,-2.91842,0.83073
508.466,55.9491,0.09132353,-2.92105,0.82874
511.566,56.25561,0.08689613,-2.92214,0.82674
514.666,56.56281,0.06589672,-2.9272,0.82473
517.766,56.8693,0.05714068,-2.93026,0.82272
520.866,57.17742,0.0536867,-2.93157,0.82069
523.966,57.48542,0.05420476,-2.93422,0.81866
527.066,57.79391,0.05032981,-2.93608,0.81662
530.166,58.10125,0.04704631,-2.94047,0.81457
533.266,58.409,0.04102575,-2.94079,0.81251
536.366,58.7168,0.02928077,-2.94474,0.81044
539.466,59.0251,0.02064132,-2.94703,0.80836
542.566,59.33444,0.01456073,-2.94836,0.80628
545.666,59.6431,0.008378726,-2.95099,0.80419
548.766,59.95168,0.001684626,-2.95362,0.80208
551.866,60.26185,-0.001508094,-2.95531,0.79997
554.966,60.5714,-0.01054786,-2.95791,0.79785
558.066,60.8809,-0.01266733,-2.96054,0.79572
561.166,61.19031,-0.01750427,-2.96123,0.79359
564.266,61.5004,-0.01474949,-2.96449,0.79144
567.366,61.80933,-0.02028251,-2.96613,0.78929
570.466,62.1187,-0.02233124,-2.96742,0.78712
573.566,62.4283,-0.01646464,-2.96811,0.78495
576.666,62.73797,-0.01968042,-2.97238,0.78277
579.766,63.0482,-0.01615709,-2.97271,0.78058
582.866,63.35775,-0.01460598,-2.97583,0.77838
585.966,63.66732,-0.01271265,-2.97666,0.77617
589.066,63.9775,-0.00992073,-2.97929,0.77395
592.166,64.28761,-0.009546504,-2.98056,0.77172
595.266,64.59951,-0.002980375,-2.98325,0.76949
598.366,64.91066,0.003190089,-2.98592,0.76724
601.466,65.22284,0.00898265,-2.98717,0.76499
604.566,65.53437,0.01885368,-2.98982,0.76273
607.666,65.8446,0.02740829,-2.99377,0.76045
610.766,66.1554,0.03551543,-2.99508,0.75817
613.866,66.46554,0.03598805,-2.99762,0.75588
616.966,66.77563,0.04343509,-2.9984,0.75359
620.066,67.0866,0.05008384,-2.99916,0.75128
623.166,67.39805,0.05318407,-3.0032,0.74896
626.266,67.7098,0.06119162,-3.0065,0.74664
629.366,68.02078,0.06559327,-3.00814,0.7443
632.466,68.33276,0.07311194,-3.01567,0.74196
635.566,68.64445,0.08258858,-3.01713,0.73961
638.666,68.95594,0.09336067,-3.01878,0.73725
641.766,69.2678,0.10438,-3.02258,0.73488
644.866,69.57897,0.11935,-3.02635,0.7325
647.966,69.89035,0.13555,-3.02898,0.73012
651.066,70.20184,0.14901,-3.03227,0.72772
654.166,70.51374,0.16346,-3.03813,0.72532
657.266,70.82571,0.17921,-3.04298,0.72291
660.366,71.13845,0.19016,-3.04694,0.72049
663.466,71.45101,0.20131,-3.0541,0.71806
666.566,71.76276,0.20377,-3.05894,0.71562
669.666,72.07496,0.20797,-3.06597,0.71317
672.766,72.387,0.20878,-3.06987,0.71072
675.866,72.69834,0.20919,-3.07482,0.70825
678.966,73.01023,0.20673,-3.07876,0.70578
682.066,73.3242,0.2007,-3.08403,0.7033
685.166,73.637,0.1891,-3.0893,0.70082
688.266,73.9495,0.17081,-3.09293,0.69832
691.366,74.2628,0.13839,-3.09558,0.69582
694.466,74.57548,0.12338,-3.10017,0.6933
697.566,74.88832,0.11529,-3.10521,0.69078
700.666,75.20087,0.10989,-3.10543,0.68826
703.766,75.51278,0.10864,-3.10806,0.68572
706.866,75.82593,0.10828,-3.11231,0.68318
709.966,76.13877,0.10877,-3.11463,0.68062
713.066,76.4527,0.10833,-3.11619,0.67807
716.166,76.76733,0.11179,-3.11788,0.6755
719.266,77.0816,0.11585,-3.11991,0.67293
722.366,77.39591,0.11289,-3.12385,0.67034
725.466,77.71036,0.11687,-3.12648,0.66775
728.566,78.0243,0.11957,-3.13044,0.66516
731.666,78.33671,0.11838,-3.12912,0.66256
734.766,78.64851,0.12034,-3.13175,0.65994
737.866,78.96221,0.12147,-3.13273,0.65733
740.966,79.2765,0.11487,-3.13536,0.6547
744.066,79.59104,0.11608,-3.13439,0.65207
747.166,79.90587,0.11542,-3.13801,0.64943
748.066,79.99688,0.11652,-3.13801,0.64867