Folder: fsri_materials_database/01_Data/Lightweight_Gypsum_Wallboard_Unpainted_Paper/STA/N2/30K_min

Note: 01_Data/README.md
# Materials and Products Database
## 01_Data

Raw data generated from each apparatus are included here in plain-text format. The data is organized first by material, next by the short name of test apparatus used, and where applicable additional filtering by test settings.

### material.json

Each material directory contains a json file of the same name as the material. This file links the data stored in the repository as well as data and graphs produced by the accompanying scripts (__02_Scripts__) to the respective landing page for the material on the front-end website.

File: Lightweight_Gypsum_Wallboard_Paper_STA_N2_30KData_220303_R3.csv
##Temp./Â°C,Time/min,DSC(subtr.2)/(mW/mg),Mass loss(subtr.2)/mg,Sensit./(uV/mW)
48.877,10.00917,0.0161301,-0.0271,1.08882
51.877,10.85523,0.16642,-0.02808649,1.0863
54.877,11.081,0.2722,-0.02633013,1.08379
57.877,11.25437,0.35919,-0.02937392,1.08129
60.877,11.40344,0.43147,-0.03029399,1.07881
63.877,11.5381,0.49325,-0.03228518,1.07635
66.877,11.6641,0.5549,-0.03053458,1.0739
69.877,11.78426,0.60442,-0.0318466,1.07147
72.877,11.89976,0.65309,-0.03134001,1.06905
75.877,12.0129,0.69771,-0.03369288,1.06665
78.877,12.1232,0.74321,-0.03574883,1.06426
81.877,12.2319,0.78675,-0.03667862,1.06189
84.877,12.33863,0.83125,-0.04118834,1.05953
87.877,12.44388,0.87153,-0.03894071,1.05719
90.877,12.54813,0.91387,-0.03987998,1.05487
93.877,12.65151,0.95723,-0.04178549,1.05256
96.877,12.75431,0.99705,-0.04561993,1.05026
99.877,12.85634,1.0404,-0.04826588,1.04798
102.877,12.95783,1.0853,-0.04957776,1.04572
105.877,13.0593,1.13226,-0.05221415,1.04347
108.877,13.16032,1.16234,-0.0559291,1.04123
111.877,13.2611,1.18213,-0.05776989,1.03901
114.877,13.3618,1.19026,-0.06127611,1.03681
117.877,13.462,1.19022,-0.06413716,1.03462
120.877,13.5618,1.18015,-0.06731741,1.03244
123.877,13.66141,1.1672,-0.070646,1.03028
126.877,13.76019,1.15072,-0.07231135,1.02814
129.877,13.85885,1.13804,-0.07294344,1.02601
132.877,13.95704,1.12889,-0.07459957,1.02389
135.877,14.05445,1.12154,-0.07688346,1.02179
138.877,14.15153,1.11582,-0.07818298,1.0197
141.877,14.2482,1.1047,-0.08117075,1.01762
144.877,14.3443,1.08915,-0.08247724,1.01556
147.877,14.44007,1.07048,-0.08249444,1.01352
150.877,14.5357,1.05378,-0.08248915,1.01148
153.877,14.63054,1.04232,-0.08379987,1.00946
156.877,14.7259,1.03575,-0.0838176,1.00746
159.877,14.8203,1.03109,-0.08642262,1.00547
162.877,14.91535,1.02918,-0.08643,1.00349
165.877,15.00983,1.03048,-0.08645664,1.00152
168.877,15.104,1.03377,-0.08774993,0.99957
171.877,15.1981,1.03812,-0.0890707,0.99763
174.877,15.292,1.04341,-0.08907,0.9957
177.877,15.38555,1.05099,-0.08906996,0.99379
180.877,15.4787,1.05762,-0.09038215,0.99189
183.877,15.5717,1.06348,-0.08906001,0.99
186.877,15.66436,1.07247,-0.08993905,0.98812
189.877,15.75675,1.08271,-0.09169331,0.98626
192.877,15.849,1.0906,-0.09169952,0.9844
195.877,15.94106,1.09871,-0.09169973,0.98256
198.877,16.0331,1.10747,-0.09320064,0.98073
201.877,16.12487,1.11847,-0.09563824,0.97892
204.877,16.2165,1.12862,-0.09435417,0.97711
207.877,16.30809,1.13806,-0.09560601,0.97532
210.877,16.39963,1.14737,-0.09366867,0.97353
213.877,16.491,1.1551,-0.09432992,0.97176
216.877,16.58221,1.16378,-0.09434574,0.97
219.877,16.67323,1.17479,-0.09688242,0.96824
222.877,16.76437,1.18349,-0.10085,0.9665
225.877,16.85545,1.19376,-0.10223,0.96477
228.877,16.94623,1.19855,-0.10223,0.96305
231.877,17.0371,1.20504,-0.1014,0.96134
234.877,17.12772,1.2112,-0.10495,0.95964
237.877,17.21836,1.22035,-0.1081,0.95794
240.877,17.30884,1.22279,-0.1109,0.95626
243.877,17.39934,1.2293,-0.11111,0.95459
246.877,17.48982,1.23507,-0.11681,0.95292
249.877,17.58041,1.23783,-0.1223,0.95126
252.877,17.67103,1.23978,-0.12501,0.94962
255.877,17.76141,1.23809,-0.12765,0.94798
258.877,17.85183,1.23945,-0.13071,0.94635
261.877,17.94233,1.23865,-0.13537,0.94472
264.877,18.03286,1.23601,-0.14155,0.94311
267.877,18.1234,1.23688,-0.14989,0.9415
270.877,18.21392,1.23728,-0.15559,0.9399
273.877,18.3043,1.23646,-0.1646,0.93831
276.877,18.39479,1.24217,-0.1772,0.93672
279.877,18.48539,1.24934,-0.18907,0.93514
282.877,18.57599,1.261,-0.20176,0.93357
285.877,18.6667,1.2741,-0.21768,0.93201
288.877,18.75733,1.29422,-0.23473,0.93045
291.877,18.84829,1.32029,-0.25543,0.92889
294.877,18.93897,1.34864,-0.2802,0.92734
297.877,19.02996,1.38302,-0.30501,0.9258
300.877,19.1208,1.41682,-0.33292,0.92427
303.877,19.21174,1.45826,-0.36506,0.92273
306.877,19.3026,1.5005,-0.40284,0.92121
309.877,19.39386,1.54313,-0.44194,0.91969
312.877,19.48505,1.58987,-0.48778,0.91817
315.877,19.57626,1.63535,-0.53693,0.91666
318.877,19.66747,1.6765,-0.58948,0.91515
321.877,19.75887,1.72146,-0.64403,0.91364
324.877,19.85029,1.7594,-0.70421,0.91214
327.877,19.94181,1.8037,-0.77028,0.91064
330.877,20.0335,1.84328,-0.83813,0.90915
333.877,20.12523,1.88173,-0.9111,0.90766
336.877,20.21686,1.92205,-0.98836,0.90617
339.877,20.3087,1.96357,-1.06765,0.90469
342.877,20.40063,2.00549,-1.1517,0.9032
345.877,20.49265,2.05193,-1.2388,0.90172
348.877,20.58478,2.09732,-1.33154,0.90024
351.877,20.67697,2.15006,-1.42714,0.89877
354.877,20.76928,2.20611,-1.52609,0.89729
357.877,20.86148,2.26093,-1.63197,0.89582
360.877,20.95407,2.31419,-1.74223,0.89435
363.877,21.0467,2.34701,-1.85656,0.89288
366.877,21.13919,2.35665,-1.97801,0.89141
369.877,21.23187,2.31983,-2.09415,0.88994
372.877,21.32459,2.22535,-2.20726,0.88847
375.877,21.41699,2.06643,-2.31722,0.887
378.877,21.5099,1.85245,-2.4071,0.88553
381.877,21.60266,1.60445,-2.49591,0.88406
384.877,21.69523,1.32981,-2.56581,0.88259
387.877,21.78781,1.06057,-2.6183,0.88112
390.877,21.8804,0.81318,-2.65707,0.87965
393.877,21.97314,0.62114,-2.68554,0.87818
396.877,22.06583,0.486,-2.70178,0.8767
399.877,22.15876,0.40442,-2.71447,0.87523
402.877,22.25167,0.34835,-2.72256,0.87375
405.877,22.34486,0.31042,-2.73233,0.87227
408.877,22.43814,0.28043,-2.7399,0.87079
411.877,22.5317,0.26221,-2.74827,0.86931
414.877,22.62521,0.23992,-2.75734,0.86782
417.877,22.71878,0.22677,-2.76636,0.86634
420.877,22.81253,0.20989,-2.77433,0.86484
423.877,22.9061,0.19483,-2.78259,0.86335
426.877,23.0002,0.18307,-2.79037,0.86185
429.877,23.0942,0.17188,-2.79749,0.86035
432.877,23.18824,0.16514,-2.80854,0.85885
435.877,23.2825,0.15865,-2.81728,0.85734
438.877,23.37671,0.15262,-2.82199,0.85583
441.877,23.47101,0.14951,-2.82721,0.85432
444.877,23.56543,0.14707,-2.83777,0.8528
447.877,23.65992,0.14887,-2.84562,0.85127
450.877,23.75452,0.15882,-2.8511,0.84974
453.877,23.84923,0.15741,-2.85677,0.84821
456.877,23.94409,0.16843,-2.86285,0.84667
459.877,24.03894,0.17451,-2.86828,0.84512
462.877,24.1337,0.18356,-2.87526,0.84357
465.877,24.22878,0.1895,-2.88246,0.84202
468.877,24.32386,0.19597,-2.89081,0.84046
471.877,24.4192,0.20238,-2.89758,0.83889
474.877,24.51451,0.2062,-2.90246,0.83732
477.877,24.60987,0.21825,-2.90713,0.83574
480.877,24.70534,0.21455,-2.91223,0.83415
483.877,24.80095,0.21637,-2.91532,0.83256
486.877,24.89648,0.21837,-2.9195,0.83096
489.877,24.99211,0.22227,-2.92424,0.82936
492.877,25.0878,0.22194,-2.92831,0.82774
495.877,25.18357,0.22464,-2.93223,0.82612
498.877,25.2795,0.22448,-2.93345,0.8245
501.877,25.37558,0.22682,-2.93733,0.82286
504.877,25.4718,0.22512,-2.94169,0.82122
507.877,25.56811,0.22684,-2.94448,0.81957
510.877,25.66439,0.22841,-2.94984,0.81791
513.877,25.76091,0.22844,-2.95492,0.81625
516.877,25.8575,0.22586,-2.96074,0.81457
519.877,25.95423,0.22735,-2.96349,0.81289
522.877,26.05084,0.22515,-2.96482,0.8112
525.877,26.14753,0.22237,-2.96828,0.8095
528.877,26.2443,0.22747,-2.97181,0.80779
531.877,26.3413,0.22813,-2.97551,0.80607
534.877,26.4383,0.22701,-2.97852,0.80435
537.877,26.53528,0.22848,-2.98089,0.80261
540.877,26.6324,0.22934,-2.98208,0.80087
543.877,26.72922,0.24578,-2.9839,0.79911
546.877,26.8264,0.25362,-2.98721,0.79735
549.877,26.9236,0.26254,-2.98993,0.79558
552.877,27.0207,0.26946,-2.99285,0.7938
555.877,27.118,0.27786,-2.99542,0.792
558.877,27.21517,0.28236,-2.99669,0.7902
561.877,27.31281,0.28481,-3.00009,0.78839
564.877,27.4101,0.28368,-3.00423,0.78657
567.877,27.5076,0.27809,-3.00431,0.78474
570.877,27.6052,0.26546,-3.00431,0.78289
573.877,27.70301,0.258,-3.00691,0.78104
576.877,27.8008,0.25031,-3.01034,0.77918
579.877,27.8986,0.2472,-3.01298,0.77731
582.877,27.99648,0.24165,-3.01796,0.77542
585.877,28.0946,0.23687,-3.01984,0.77353
588.877,28.19247,0.23053,-3.0212,0.77162
591.877,28.29053,0.22725,-3.02329,0.76971
594.877,28.3886,0.22364,-3.02509,0.76778
597.877,28.4869,0.22363,-3.02759,0.76584
600.877,28.58522,0.2225,-3.02845,0.76389
603.877,28.6837,0.21947,-3.03074,0.76193
606.877,28.78247,0.22058,-3.03347,0.75996
609.877,28.88095,0.22316,-3.03787,0.75798
612.877,28.9795,0.22205,-3.03656,0.75599
615.877,29.0781,0.22248,-3.03843,0.75398
618.877,29.17673,0.22861,-3.04328,0.75197
621.877,29.2755,0.23181,-3.04819,0.74994
624.877,29.37436,0.23513,-3.04704,0.7479
627.877,29.4729,0.23496,-3.04624,0.74585
630.877,29.572,0.24256,-3.04841,0.74379
633.877,29.67083,0.24553,-3.0484,0.74172
636.877,29.76956,0.2543,-3.05103,0.73963
639.877,29.86845,0.26336,-3.05498,0.73754
642.877,29.96739,0.27229,-3.05951,0.73543
645.877,30.06649,0.28393,-3.06126,0.73331
648.877,30.1654,0.29239,-3.06519,0.73118
651.877,30.26435,0.29966,-3.06672,0.72904
654.877,30.3636,0.30508,-3.06904,0.72688
657.877,30.46272,0.31076,-3.07166,0.72471
660.877,30.5617,0.31692,-3.0755,0.72254
663.877,30.661,0.32441,-3.0745,0.72035
666.877,30.76036,0.33296,-3.07764,0.71815
669.877,30.8595,0.34422,-3.08185,0.71593
672.877,30.9591,0.35615,-3.08208,0.71371
675.877,31.05847,0.37325,-3.08562,0.71147
678.877,31.1579,0.39412,-3.08897,0.70923
681.877,31.25743,0.41308,-3.09209,0.70697
684.877,31.35677,0.44103,-3.09694,0.70469
687.877,31.45644,0.47349,-3.09827,0.70241
690.877,31.55575,0.51057,-3.10263,0.70012
693.877,31.65533,0.54392,-3.10705,0.69781
696.877,31.7548,0.58191,-3.1118,0.69549
699.877,31.8544,0.61637,-3.11552,0.69316
702.877,31.9539,0.64837,-3.12141,0.69082
705.877,32.05336,0.6724,-3.12766,0.68847
708.877,32.15271,0.68891,-3.13233,0.68611
711.877,32.25225,0.69988,-3.13674,0.68373
714.877,32.3516,0.69898,-3.14184,0.68135
717.877,32.45114,0.69961,-3.14598,0.67895
720.877,32.55084,0.68233,-3.14921,0.67654
723.877,32.65038,0.6446,-3.15334,0.67412
726.877,32.75,0.58337,-3.15753,0.67169
729.877,32.84966,0.51095,-3.16148,0.66924
732.877,32.94941,0.4402,-3.16973,0.66679
735.877,33.04902,0.39857,-3.17223,0.66433
738.877,33.14884,0.36786,-3.17552,0.66185
741.877,33.24852,0.34725,-3.17688,0.65936
744.377,33.33202,0.33519,-3.17772,0.65728