Folder: fsri_materials_database/01_Data/Lightweight_Gypsum_Wallboard_Unpainted_Paper/STA/N2/3K_min

Note: 01_Data/README.md
# Materials and Products Database
## 01_Data

Raw data generated from each apparatus are included here in plain-text format. The data is organized first by material, next by the short name of test apparatus used, and where applicable additional filtering by test settings.

### material.json

Each material directory contains a json file of the same name as the material. This file links the data stored in the repository as well as data and graphs produced by the accompanying scripts (__02_Scripts__) to the respective landing page for the material on the front-end website.

File: Lightweight_Gypsum_Wallboard_Paper_STA_N2_3KData_220203_R1.csv
##Temp./Â°C,Time/min,Mass loss(subtr.2)/mg,DSC(subtr.2)/mW,Sensit./(uV/mW)
50.13,10.01667,-0.03422,0.08954324,1.04801
53.03,12.1853,-0.03884149,0.33391,1.04672
55.93,13.2953,-0.04145992,0.37482,1.04545
58.83,14.35375,-0.0440845,0.41052,1.04417
61.73,15.36369,-0.04629175,0.447,1.0429
64.63,16.3572,-0.0501413,0.4725,1.04164
67.53,17.3375,-0.0525373,0.50162,1.04038
70.43,18.31411,-0.05543744,0.54889,1.03912
73.33,19.29143,-0.06045226,0.55814,1.03787
76.23,20.26574,-0.06415083,0.57153,1.03662
79.13,21.2336,-0.06679006,0.55553,1.03538
82.03,22.20639,-0.06945539,0.53627,1.03414
84.93,23.18025,-0.0733787,0.51282,1.0329
87.83,24.1459,-0.07501986,0.50083,1.03167
90.73,25.101,-0.07370364,0.50722,1.03044
93.63,26.06439,-0.07634048,0.46775,1.02922
96.53,27.03296,-0.07829204,0.4527,1.02799
99.43,28.00136,-0.08094,0.45659,1.02678
102.33,28.9617,-0.08069918,0.46887,1.02556
105.23,29.92008,-0.08359118,0.46422,1.02435
108.13,30.8707,-0.08401856,0.46385,1.02314
111.03,31.82838,-0.08342972,0.45494,1.02193
113.93,32.78367,-0.08620999,0.45153,1.02073
116.83,33.7421,-0.08423125,0.44306,1.01953
119.73,34.6987,-0.08423,0.45388,1.01833
122.63,35.64862,-0.0832399,0.45343,1.01713
125.53,36.60317,-0.08500349,0.45306,1.01594
128.43,37.56436,-0.08531605,0.44266,1.01475
131.33,38.51937,-0.08417152,0.45381,1.01356
134.23,39.47036,-0.08697606,0.45531,1.01237
137.13,40.4239,-0.08698871,0.46236,1.01119
140.03,41.37455,-0.08610535,0.48022,1.01001
142.93,42.32047,-0.08567177,0.47912,1.00883
145.83,43.2746,-0.08638821,0.46904,1.00765
148.73,44.2288,-0.08593905,0.48252,1.00647
151.63,45.17072,-0.08677925,0.48655,1.00529
154.53,46.10394,-0.08599767,0.48919,1.00412
157.43,47.052,-0.08698,0.48582,1.00294
160.33,47.99814,-0.08762993,0.49638,1.00177
163.23,48.9441,-0.08828498,0.50008,1.0006
166.13,49.89325,-0.08862,0.49439,0.99943
169.03,50.8412,-0.08763024,0.50827,0.99826
171.93,51.7804,-0.08782903,0.51509,0.99709
174.83,52.7267,-0.08795996,0.51279,0.99592
177.73,53.6741,-0.09237929,0.51597,0.99475
180.63,54.61261,-0.09191001,0.54388,0.99358
183.53,55.55229,-0.09125986,0.54124,0.99241
186.43,56.4893,-0.09389633,0.54471,0.99124
189.33,57.43043,-0.09388834,0.55962,0.99007
192.23,58.37381,-0.09427773,0.55574,0.9889
195.13,59.3189,-0.09685725,0.56046,0.98773
198.03,60.264,-0.09828222,0.56715,0.98656
200.93,61.2116,-0.10057,0.57161,0.98539
203.83,62.1515,-0.10255,0.57855,0.98422
206.73,63.09066,-0.10453,0.5875,0.98304
209.63,64.0321,-0.10749,0.58673,0.98187
212.53,64.973,-0.1098,0.59819,0.98069
215.43,65.9168,-0.11189,0.61077,0.97952
218.33,66.85686,-0.1171,0.61566,0.97834
221.23,67.8001,-0.12109,0.61138,0.97716
224.13,68.74629,-0.12657,0.62054,0.97598
227.03,69.69208,-0.13272,0.63477,0.9748
229.93,70.63172,-0.13901,0.64081,0.97361
232.83,71.5757,-0.14665,0.65008,0.97242
235.73,72.51853,-0.15662,0.64479,0.97123
238.63,73.46112,-0.16567,0.65299,0.97004
241.53,74.3964,-0.17517,0.67336,0.96885
244.43,75.33465,-0.18667,0.66619,0.96765
247.33,76.2775,-0.20048,0.6585,0.96645
250.23,77.21383,-0.21535,0.65865,0.96525
253.13,78.1575,-0.23369,0.65022,0.96404
256.03,79.103,-0.25679,0.66596,0.96283
258.93,80.04457,-0.27934,0.67486,0.96162
261.83,80.98281,-0.30413,0.68962,0.96041
264.73,81.92453,-0.33483,0.71545,0.95919
267.63,82.8678,-0.36626,0.74119,0.95796
270.53,83.80974,-0.4019,0.75652,0.95674
273.43,84.7545,-0.44303,0.77043,0.95551
276.33,85.70342,-0.48444,0.78806,0.95427
279.23,86.6472,-0.53283,0.83772,0.95303
282.13,87.59084,-0.58296,0.8541,0.95179
285.03,88.5355,-0.63816,0.8899,0.95054
287.93,89.47932,-0.69734,0.91581,0.94929
290.83,90.42517,-0.75768,0.9313,0.94803
293.73,91.36785,-0.82621,0.95924,0.94677
296.63,92.30809,-0.89392,0.98937,0.94551
299.53,93.25061,-0.96745,1.01809,0.94423
302.43,94.2004,-1.04565,1.02421,0.94296
305.33,95.1519,-1.12836,1.07016,0.94167
308.23,96.09885,-1.21636,1.11932,0.94039
311.13,97.04726,-1.3094,1.14314,0.93909
314.03,98.00038,-1.41126,1.18426,0.93779
316.93,98.9485,-1.51743,1.25956,0.93649
319.83,99.88955,-1.63067,1.31651,0.93518
322.73,100.838,-1.75429,1.3636,0.93386
325.63,101.791,-1.88434,1.3896,0.93254
328.53,102.739,-2.01979,1.40975,0.93121
331.43,103.685,-2.15461,1.4002,0.92988
334.33,104.6338,-2.286,1.32114,0.92853
337.23,105.585,-2.40484,1.19672,0.92718
340.13,106.534,-2.50571,1.04153,0.92583
343.03,107.48,-2.58556,0.85239,0.92447
345.93,108.432,-2.64673,0.67267,0.9231
348.83,109.379,-2.68695,0.53993,0.92172
351.73,110.331,-2.71473,0.43999,0.92034
354.63,111.277,-2.73068,0.36723,0.91895
357.53,112.227,-2.74368,0.33334,0.91755
360.43,113.179,-2.75442,0.31685,0.91614
363.33,114.13,-2.76391,0.28693,0.91473
366.23,115.081,-2.77395,0.28775,0.91331
369.13,116.031,-2.78222,0.29303,0.91188
372.03,116.9823,-2.7914,0.27437,0.91044
374.93,117.935,-2.80019,0.26857,0.909
377.83,118.892,-2.80729,0.26192,0.90754
380.73,119.845,-2.81593,0.25339,0.90608
383.63,120.794,-2.82409,0.25481,0.90461
386.53,121.744,-2.83214,0.24982,0.90314
389.43,122.704,-2.84087,0.23982,0.90165
392.33,123.663,-2.8512,0.23203,0.90015
395.23,124.611,-2.85665,0.24868,0.89865
398.13,125.556,-2.86375,0.23662,0.89714
401.03,126.514,-2.87166,0.23205,0.89561
403.93,127.469,-2.8781,0.23305,0.89408
406.83,128.432,-2.88672,0.23614,0.89254
409.73,129.395,-2.89223,0.22712,0.89099
412.63,130.344,-2.89857,0.24275,0.88944
415.53,131.294,-2.90697,0.26114,0.88787
418.43,132.258,-2.91185,0.26008,0.88629
421.33,133.219,-2.91807,0.27173,0.88471
424.23,134.177,-2.92178,0.25904,0.88311
427.13,135.128,-2.92695,0.26766,0.8815
430.03,136.076,-2.93157,0.26059,0.87989
432.93,137.0351,-2.93616,0.27237,0.87826
435.83,137.997,-2.94178,0.27442,0.87663
438.73,138.9585,-2.94638,0.25908,0.87498
441.63,139.918,-2.95098,0.24725,0.87333
444.53,140.875,-2.95541,0.25384,0.87166
447.43,141.833,-2.95757,0.26665,0.86999
450.33,142.795,-2.9602,0.29144,0.8683
453.23,143.754,-2.96382,0.2998,0.86661
456.13,144.712,-2.97026,0.29445,0.8649
459.03,145.68,-2.97325,0.30451,0.86318
461.93,146.646,-2.97654,0.30466,0.86146
464.83,147.6154,-2.9795,0.28909,0.85972
467.73,148.5774,-2.98375,0.23476,0.85797
470.63,149.533,-2.98707,0.23881,0.85621
473.53,150.497,-2.98997,0.22961,0.85444
476.43,151.4646,-2.99256,0.21417,0.85266
479.33,152.423,-2.99519,0.19458,0.85087
482.23,153.383,-2.9975,0.15547,0.84907
485.13,154.352,-3.00113,0.12784,0.84726
488.03,155.324,-3.00244,0.09114136,0.84543
490.93,156.297,-3.00736,0.08413168,0.8436
493.83,157.267,-3.00934,0.06526099,0.84175
496.73,158.225,-3.0123,0.0797658,0.8399
499.63,159.188,-3.01592,0.07306822,0.83803
502.53,160.1539,-3.01836,0.07472006,0.83615
505.43,161.115,-3.01886,0.0714239,0.83426
508.33,162.083,-3.02349,0.06259549,0.83236
511.23,163.054,-3.02579,0.05964746,0.83045
514.13,164.021,-3.03008,0.07105807,0.82852
517.03,164.985,-3.03145,0.05661022,0.82659
519.93,165.956,-3.03334,0.05126678,0.82464
522.83,166.917,-3.03632,0.05931192,0.82269
525.73,167.886,-3.03828,0.05013276,0.82072
528.63,168.857,-3.04204,0.04207077,0.81874
531.53,169.824,-3.04389,0.04132867,0.81675
534.43,170.793,-3.04723,0.04357162,0.81474
537.33,171.761,-3.04784,0.0552348,0.81273
540.23,172.731,-3.05084,0.04797225,0.8107
543.13,173.694,-3.05405,0.03688323,0.80867
546.03,174.672,-3.05608,0.03744505,0.80662
548.93,175.645,-3.05704,0.03291958,0.80456
551.83,176.606,-3.05979,0.0309438,0.80249
554.73,177.574,-3.06102,0.04109656,0.80041
557.63,178.542,-3.06265,0.03298521,0.79832
560.53,179.518,-3.06581,0.02754746,0.79621
563.43,180.4891,-3.06586,0.02825544,0.79409
566.33,181.451,-3.06835,0.05451613,0.79197
569.23,182.428,-3.07109,0.03893313,0.78983
572.13,183.398,-3.07329,0.03248079,0.78768
575.03,184.363,-3.07692,0.06627745,0.78552
577.93,185.334,-3.07883,0.05160953,0.78334
580.83,186.306,-3.08284,0.0761367,0.78116
583.73,187.283,-3.08448,0.07544132,0.77896
586.63,188.255,-3.08744,0.08938985,0.77676
589.53,189.226,-3.08875,0.08325774,0.77454
592.43,190.202,-3.09226,0.08581007,0.77231
595.33,191.1695,-3.09423,0.09544747,0.77007
598.23,192.141,-3.09537,0.10519,0.76782
601.13,193.116,-3.10115,0.09656486,0.76555
604.03,194.095,-3.10477,0.1037,0.76328
606.93,195.0665,-3.10806,0.12443,0.761
609.83,196.04,-3.11003,0.13491,0.7587
612.73,197.016,-3.11492,0.13822,0.75639
615.63,197.9928,-3.11859,0.14804,0.75408
618.53,198.961,-3.12303,0.14826,0.75175
621.43,199.94,-3.12583,0.15478,0.74941
624.33,200.9194,-3.13106,0.14741,0.74706
627.23,201.891,-3.13636,0.15191,0.7447
630.13,202.873,-3.13965,0.09795184,0.74232
633.03,203.8491,-3.14458,0.08368587,0.73994
635.93,204.82,-3.15049,0.08522952,0.73755
638.83,205.797,-3.15444,0.06414471,0.73514
641.73,206.779,-3.15794,0.03691456,0.73273
644.63,207.752,-3.16202,0.0009850641,0.7303
647.53,208.723,-3.16644,-0.03367878,0.72787
650.43,209.701,-3.16893,-0.05349771,0.72542
653.33,210.68,-3.17321,-0.06222636,0.72297
656.23,211.658,-3.17461,-0.08891091,0.7205
659.13,212.638,-3.17719,-0.09014607,0.71802
662.03,213.62,-3.17881,-0.11245,0.71554
664.93,214.596,-3.18217,-0.10636,0.71304
667.83,215.575,-3.18506,-0.10567,0.71053
670.73,216.5552,-3.18469,-0.11009,0.70802
673.63,217.53,-3.1875,-0.11498,0.70549
676.53,218.512,-3.19098,-0.12056,0.70295
679.43,219.489,-3.19204,-0.11884,0.70041
682.33,220.464,-3.19743,-0.12968,0.69785
685.23,221.445,-3.19921,-0.13093,0.69529
688.13,222.417,-3.1991,-0.1422,0.69271
691.03,223.393,-3.20074,-0.13177,0.69013
693.93,224.3792,-3.20035,-0.13864,0.68754
696.83,225.356,-3.20317,-0.12187,0.68493
699.73,226.334,-3.20416,-0.1291,0.68232
702.63,227.3215,-3.20739,-0.14573,0.6797
705.53,228.299,-3.20941,-0.10424,0.67707
708.43,229.282,-3.21205,-0.117,0.67443
711.33,230.26,-3.21182,-0.11314,0.67179
714.23,231.236,-3.21561,-0.07828384,0.66913
717.13,232.2197,-3.2169,-0.07654738,0.66647
720.03,233.205,-3.21871,-0.08571217,0.66379
722.93,234.185,-3.22026,-0.0822028,0.66111
725.83,235.165,-3.22026,-0.07850108,0.65842
728.73,236.143,-3.2206,-0.04999724,0.65573
731.63,237.122,-3.22163,-0.02584678,0.65302
734.53,238.105,-3.22367,-0.03248755,0.65031
737.43,239.084,-3.22496,-0.04826792,0.64758
740.33,240.063,-3.22497,-0.0423832,0.64486
743.23,241.049,-3.22795,-0.06576118,0.64212
746.13,242.025,-3.22893,-0.05915862,0.63937
749.03,243.006,-3.22937,-0.08010573,0.63662
749.93,243.31,-3.23025,-0.07539882,0.63577