Folder: fsri_materials_database/01_Data/Engineered_Flooring/FTIR/IS (part 2)

File: Engineered_Flooring_IS_S_220909_R7.dpt
7497.02,0.36978
7473.88,0.38090
7450.73,0.36971
7427.59,0.37178
7404.44,0.36939
7381.3,0.36718
7358.15,0.35919
7335.01,0.36101
7311.86,0.36063
7288.72,0.35659
7265.57,0.35360
7242.43,0.36830
7219.28,0.35701
7196.14,0.35361
7172.99,0.35502
7149.85,0.34572
7126.7,0.34610
7103.56,0.33830
7080.41,0.33022
7057.27,0.32546
7034.12,0.31793
7010.98,0.31299
6987.83,0.30727
6964.69,0.30536
6941.54,0.30687
6918.4,0.30381
6895.25,0.29832
6872.11,0.29808
6848.96,0.30478
6825.82,0.30511
6802.67,0.30178
6779.53,0.30397
6756.38,0.30807
6733.24,0.30649
6710.1,0.31027
6686.95,0.31369
6663.81,0.31344
6640.66,0.31247
6617.52,0.31953
6594.37,0.32397
6571.23,0.31958
6548.08,0.32521
6524.94,0.32698
6501.79,0.33106
6478.65,0.32880
6455.5,0.33026
6432.36,0.33300
6409.21,0.33114
6386.07,0.33319
6362.92,0.33823
6339.78,0.33592
6316.63,0.33973
6293.49,0.33805
6270.34,0.34090
6247.2,0.34243
6224.05,0.34784
6200.91,0.34797
6177.76,0.35000
6154.62,0.35334
6131.47,0.35155
6108.33,0.35660
6085.18,0.35520
6062.04,0.35450
6038.89,0.34961
6015.75,0.34170
5992.6,0.33596
5969.46,0.33202
5946.31,0.32723
5923.17,0.32438
5900.02,0.32362
5876.88,0.32254
5853.73,0.32135
5830.59,0.31993
5807.44,0.31569
5784.3,0.31508
5761.15,0.31953
5738.01,0.32559
5714.86,0.32950
5691.72,0.33029
5668.57,0.33340
5645.43,0.33588
5622.28,0.33566
5599.14,0.33676
5575.99,0.33688
5552.85,0.34165
5529.7,0.34392
5506.56,0.34416
5483.41,0.34617
5460.27,0.34825
5437.13,0.35203
5413.98,0.35585
5390.84,0.35586
5367.69,0.35519
5344.55,0.35404
5321.4,0.34540
5298.26,0.33187
5275.11,0.30965
5251.97,0.28060
5228.82,0.26350
5205.68,0.25641
5182.53,0.25726
5159.39,0.26387
5136.24,0.26983
5113.1,0.27899
5089.95,0.28670
5066.81,0.29407
5043.66,0.30062
5020.52,0.30571
4997.37,0.30846
4974.23,0.30715
4951.08,0.30075
4927.94,0.29086
4904.79,0.28250
4881.65,0.27587
4858.5,0.27015
4835.36,0.26462
4812.21,0.25888
4789.07,0.25661
4765.92,0.25364
4742.78,0.24969
4719.63,0.24699
4696.49,0.24440
4673.34,0.24303
4650.2,0.25006
4627.05,0.25379
4603.91,0.26087
4580.76,0.26720
4557.62,0.27007
4534.47,0.27280
4511.33,0.26933
4488.18,0.25746
4465.04,0.23458
4441.89,0.19910
4418.75,0.17588
4395.6,0.17255
4372.46,0.17083
4349.31,0.16739
4326.17,0.16749
4303.02,0.17251
4279.88,0.17249
4256.73,0.17576
4233.59,0.17965
4210.44,0.18352
4187.3,0.18463
4164.16,0.18396
4141.01,0.18212
4117.87,0.17739
4094.72,0.16963
4071.58,0.15793
4048.43,0.15138
4025.29,0.14938
4002.14,0.14906
3979,0.15475
3955.85,0.16230
3932.71,0.16998
3909.56,0.17706
3886.42,0.18280
3863.27,0.18877
3840.13,0.19593
3816.98,0.19826
3793.84,0.19664
3770.69,0.19599
3747.55,0.19060
3724.4,0.17964
3701.26,0.15741
3678.11,0.10438
3654.97,0.07607
3631.82,0.06101
3608.68,0.05404
3585.53,0.05081
3562.39,0.04913
3539.24,0.04716
3516.1,0.04754
3492.95,0.04759
3469.81,0.04691
3446.66,0.04661
3423.52,0.04744
3400.37,0.04688
3377.23,0.04698
3354.08,0.04802
3330.94,0.04733
3307.79,0.04782
3284.65,0.04859
3261.5,0.04823
3238.36,0.04914
3215.21,0.04991
3192.07,0.05001
3168.92,0.05172
3145.78,0.05224
3122.63,0.05282
3099.49,0.05331
3076.34,0.05326
3053.2,0.05316
3030.05,0.05273
3006.91,0.04917
2983.76,0.04575
2960.62,0.04753
2937.47,0.04811
2914.33,0.04995
2891.18,0.04902
2868.04,0.04975
2844.9,0.05182
2821.75,0.05500
2798.61,0.05862
2775.46,0.06137
2752.32,0.06330
2729.17,0.06521
2706.03,0.06898
2682.88,0.07313
2659.74,0.07528
2636.59,0.07861
2613.45,0.08100
2590.3,0.08287
2567.16,0.08497
2544.01,0.08651
2520.87,0.08976
2497.72,0.09320
2474.58,0.09704
2451.43,0.09999
2428.29,0.10255
2405.14,0.10666
2382,0.10893
2358.85,0.11125
2335.71,0.11360
2312.56,0.11550
2289.42,0.11716
2266.27,0.11842
2243.13,0.11723
2219.98,0.11735
2196.84,0.11635
2173.69,0.11103
2150.55,0.10514
2127.4,0.10167
2104.26,0.10003
2081.11,0.09958
2057.97,0.09972
2034.82,0.10046
2011.68,0.10229
1988.53,0.10428
1965.39,0.10406
1942.24,0.10487
1919.1,0.10764
1895.95,0.10739
1872.81,0.10447
1849.66,0.09586
1826.52,0.08186
1803.37,0.06444
1780.23,0.04489
1757.08,0.02945
1733.94,0.05121
1710.79,0.06348
1687.65,0.05636
1664.5,0.05270
1641.36,0.05109
1618.21,0.05042
1595.07,0.05094
1571.93,0.05208
1548.78,0.04857
1525.64,0.04733
1502.49,0.04637
1479.35,0.04257
1456.2,0.04269
1433.06,0.04493
1409.91,0.04272
1386.77,0.04238
1363.62,0.04309
1340.48,0.04151
1317.33,0.03906
1294.19,0.03894
1271.04,0.03953
1247.9,0.04279
1224.75,0.04367
1201.61,0.04525
1178.46,0.04820
1155.32,0.05497
1132.17,0.05615
1109.03,0.05803
1085.88,0.05955
1062.74,0.06328
1039.59,0.06711
1016.45,0.06936
993.302,0.06819
970.157,0.06917
947.013,0.06819
923.868,0.06572
900.723,0.06496
877.578,0.06633
854.433,0.06312
831.288,0.06077
808.143,0.06320
784.998,0.06207
761.853,0.06033
738.708,0.06084
715.563,0.06171
692.419,0.06626
669.274,0.06742
646.129,0.05848
622.984,0.05761
599.839,0.05789

File: Engineered_Flooring_IS_S_220909_R8.dpt
7497.02,0.37885
7473.88,0.36800
7450.73,0.37893
7427.59,0.37104
7404.44,0.36753
7381.3,0.37139
7358.15,0.36025
7335.01,0.36751
7311.86,0.36114
7288.72,0.36195
7265.57,0.35934
7242.43,0.35751
7219.28,0.36061
7196.14,0.35504
7172.99,0.35378
7149.85,0.34785
7126.7,0.34095
7103.56,0.33318
7080.41,0.33530
7057.27,0.32502
7034.12,0.31697
7010.98,0.31377
6987.83,0.31408
6964.69,0.30802
6941.54,0.30619
6918.4,0.30067
6895.25,0.30586
6872.11,0.30583
6848.96,0.30107
6825.82,0.30363
6802.67,0.30318
6779.53,0.30612
6756.38,0.30841
6733.24,0.30609
6710.1,0.30769
6686.95,0.31066
6663.81,0.31061
6640.66,0.31637
6617.52,0.31591
6594.37,0.31981
6571.23,0.32577
6548.08,0.32428
6524.94,0.32605
6501.79,0.32790
6478.65,0.33039
6455.5,0.33059
6432.36,0.33090
6409.21,0.33508
6386.07,0.33450
6362.92,0.33715
6339.78,0.33786
6316.63,0.33451
6293.49,0.34393
6270.34,0.34344
6247.2,0.34245
6224.05,0.34433
6200.91,0.35076
6177.76,0.35026
6154.62,0.34914
6131.47,0.35277
6108.33,0.35412
6085.18,0.35392
6062.04,0.35201
6038.89,0.34843
6015.75,0.34088
5992.6,0.33492
5969.46,0.32954
5946.31,0.32638
5923.17,0.32412
5900.02,0.32395
5876.88,0.32279
5853.73,0.32120
5830.59,0.31681
5807.44,0.31291
5784.3,0.31562
5761.15,0.32012
5738.01,0.32244
5714.86,0.32607
5691.72,0.32970
5668.57,0.33401
5645.43,0.33355
5622.28,0.33570
5599.14,0.33519
5575.99,0.33787
5552.85,0.33978
5529.7,0.34219
5506.56,0.34374
5483.41,0.34630
5460.27,0.34792
5437.13,0.34906
5413.98,0.35430
5390.84,0.35585
5367.69,0.35569
5344.55,0.35432
5321.4,0.34647
5298.26,0.33363
5275.11,0.30929
5251.97,0.28078
5228.82,0.26168
5205.68,0.25685
5182.53,0.25667
5159.39,0.26363
5136.24,0.26881
5113.1,0.27878
5089.95,0.28538
5066.81,0.29354
5043.66,0.29925
5020.52,0.30474
4997.37,0.30812
4974.23,0.30485
4951.08,0.30017
4927.94,0.28952
4904.79,0.28221
4881.65,0.27530
4858.5,0.27000
4835.36,0.26268
4812.21,0.25851
4789.07,0.25671
4765.92,0.25304
4742.78,0.24937
4719.63,0.24646
4696.49,0.24309
4673.34,0.24200
4650.2,0.24971
4627.05,0.25398
4603.91,0.26059
4580.76,0.26682
4557.62,0.26976
4534.47,0.27215
4511.33,0.26848
4488.18,0.25714
4465.04,0.23383
4441.89,0.19860
4418.75,0.17462
4395.6,0.17324
4372.46,0.16973
4349.31,0.16636
4326.17,0.16732
4303.02,0.17159
4279.88,0.17174
4256.73,0.17549
4233.59,0.17930
4210.44,0.18383
4187.3,0.18495
4164.16,0.18412
4141.01,0.18112
4117.87,0.17715
4094.72,0.16991
4071.58,0.15846
4048.43,0.15086
4025.29,0.14920
4002.14,0.14921
3979,0.15454
3955.85,0.16179
3932.71,0.16966
3909.56,0.17680
3886.42,0.18295
3863.27,0.18920
3840.13,0.19572
3816.98,0.19763
3793.84,0.19741
3770.69,0.19502
3747.55,0.19099
3724.4,0.18023
3701.26,0.15797
3678.11,0.10552
3654.97,0.07728
3631.82,0.06131
3608.68,0.05398
3585.53,0.05041
3562.39,0.04805
3539.24,0.04739
3516.1,0.04709
3492.95,0.04693
3469.81,0.04655
3446.66,0.04717
3423.52,0.04747
3400.37,0.04690
3377.23,0.04710
3354.08,0.04775
3330.94,0.04831
3307.79,0.04809
3284.65,0.04811
3261.5,0.04859
3238.36,0.04873
3215.21,0.04979
3192.07,0.05031
3168.92,0.05130
3145.78,0.05237
3122.63,0.05332
3099.49,0.05338
3076.34,0.05293
3053.2,0.05292
3030.05,0.05283
3006.91,0.04872
2983.76,0.04619
2960.62,0.04680
2937.47,0.04742
2914.33,0.05007
2891.18,0.04912
2868.04,0.04949
2844.9,0.05216
2821.75,0.05510
2798.61,0.05814
2775.46,0.06185
2752.32,0.06296
2729.17,0.06554
2706.03,0.06907
2682.88,0.07296
2659.74,0.07517
2636.59,0.07832
2613.45,0.08050
2590.3,0.08254
2567.16,0.08463
2544.01,0.08656
2520.87,0.08934
2497.72,0.09324
2474.58,0.09656
2451.43,0.09983
2428.29,0.10279
2405.14,0.10682
2382,0.10873
2358.85,0.11146
2335.71,0.11307
2312.56,0.11529
2289.42,0.11704
2266.27,0.11831
2243.13,0.11730
2219.98,0.11747
2196.84,0.11568
2173.69,0.11040
2150.55,0.10503
2127.4,0.10185
2104.26,0.10030
2081.11,0.09969
2057.97,0.09947
2034.82,0.10031
2011.68,0.10231
1988.53,0.10383
1965.39,0.10372
1942.24,0.10463
1919.1,0.10753
1895.95,0.10733
1872.81,0.10425
1849.66,0.09604
1826.52,0.08167
1803.37,0.06433
1780.23,0.04466
1757.08,0.02956
1733.94,0.05099
1710.79,0.06337
1687.65,0.05619
1664.5,0.05238
1641.36,0.05172
1618.21,0.05078
1595.07,0.05055
1571.93,0.05232
1548.78,0.04931
1525.64,0.04752
1502.49,0.04630
1479.35,0.04243
1456.2,0.04301
1433.06,0.04487
1409.91,0.04299
1386.77,0.04303
1363.62,0.04339
1340.48,0.04128
1317.33,0.03933
1294.19,0.03856
1271.04,0.03934
1247.9,0.04279
1224.75,0.04369
1201.61,0.04474
1178.46,0.04823
1155.32,0.05469
1132.17,0.05616
1109.03,0.05820
1085.88,0.05960
1062.74,0.06348
1039.59,0.06735
1016.45,0.06953
993.302,0.06863
970.157,0.06887
947.013,0.06801
923.868,0.06539
900.723,0.06496
877.578,0.06594
854.433,0.06324
831.288,0.05980
808.143,0.06294
784.998,0.06260
761.853,0.06060
738.708,0.05996
715.563,0.06116
692.419,0.06682
669.274,0.06681
646.129,0.05932
622.984,0.05770
599.839,0.06014

File: Engineered_Flooring_IS_T_220909_R1.dpt
7497.02,0.03606
7473.88,0.02966
7450.73,0.03626
7427.59,0.02961
7404.44,0.02952
7381.3,0.03246
7358.15,0.02554
7335.01,0.02118
7311.86,0.02550
7288.72,0.02628
7265.57,0.02066
7242.43,0.02693
7219.28,0.02155
7196.14,0.02259
7172.99,0.02451
7149.85,0.02763
7126.7,0.02211
7103.56,0.02328
7080.41,0.02161
7057.27,0.02312
7034.12,0.02534
7010.98,0.02162
6987.83,0.02703
6964.69,0.02792
6941.54,0.01650
6918.4,0.02148
6895.25,0.02173
6872.11,0.02251
6848.96,0.02322
6825.82,0.02237
6802.67,0.02551
6779.53,0.02020
6756.38,0.02393
6733.24,0.02656
6710.1,0.02172
6686.95,0.02168
6663.81,0.02153
6640.66,0.02075
6617.52,0.02193
6594.37,0.02358
6571.23,0.01947
6548.08,0.02555
6524.94,0.02028
6501.79,0.02460
6478.65,0.02141
6455.5,0.01958
6432.36,0.02319
6409.21,0.02260
6386.07,0.02101
6362.92,0.02279
6339.78,0.02737
6316.63,0.02143
6293.49,0.02112
6270.34,0.02408
6247.2,0.02551
6224.05,0.02353
6200.91,0.02268
6177.76,0.02190
6154.62,0.02261
6131.47,0.02574
6108.33,0.01954
6085.18,0.02061
6062.04,0.02183
6038.89,0.01882
6015.75,0.02163
5992.6,0.02157
5969.46,0.02172
5946.31,0.02143
5923.17,0.02105
5900.02,0.02280
5876.88,0.01926
5853.73,0.02020
5830.59,0.02316
5807.44,0.02340
5784.3,0.02361
5761.15,0.02231
5738.01,0.02045
5714.86,0.02178
5691.72,0.02150
5668.57,0.02142
5645.43,0.02406
5622.28,0.02451
5599.14,0.02253
5575.99,0.02190
5552.85,0.02233
5529.7,0.02172
5506.56,0.02188
5483.41,0.02135
5460.27,0.02165
5437.13,0.02265
5413.98,0.02294
5390.84,0.02201
5367.69,0.02196
5344.55,0.02220
5321.4,0.02327
5298.26,0.02140
5275.11,0.02129
5251.97,0.02227
5228.82,0.02092
5205.68,0.02245
5182.53,0.02125
5159.39,0.02268
5136.24,0.02307
5113.1,0.02241
5089.95,0.02228
5066.81,0.02206
5043.66,0.02163
5020.52,0.02358
4997.37,0.02320
4974.23,0.02216
4951.08,0.02353
4927.94,0.02151
4904.79,0.02322
4881.65,0.02188
4858.5,0.02209
4835.36,0.02169
4812.21,0.02200
4789.07,0.02134
4765.92,0.02206
4742.78,0.02175
4719.63,0.02218
4696.49,0.02237
4673.34,0.02344
4650.2,0.02324
4627.05,0.02296
4603.91,0.02122
4580.76,0.02276
4557.62,0.02172
4534.47,0.02188
4511.33,0.02295
4488.18,0.02216
4465.04,0.02309
4441.89,0.02159
4418.75,0.02234
4395.6,0.02227
4372.46,0.02199
4349.31,0.02249
4326.17,0.02240
4303.02,0.02255
4279.88,0.02284
4256.73,0.02205
4233.59,0.02283
4210.44,0.02229
4187.3,0.02346
4164.16,0.02172
4141.01,0.02255
4117.87,0.02194
4094.72,0.02198
4071.58,0.02228
4048.43,0.02269
4025.29,0.02250
4002.14,0.02266
3979,0.02276
3955.85,0.02211
3932.71,0.02212
3909.56,0.02276
3886.42,0.02215
3863.27,0.02307
3840.13,0.02246
3816.98,0.02253
3793.84,0.02239
3770.69,0.02266
3747.55,0.02216
3724.4,0.02265
3701.26,0.02223
3678.11,0.02228
3654.97,0.02229
3631.82,0.02098
3608.68,0.02167
3585.53,0.02151
3562.39,0.02151
3539.24,0.02095
3516.1,0.02091
3492.95,0.02050
3469.81,0.02070
3446.66,0.02094
3423.52,0.01991
3400.37,0.02029
3377.23,0.01987
3354.08,0.02013
3330.94,0.02013
3307.79,0.02035
3284.65,0.01997
3261.5,0.02007
3238.36,0.02040
3215.21,0.02107
3192.07,0.02053
3168.92,0.02053
3145.78,0.02021
3122.63,0.02075
3099.49,0.02030
3076.34,0.02029
3053.2,0.02044
3030.05,0.02066
3006.91,0.02049
2983.76,0.01955
2960.62,0.01944
2937.47,0.01927
2914.33,0.02033
2891.18,0.02027
2868.04,0.02049
2844.9,0.02110
2821.75,0.02121
2798.61,0.02134
2775.46,0.02090
2752.32,0.02054
2729.17,0.02064
2706.03,0.02121
2682.88,0.02086
2659.74,0.02103
2636.59,0.02078
2613.45,0.02114
2590.3,0.02071
2567.16,0.02096
2544.01,0.02114
2520.87,0.02089
2497.72,0.02122
2474.58,0.02123
2451.43,0.02073
2428.29,0.02088
2405.14,0.02090
2382,0.02099
2358.85,0.02102
2335.71,0.02109
2312.56,0.02085
2289.42,0.02112
2266.27,0.02077
2243.13,0.02070
2219.98,0.02083
2196.84,0.02050
2173.69,0.02051
2150.55,0.02060
2127.4,0.02067
2104.26,0.02051
2081.11,0.02072
2057.97,0.02076
2034.82,0.02077
2011.68,0.02075
1988.53,0.02056
1965.39,0.02026
1942.24,0.02064
1919.1,0.02049
1895.95,0.02048
1872.81,0.02039
1849.66,0.02017
1826.52,0.02028
1803.37,0.01957
1780.23,0.01862
1757.08,0.01766
1733.94,0.01918
1710.79,0.02005
1687.65,0.01926
1664.5,0.01830
1641.36,0.01864
1618.21,0.01836
1595.07,0.01902
1571.93,0.01783
1548.78,0.01813
1525.64,0.01841
1502.49,0.01862
1479.35,0.01868
1456.2,0.01866
1433.06,0.01845
1409.91,0.01836
1386.77,0.01768
1363.62,0.01804
1340.48,0.01771
1317.33,0.01738
1294.19,0.01738
1271.04,0.01931
1247.9,0.02028
1224.75,0.01939
1201.61,0.01804
1178.46,0.01768
1155.32,0.01723
1132.17,0.01724
1109.03,0.01804
1085.88,0.01800
1062.74,0.01947
1039.59,0.01906
1016.45,0.01892
993.302,0.02067
970.157,0.02044
947.013,0.02041
923.868,0.01964
900.723,0.01910
877.578,0.01932
854.433,0.01923
831.288,0.01874
808.143,0.01890
784.998,0.01874
761.853,0.01775
738.708,0.01777
715.563,0.01765
692.419,0.01776
669.274,0.01717
646.129,0.01605
622.984,0.01727
599.839,0.01848

File: Engineered_Flooring_IS_T_220909_R3.dpt
7497.02,0.02322
7473.88,0.02667
7450.73,0.02524
7427.59,0.02573
7404.44,0.01846
7381.3,0.02576
7358.15,0.02383
7335.01,0.02781
7311.86,0.02880
7288.72,0.03291
7265.57,0.02218
7242.43,0.02946
7219.28,0.02569
7196.14,0.02551
7172.99,0.02702
7149.85,0.02787
7126.7,0.02184
7103.56,0.02216
7080.41,0.02840
7057.27,0.02351
7034.12,0.02535
7010.98,0.02715
6987.83,0.02309
6964.69,0.02948
6941.54,0.02658
6918.4,0.02775
6895.25,0.02639
6872.11,0.01954
6848.96,0.02081
6825.82,0.02961
6802.67,0.02241
6779.53,0.02171
6756.38,0.02346
6733.24,0.02712
6710.1,0.02407
6686.95,0.02394
6663.81,0.02767
6640.66,0.02481
6617.52,0.02550
6594.37,0.02216
6571.23,0.02456
6548.08,0.02272
6524.94,0.02335
6501.79,0.02315
6478.65,0.02167
6455.5,0.02175
6432.36,0.02398
6409.21,0.02065
6386.07,0.02088
6362.92,0.02236
6339.78,0.02115
6316.63,0.02195
6293.49,0.02183
6270.34,0.02461
6247.2,0.02512
6224.05,0.02233
6200.91,0.02183
6177.76,0.02179
6154.62,0.02160
6131.47,0.02189
6108.33,0.02420
6085.18,0.02194
6062.04,0.02226
6038.89,0.01923
6015.75,0.01877
5992.6,0.02368
5969.46,0.02522
5946.31,0.02056
5923.17,0.02263
5900.02,0.02250
5876.88,0.02180
5853.73,0.02308
5830.59,0.01934
5807.44,0.02241
5784.3,0.02299
5761.15,0.02343
5738.01,0.02195
5714.86,0.02322
5691.72,0.02026
5668.57,0.02244
5645.43,0.02330
5622.28,0.02522
5599.14,0.02178
5575.99,0.02132
5552.85,0.02172
5529.7,0.02251
5506.56,0.02026
5483.41,0.02307
5460.27,0.02213
5437.13,0.02138
5413.98,0.02210
5390.84,0.02271
5367.69,0.02216
5344.55,0.02365
5321.4,0.02350
5298.26,0.02340
5275.11,0.02231
5251.97,0.02238
5228.82,0.02180
5205.68,0.02129
5182.53,0.02371
5159.39,0.02231
5136.24,0.02303
5113.1,0.02283
5089.95,0.02177
5066.81,0.02278
5043.66,0.02238
5020.52,0.02238
4997.37,0.02227
4974.23,0.02198
4951.08,0.02250
4927.94,0.02065
4904.79,0.02273
4881.65,0.02259
4858.5,0.02303
4835.36,0.02257
4812.21,0.02212
4789.07,0.02256
4765.92,0.02270
4742.78,0.02226
4719.63,0.02343
4696.49,0.02302
4673.34,0.02359
4650.2,0.02255
4627.05,0.02295
4603.91,0.02241
4580.76,0.02171
4557.62,0.02292
4534.47,0.02327
4511.33,0.02289
4488.18,0.02227
4465.04,0.02272
4441.89,0.02288
4418.75,0.02261
4395.6,0.02304
4372.46,0.02248
4349.31,0.02263
4326.17,0.02344
4303.02,0.02252
4279.88,0.02259
4256.73,0.02358
4233.59,0.02353
4210.44,0.02293
4187.3,0.02241
4164.16,0.02295
4141.01,0.02321
4117.87,0.02235
4094.72,0.02268
4071.58,0.02286
4048.43,0.02209
4025.29,0.02240
4002.14,0.02302
3979,0.02230
3955.85,0.02291
3932.71,0.02283
3909.56,0.02267
3886.42,0.02294
3863.27,0.02283
3840.13,0.02301
3816.98,0.02270
3793.84,0.02285
3770.69,0.02313
3747.55,0.02308
3724.4,0.02296
3701.26,0.02274
3678.11,0.02316
3654.97,0.02225
3631.82,0.02230
3608.68,0.02256
3585.53,0.02179
3562.39,0.02098
3539.24,0.02091
3516.1,0.02099
3492.95,0.02105
3469.81,0.02047
3446.66,0.02099
3423.52,0.02010
3400.37,0.02094
3377.23,0.02022
3354.08,0.02016
3330.94,0.02099
3307.79,0.02051
3284.65,0.02020
3261.5,0.01993
3238.36,0.01973
3215.21,0.02077
3192.07,0.02085
3168.92,0.02113
3145.78,0.02127
3122.63,0.02144
3099.49,0.02060
3076.34,0.02059
3053.2,0.02050
3030.05,0.02071
3006.91,0.02072
2983.76,0.02028
2960.62,0.01939
2937.47,0.01983
2914.33,0.02096
2891.18,0.02100
2868.04,0.02080
2844.9,0.02146
2821.75,0.02168
2798.61,0.02125
2775.46,0.02166
2752.32,0.02158
2729.17,0.02140
2706.03,0.02149
2682.88,0.02145
2659.74,0.02158
2636.59,0.02196
2613.45,0.02107
2590.3,0.02141
2567.16,0.02104
2544.01,0.02107
2520.87,0.02133
2497.72,0.02130
2474.58,0.02130
2451.43,0.02166
2428.29,0.02127
2405.14,0.02182
2382,0.02131
2358.85,0.02135
2335.71,0.02145
2312.56,0.02147
2289.42,0.02138
2266.27,0.02116
2243.13,0.02121
2219.98,0.02137
2196.84,0.02093
2173.69,0.02118
2150.55,0.02105
2127.4,0.02106
2104.26,0.02092
2081.11,0.02099
2057.97,0.02096
2034.82,0.02081
2011.68,0.02080
1988.53,0.02133
1965.39,0.02052
1942.24,0.02089
1919.1,0.02032
1895.95,0.02104
1872.81,0.02086
1849.66,0.02060
1826.52,0.02009
1803.37,0.01976
1780.23,0.01899
1757.08,0.01788
1733.94,0.01988
1710.79,0.02058
1687.65,0.01938
1664.5,0.01817
1641.36,0.01875
1618.21,0.01916
1595.07,0.01896
1571.93,0.01839
1548.78,0.01855
1525.64,0.01871
1502.49,0.01861
1479.35,0.01858
1456.2,0.01901
1433.06,0.01889
1409.91,0.01848
1386.77,0.01826
1363.62,0.01844
1340.48,0.01793
1317.33,0.01726
1294.19,0.01794
1271.04,0.01965
1247.9,0.02006
1224.75,0.01946
1201.61,0.01839
1178.46,0.01807
1155.32,0.01755
1132.17,0.01821
1109.03,0.01904
1085.88,0.01742
1062.74,0.01957
1039.59,0.01968
1016.45,0.01899
993.302,0.02109
970.157,0.02033
947.013,0.02013
923.868,0.01962
900.723,0.01944
877.578,0.01827
854.433,0.01941
831.288,0.01965
808.143,0.01873
784.998,0.01877
761.853,0.01853
738.708,0.01796
715.563,0.01779
692.419,0.01863
669.274,0.01731
646.129,0.01581
622.984,0.01572
599.839,0.01434

File: Engineered_Flooring_IS_T_220909_R4.dpt
7497.02,0.01794
7473.88,0.01520
7450.73,0.02456
7427.59,0.03232
7404.44,0.03046
7381.3,0.02070
7358.15,0.02475
7335.01,0.01991
7311.86,0.02256
7288.72,0.03009
7265.57,0.02796
7242.43,0.02805
7219.28,0.02395
7196.14,0.02951
7172.99,0.01976
7149.85,0.02023
7126.7,0.02300
7103.56,0.02531
7080.41,0.02906
7057.27,0.01622
7034.12,0.02157
7010.98,0.02717
6987.83,0.02554
6964.69,0.02239
6941.54,0.02594
6918.4,0.01944
6895.25,0.02385
6872.11,0.02076
6848.96,0.02649
6825.82,0.02221
6802.67,0.02351
6779.53,0.02608
6756.38,0.02984
6733.24,0.02386
6710.1,0.02451
6686.95,0.02373
6663.81,0.02263
6640.66,0.02593
6617.52,0.02320
6594.37,0.02545
6571.23,0.02739
6548.08,0.02146
6524.94,0.02379
6501.79,0.02592
6478.65,0.02292
6455.5,0.02684
6432.36,0.02128
6409.21,0.02332
6386.07,0.02107
6362.92,0.01975
6339.78,0.01901
6316.63,0.02483
6293.49,0.02141
6270.34,0.02177
6247.2,0.02059
6224.05,0.02101
6200.91,0.02109
6177.76,0.02332
6154.62,0.02207
6131.47,0.02349
6108.33,0.02221
6085.18,0.02194
6062.04,0.02323
6038.89,0.02329
6015.75,0.02116
5992.6,0.02026
5969.46,0.02208
5946.31,0.02157
5923.17,0.02411
5900.02,0.02226
5876.88,0.02125
5853.73,0.02002
5830.59,0.02207
5807.44,0.02182
5784.3,0.02368
5761.15,0.02275
5738.01,0.02247
5714.86,0.02473
5691.72,0.02284
5668.57,0.02385
5645.43,0.02146
5622.28,0.02368
5599.14,0.02217
5575.99,0.02275
5552.85,0.02370
5529.7,0.02389
5506.56,0.02076
5483.41,0.02183
5460.27,0.02338
5437.13,0.02404
5413.98,0.02403
5390.84,0.02128
5367.69,0.02114
5344.55,0.02206
5321.4,0.02277
5298.26,0.02207
5275.11,0.02267
5251.97,0.02343
5228.82,0.02282
5205.68,0.02292
5182.53,0.02417
5159.39,0.02168
5136.24,0.02289
5113.1,0.02249
5089.95,0.02351
5066.81,0.02259
5043.66,0.02317
5020.52,0.02299
4997.37,0.02247
4974.23,0.02312
4951.08,0.02372
4927.94,0.02204
4904.79,0.02311
4881.65,0.02263
4858.5,0.02267
4835.36,0.02319
4812.21,0.02261
4789.07,0.02342
4765.92,0.02232
4742.78,0.02285
4719.63,0.02282
4696.49,0.02339
4673.34,0.02272
4650.2,0.02373
4627.05,0.02285
4603.91,0.02227
4580.76,0.02241
4557.62,0.02288
4534.47,0.02298
4511.33,0.02307
4488.18,0.02405
4465.04,0.02384
4441.89,0.02250
4418.75,0.02285
4395.6,0.02369
4372.46,0.02328
4349.31,0.02228
4326.17,0.02375
4303.02,0.02275
4279.88,0.02326
4256.73,0.02232
4233.59,0.02301
4210.44,0.02299
4187.3,0.02351
4164.16,0.02311
4141.01,0.02327
4117.87,0.02311
4094.72,0.02374
4071.58,0.02334
4048.43,0.02290
4025.29,0.02327
4002.14,0.02305
3979,0.02274
3955.85,0.02308
3932.71,0.02363
3909.56,0.02293
3886.42,0.02291
3863.27,0.02298
3840.13,0.02313
3816.98,0.02278
3793.84,0.02311
3770.69,0.02365
3747.55,0.02238
3724.4,0.02270
3701.26,0.02257
3678.11,0.02231
3654.97,0.02183
3631.82,0.02280
3608.68,0.02161
3585.53,0.02201
3562.39,0.02245
3539.24,0.02203
3516.1,0.02081
3492.95,0.02128
3469.81,0.02109
3446.66,0.02094
3423.52,0.02140
3400.37,0.02114
3377.23,0.02045
3354.08,0.02073
3330.94,0.02066
3307.79,0.02138
3284.65,0.02061
3261.5,0.02082
3238.36,0.02107
3215.21,0.02119
3192.07,0.02129
3168.92,0.02171
3145.78,0.02215
3122.63,0.02122
3099.49,0.02114
3076.34,0.02104
3053.2,0.02092
3030.05,0.02088
3006.91,0.02061
2983.76,0.02030
2960.62,0.02036
2937.47,0.02024
2914.33,0.02055
2891.18,0.02073
2868.04,0.02101
2844.9,0.02138
2821.75,0.02204
2798.61,0.02165
2775.46,0.02196
2752.32,0.02161
2729.17,0.02165
2706.03,0.02201
2682.88,0.02184
2659.74,0.02197
2636.59,0.02195
2613.45,0.02193
2590.3,0.02179
2567.16,0.02150
2544.01,0.02186
2520.87,0.02136
2497.72,0.02152
2474.58,0.02185
2451.43,0.02153
2428.29,0.02157
2405.14,0.02161
2382,0.02169
2358.85,0.02165
2335.71,0.02184
2312.56,0.02181
2289.42,0.02132
2266.27,0.02155
2243.13,0.02164
2219.98,0.02129
2196.84,0.02198
2173.69,0.02172
2150.55,0.02135
2127.4,0.02144
2104.26,0.02180
2081.11,0.02126
2057.97,0.02125
2034.82,0.02156
2011.68,0.02124
1988.53,0.02147
1965.39,0.02130
1942.24,0.02165
1919.1,0.02099
1895.95,0.02099
1872.81,0.02103
1849.66,0.02050
1826.52,0.02079
1803.37,0.02014
1780.23,0.01950
1757.08,0.01819
1733.94,0.01993
1710.79,0.02076
1687.65,0.01966
1664.5,0.01892
1641.36,0.01900
1618.21,0.01946
1595.07,0.01932
1571.93,0.01833
1548.78,0.01868
1525.64,0.01885
1502.49,0.01900
1479.35,0.01913
1456.2,0.01915
1433.06,0.01898
1409.91,0.01857
1386.77,0.01846
1363.62,0.01879
1340.48,0.01849
1317.33,0.01755
1294.19,0.01797
1271.04,0.01972
1247.9,0.02075
1224.75,0.01968
1201.61,0.01898
1178.46,0.01809
1155.32,0.01775
1132.17,0.01837
1109.03,0.01834
1085.88,0.01915
1062.74,0.02026
1039.59,0.02004
1016.45,0.01977
993.302,0.02134
970.157,0.02057
947.013,0.02091
923.868,0.01964
900.723,0.02020
877.578,0.01873
854.433,0.01987
831.288,0.01857
808.143,0.01952
784.998,0.01808
761.853,0.01913
738.708,0.01848
715.563,0.01826
692.419,0.01777
669.274,0.01835
646.129,0.01646
622.984,0.01507
599.839,0.01723