Folder: fsri_materials_database/01_Data/Engineered_Flooring/FTIR/IS

Note: 01_Data/README.md
# Materials and Products Database
## 01_Data

Raw data generated from each apparatus are included here in plain-text format. The data is organized first by material, next by the short name of test apparatus used, and where applicable additional filtering by test settings.

### material.json

Each material directory contains a json file of the same name as the material. This file links the data stored in the repository as well as data and graphs produced by the accompanying scripts (__02_Scripts__) to the respective landing page for the material on the front-end website.

File: Engineered_Flooring_IS_S_220909_R1.dpt
7497.02,0.36453
7473.88,0.36896
7450.73,0.37692
7427.59,0.37350
7404.44,0.37442
7381.3,0.36406
7358.15,0.36207
7335.01,0.36490
7311.86,0.36039
7288.72,0.36519
7265.57,0.36255
7242.43,0.35666
7219.28,0.36064
7196.14,0.35248
7172.99,0.35758
7149.85,0.34887
7126.7,0.33708
7103.56,0.33698
7080.41,0.32752
7057.27,0.32393
7034.12,0.31399
7010.98,0.31317
6987.83,0.30817
6964.69,0.30013
6941.54,0.30324
6918.4,0.30688
6895.25,0.30121
6872.11,0.30059
6848.96,0.30242
6825.82,0.30673
6802.67,0.30642
6779.53,0.29952
6756.38,0.30656
6733.24,0.30321
6710.1,0.31204
6686.95,0.30628
6663.81,0.31347
6640.66,0.31705
6617.52,0.31878
6594.37,0.31704
6571.23,0.32177
6548.08,0.32652
6524.94,0.32208
6501.79,0.32905
6478.65,0.32627
6455.5,0.33093
6432.36,0.33008
6409.21,0.33202
6386.07,0.33045
6362.92,0.33242
6339.78,0.33606
6316.63,0.33843
6293.49,0.33771
6270.34,0.34233
6247.2,0.34233
6224.05,0.34463
6200.91,0.34601
6177.76,0.34875
6154.62,0.34946
6131.47,0.35223
6108.33,0.35498
6085.18,0.35017
6062.04,0.34964
6038.89,0.34555
6015.75,0.34363
5992.6,0.33259
5969.46,0.32896
5946.31,0.32357
5923.17,0.32498
5900.02,0.32030
5876.88,0.32085
5853.73,0.31987
5830.59,0.31548
5807.44,0.31306
5784.3,0.31500
5761.15,0.31879
5738.01,0.32255
5714.86,0.32703
5691.72,0.32921
5668.57,0.33116
5645.43,0.33303
5622.28,0.33353
5599.14,0.33303
5575.99,0.33447
5552.85,0.33831
5529.7,0.34003
5506.56,0.34307
5483.41,0.34450
5460.27,0.34512
5437.13,0.34868
5413.98,0.35167
5390.84,0.35299
5367.69,0.35344
5344.55,0.35303
5321.4,0.34497
5298.26,0.32982
5275.11,0.30506
5251.97,0.27475
5228.82,0.25562
5205.68,0.24987
5182.53,0.25149
5159.39,0.25676
5136.24,0.26502
5113.1,0.27417
5089.95,0.28138
5066.81,0.28898
5043.66,0.29527
5020.52,0.30169
4997.37,0.30401
4974.23,0.30245
4951.08,0.29733
4927.94,0.28699
4904.79,0.27879
4881.65,0.27351
4858.5,0.26770
4835.36,0.26169
4812.21,0.25624
4789.07,0.25477
4765.92,0.25158
4742.78,0.24792
4719.63,0.24509
4696.49,0.24240
4673.34,0.24090
4650.2,0.24849
4627.05,0.25163
4603.91,0.25899
4580.76,0.26496
4557.62,0.26798
4534.47,0.27065
4511.33,0.26692
4488.18,0.25552
4465.04,0.23214
4441.89,0.19635
4418.75,0.17363
4395.6,0.17181
4372.46,0.16949
4349.31,0.16638
4326.17,0.16568
4303.02,0.17159
4279.88,0.17129
4256.73,0.17393
4233.59,0.17899
4210.44,0.18186
4187.3,0.18304
4164.16,0.18218
4141.01,0.18007
4117.87,0.17575
4094.72,0.16786
4071.58,0.15589
4048.43,0.14969
4025.29,0.14694
4002.14,0.14726
3979,0.15269
3955.85,0.16055
3932.71,0.16724
3909.56,0.17451
3886.42,0.17971
3863.27,0.18629
3840.13,0.19283
3816.98,0.19393
3793.84,0.19362
3770.69,0.19141
3747.55,0.18637
3724.4,0.17511
3701.26,0.15197
3678.11,0.09875
3654.97,0.07043
3631.82,0.05749
3608.68,0.05260
3585.53,0.04939
3562.39,0.04852
3539.24,0.04695
3516.1,0.04695
3492.95,0.04611
3469.81,0.04691
3446.66,0.04741
3423.52,0.04743
3400.37,0.04702
3377.23,0.04682
3354.08,0.04775
3330.94,0.04806
3307.79,0.04750
3284.65,0.04752
3261.5,0.04859
3238.36,0.04913
3215.21,0.04994
3192.07,0.05001
3168.92,0.05033
3145.78,0.05185
3122.63,0.05246
3099.49,0.05320
3076.34,0.05181
3053.2,0.05232
3030.05,0.05196
3006.91,0.04940
2983.76,0.04613
2960.62,0.04747
2937.47,0.04795
2914.33,0.05030
2891.18,0.04927
2868.04,0.04982
2844.9,0.05182
2821.75,0.05472
2798.61,0.05803
2775.46,0.06114
2752.32,0.06260
2729.17,0.06480
2706.03,0.06868
2682.88,0.07247
2659.74,0.07474
2636.59,0.07735
2613.45,0.08029
2590.3,0.08225
2567.16,0.08366
2544.01,0.08599
2520.87,0.08877
2497.72,0.09197
2474.58,0.09570
2451.43,0.09914
2428.29,0.10198
2405.14,0.10551
2382,0.10771
2358.85,0.10994
2335.71,0.11197
2312.56,0.11416
2289.42,0.11557
2266.27,0.11705
2243.13,0.11561
2219.98,0.11569
2196.84,0.11421
2173.69,0.10869
2150.55,0.10292
2127.4,0.09966
2104.26,0.09801
2081.11,0.09770
2057.97,0.09770
2034.82,0.09856
2011.68,0.10018
1988.53,0.10252
1965.39,0.10199
1942.24,0.10318
1919.1,0.10605
1895.95,0.10554
1872.81,0.10286
1849.66,0.09482
1826.52,0.08087
1803.37,0.06378
1780.23,0.04467
1757.08,0.02987
1733.94,0.05125
1710.79,0.06347
1687.65,0.05586
1664.5,0.05242
1641.36,0.05079
1618.21,0.05022
1595.07,0.05042
1571.93,0.05143
1548.78,0.04894
1525.64,0.04736
1502.49,0.04658
1479.35,0.04263
1456.2,0.04270
1433.06,0.04494
1409.91,0.04322
1386.77,0.04237
1363.62,0.04325
1340.48,0.04136
1317.33,0.03876
1294.19,0.03863
1271.04,0.03936
1247.9,0.04263
1224.75,0.04386
1201.61,0.04445
1178.46,0.04835
1155.32,0.05479
1132.17,0.05640
1109.03,0.05822
1085.88,0.05967
1062.74,0.06330
1039.59,0.06786
1016.45,0.06961
993.302,0.06876
970.157,0.06870
947.013,0.06711
923.868,0.06583
900.723,0.06453
877.578,0.06536
854.433,0.06287
831.288,0.05961
808.143,0.06225
784.998,0.06177
761.853,0.05999
738.708,0.06040
715.563,0.06174
692.419,0.06626
669.274,0.06749
646.129,0.05803
622.984,0.05519
599.839,0.05808

File: Engineered_Flooring_IS_S_220909_R2.dpt
7497.02,0.37411
7473.88,0.37836
7450.73,0.37608
7427.59,0.37262
7404.44,0.37768
7381.3,0.36721
7358.15,0.36762
7335.01,0.36613
7311.86,0.36269
7288.72,0.35508
7265.57,0.35696
7242.43,0.36584
7219.28,0.36075
7196.14,0.35470
7172.99,0.35343
7149.85,0.34410
7126.7,0.33879
7103.56,0.34074
7080.41,0.33078
7057.27,0.32637
7034.12,0.32627
7010.98,0.31332
6987.83,0.31141
6964.69,0.30526
6941.54,0.29953
6918.4,0.30531
6895.25,0.30108
6872.11,0.30855
6848.96,0.30617
6825.82,0.30444
6802.67,0.29997
6779.53,0.30459
6756.38,0.30441
6733.24,0.30587
6710.1,0.31233
6686.95,0.30917
6663.81,0.31325
6640.66,0.31457
6617.52,0.31453
6594.37,0.32048
6571.23,0.32594
6548.08,0.32634
6524.94,0.32805
6501.79,0.32806
6478.65,0.32927
6455.5,0.33149
6432.36,0.32934
6409.21,0.33681
6386.07,0.33268
6362.92,0.33399
6339.78,0.33742
6316.63,0.33872
6293.49,0.33783
6270.34,0.34168
6247.2,0.34617
6224.05,0.34678
6200.91,0.34805
6177.76,0.35048
6154.62,0.35246
6131.47,0.35414
6108.33,0.35395
6085.18,0.35403
6062.04,0.35154
6038.89,0.35004
6015.75,0.34083
5992.6,0.33556
5969.46,0.33027
5946.31,0.32613
5923.17,0.32364
5900.02,0.32157
5876.88,0.32113
5853.73,0.32322
5830.59,0.31777
5807.44,0.31635
5784.3,0.31591
5761.15,0.32006
5738.01,0.32522
5714.86,0.32853
5691.72,0.33143
5668.57,0.33229
5645.43,0.33397
5622.28,0.33579
5599.14,0.33687
5575.99,0.33655
5552.85,0.34051
5529.7,0.34077
5506.56,0.34526
5483.41,0.34580
5460.27,0.34865
5437.13,0.35034
5413.98,0.35373
5390.84,0.35438
5367.69,0.35480
5344.55,0.35079
5321.4,0.34535
5298.26,0.33216
5275.11,0.30636
5251.97,0.27769
5228.82,0.25847
5205.68,0.25160
5182.53,0.25355
5159.39,0.26167
5136.24,0.26765
5113.1,0.27578
5089.95,0.28355
5066.81,0.29124
5043.66,0.29934
5020.52,0.30296
4997.37,0.30622
4974.23,0.30379
4951.08,0.29917
4927.94,0.29080
4904.79,0.28085
4881.65,0.27420
4858.5,0.27018
4835.36,0.26240
4812.21,0.25808
4789.07,0.25581
4765.92,0.25238
4742.78,0.24836
4719.63,0.24620
4696.49,0.24342
4673.34,0.24179
4650.2,0.24944
4627.05,0.25301
4603.91,0.26071
4580.76,0.26674
4557.62,0.27030
4534.47,0.27052
4511.33,0.26812
4488.18,0.25690
4465.04,0.23373
4441.89,0.19873
4418.75,0.17446
4395.6,0.17302
4372.46,0.16956
4349.31,0.16714
4326.17,0.16643
4303.02,0.17236
4279.88,0.17184
4256.73,0.17569
4233.59,0.17922
4210.44,0.18313
4187.3,0.18389
4164.16,0.18359
4141.01,0.18052
4117.87,0.17567
4094.72,0.16937
4071.58,0.15780
4048.43,0.14997
4025.29,0.14817
4002.14,0.14808
3979,0.15388
3955.85,0.16132
3932.71,0.16853
3909.56,0.17590
3886.42,0.18184
3863.27,0.18736
3840.13,0.19450
3816.98,0.19602
3793.84,0.19586
3770.69,0.19342
3747.55,0.18851
3724.4,0.17662
3701.26,0.15379
3678.11,0.10131
3654.97,0.07294
3631.82,0.05875
3608.68,0.05255
3585.53,0.05036
3562.39,0.04896
3539.24,0.04758
3516.1,0.04725
3492.95,0.04752
3469.81,0.04746
3446.66,0.04760
3423.52,0.04714
3400.37,0.04770
3377.23,0.04751
3354.08,0.04731
3330.94,0.04850
3307.79,0.04849
3284.65,0.04808
3261.5,0.04866
3238.36,0.04943
3215.21,0.04994
3192.07,0.05085
3168.92,0.05129
3145.78,0.05226
3122.63,0.05269
3099.49,0.05294
3076.34,0.05268
3053.2,0.05340
3030.05,0.05275
3006.91,0.04908
2983.76,0.04626
2960.62,0.04724
2937.47,0.04749
2914.33,0.05057
2891.18,0.04925
2868.04,0.05051
2844.9,0.05184
2821.75,0.05498
2798.61,0.05858
2775.46,0.06151
2752.32,0.06315
2729.17,0.06503
2706.03,0.06887
2682.88,0.07279
2659.74,0.07508
2636.59,0.07785
2613.45,0.08029
2590.3,0.08234
2567.16,0.08477
2544.01,0.08631
2520.87,0.08932
2497.72,0.09257
2474.58,0.09609
2451.43,0.09948
2428.29,0.10240
2405.14,0.10616
2382,0.10860
2358.85,0.11079
2335.71,0.11306
2312.56,0.11483
2289.42,0.11681
2266.27,0.11722
2243.13,0.11605
2219.98,0.11673
2196.84,0.11513
2173.69,0.10914
2150.55,0.10385
2127.4,0.10083
2104.26,0.09911
2081.11,0.09855
2057.97,0.09878
2034.82,0.09939
2011.68,0.10098
1988.53,0.10339
1965.39,0.10267
1942.24,0.10424
1919.1,0.10684
1895.95,0.10635
1872.81,0.10371
1849.66,0.09542
1826.52,0.08138
1803.37,0.06421
1780.23,0.04519
1757.08,0.02979
1733.94,0.05118
1710.79,0.06368
1687.65,0.05655
1664.5,0.05290
1641.36,0.05070
1618.21,0.05054
1595.07,0.05064
1571.93,0.05194
1548.78,0.04907
1525.64,0.04776
1502.49,0.04630
1479.35,0.04252
1456.2,0.04258
1433.06,0.04478
1409.91,0.04356
1386.77,0.04252
1363.62,0.04358
1340.48,0.04155
1317.33,0.03951
1294.19,0.03885
1271.04,0.03981
1247.9,0.04250
1224.75,0.04386
1201.61,0.04491
1178.46,0.04830
1155.32,0.05610
1132.17,0.05608
1109.03,0.05801
1085.88,0.05975
1062.74,0.06379
1039.59,0.06726
1016.45,0.06926
993.302,0.06879
970.157,0.06900
947.013,0.06782
923.868,0.06604
900.723,0.06413
877.578,0.06578
854.433,0.06284
831.288,0.06084
808.143,0.06208
784.998,0.06188
761.853,0.06051
738.708,0.06018
715.563,0.06193
692.419,0.06669
669.274,0.06877
646.129,0.05844
622.984,0.05541
599.839,0.05688

File: Engineered_Flooring_IS_S_220909_R4.dpt
7497.02,0.36891
7473.88,0.36813
7450.73,0.38711
7427.59,0.37609
7404.44,0.36709
7381.3,0.36954
7358.15,0.36536
7335.01,0.36591
7311.86,0.36457
7288.72,0.35791
7265.57,0.35855
7242.43,0.35475
7219.28,0.35567
7196.14,0.36008
7172.99,0.35067
7149.85,0.35280
7126.7,0.34218
7103.56,0.33661
7080.41,0.33611
7057.27,0.32927
7034.12,0.31905
7010.98,0.31269
6987.83,0.30481
6964.69,0.30623
6941.54,0.30789
6918.4,0.30673
6895.25,0.30309
6872.11,0.30352
6848.96,0.30430
6825.82,0.30660
6802.67,0.30055
6779.53,0.30044
6756.38,0.30706
6733.24,0.30721
6710.1,0.31039
6686.95,0.30861
6663.81,0.31274
6640.66,0.31305
6617.52,0.31726
6594.37,0.32119
6571.23,0.32207
6548.08,0.32089
6524.94,0.32520
6501.79,0.33052
6478.65,0.32779
6455.5,0.33147
6432.36,0.33322
6409.21,0.33147
6386.07,0.33565
6362.92,0.33091
6339.78,0.33723
6316.63,0.33827
6293.49,0.34064
6270.34,0.34140
6247.2,0.34397
6224.05,0.34474
6200.91,0.34910
6177.76,0.34555
6154.62,0.35223
6131.47,0.35320
6108.33,0.34910
6085.18,0.35403
6062.04,0.35372
6038.89,0.34774
6015.75,0.34090
5992.6,0.33448
5969.46,0.32768
5946.31,0.32531
5923.17,0.32406
5900.02,0.32038
5876.88,0.31883
5853.73,0.32314
5830.59,0.31917
5807.44,0.31542
5784.3,0.31380
5761.15,0.32226
5738.01,0.32435
5714.86,0.32734
5691.72,0.32963
5668.57,0.33049
5645.43,0.33259
5622.28,0.33412
5599.14,0.33662
5575.99,0.33779
5552.85,0.33914
5529.7,0.34316
5506.56,0.34375
5483.41,0.34668
5460.27,0.34714
5437.13,0.35083
5413.98,0.35346
5390.84,0.35637
5367.69,0.35538
5344.55,0.35271
5321.4,0.34530
5298.26,0.33319
5275.11,0.30761
5251.97,0.27734
5228.82,0.25925
5205.68,0.25487
5182.53,0.25439
5159.39,0.26247
5136.24,0.26896
5113.1,0.27623
5089.95,0.28583
5066.81,0.29236
5043.66,0.29832
5020.52,0.30363
4997.37,0.30661
4974.23,0.30477
4951.08,0.30025
4927.94,0.28936
4904.79,0.28189
4881.65,0.27466
4858.5,0.26896
4835.36,0.26314
4812.21,0.25779
4789.07,0.25509
4765.92,0.25270
4742.78,0.24838
4719.63,0.24755
4696.49,0.24469
4673.34,0.24310
4650.2,0.24942
4627.05,0.25283
4603.91,0.26026
4580.76,0.26689
4557.62,0.27054
4534.47,0.27233
4511.33,0.26784
4488.18,0.25725
4465.04,0.23334
4441.89,0.19706
4418.75,0.17433
4395.6,0.17335
4372.46,0.17028
4349.31,0.16627
4326.17,0.16671
4303.02,0.17188
4279.88,0.17215
4256.73,0.17482
4233.59,0.17915
4210.44,0.18277
4187.3,0.18323
4164.16,0.18348
4141.01,0.18150
4117.87,0.17595
4094.72,0.16967
4071.58,0.15768
4048.43,0.15049
4025.29,0.14875
4002.14,0.14961
3979,0.15427
3955.85,0.16111
3932.71,0.16857
3909.56,0.17595
3886.42,0.18159
3863.27,0.18767
3840.13,0.19444
3816.98,0.19639
3793.84,0.19552
3770.69,0.19391
3747.55,0.18888
3724.4,0.17754
3701.26,0.15504
3678.11,0.10235
3654.97,0.07372
3631.82,0.05955
3608.68,0.05324
3585.53,0.04982
3562.39,0.04775
3539.24,0.04778
3516.1,0.04730
3492.95,0.04721
3469.81,0.04719
3446.66,0.04693
3423.52,0.04775
3400.37,0.04685
3377.23,0.04682
3354.08,0.04761
3330.94,0.04726
3307.79,0.04787
3284.65,0.04838
3261.5,0.04860
3238.36,0.04962
3215.21,0.04996
3192.07,0.05039
3168.92,0.05100
3145.78,0.05249
3122.63,0.05298
3099.49,0.05263
3076.34,0.05270
3053.2,0.05320
3030.05,0.05258
3006.91,0.04876
2983.76,0.04618
2960.62,0.04742
2937.47,0.04840
2914.33,0.05047
2891.18,0.04988
2868.04,0.04948
2844.9,0.05230
2821.75,0.05537
2798.61,0.05843
2775.46,0.06179
2752.32,0.06321
2729.17,0.06545
2706.03,0.06902
2682.88,0.07295
2659.74,0.07491
2636.59,0.07825
2613.45,0.08097
2590.3,0.08247
2567.16,0.08475
2544.01,0.08612
2520.87,0.08955
2497.72,0.09309
2474.58,0.09628
2451.43,0.09964
2428.29,0.10278
2405.14,0.10627
2382,0.10889
2358.85,0.11079
2335.71,0.11310
2312.56,0.11469
2289.42,0.11697
2266.27,0.11776
2243.13,0.11631
2219.98,0.11659
2196.84,0.11517
2173.69,0.10984
2150.55,0.10408
2127.4,0.10105
2104.26,0.09947
2081.11,0.09937
2057.97,0.09852
2034.82,0.09952
2011.68,0.10069
1988.53,0.10321
1965.39,0.10316
1942.24,0.10424
1919.1,0.10741
1895.95,0.10697
1872.81,0.10372
1849.66,0.09563
1826.52,0.08119
1803.37,0.06385
1780.23,0.04507
1757.08,0.03007
1733.94,0.05127
1710.79,0.06356
1687.65,0.05633
1664.5,0.05305
1641.36,0.05085
1618.21,0.05060
1595.07,0.05033
1571.93,0.05187
1548.78,0.04879
1525.64,0.04731
1502.49,0.04629
1479.35,0.04297
1456.2,0.04273
1433.06,0.04485
1409.91,0.04303
1386.77,0.04309
1363.62,0.04324
1340.48,0.04160
1317.33,0.03924
1294.19,0.03883
1271.04,0.03950
1247.9,0.04249
1224.75,0.04360
1201.61,0.04527
1178.46,0.04861
1155.32,0.05539
1132.17,0.05649
1109.03,0.05900
1085.88,0.06002
1062.74,0.06369
1039.59,0.06755
1016.45,0.06940
993.302,0.06865
970.157,0.06915
947.013,0.06717
923.868,0.06604
900.723,0.06534
877.578,0.06583
854.433,0.06315
831.288,0.05958
808.143,0.06231
784.998,0.06190
761.853,0.06052
738.708,0.06111
715.563,0.06210
692.419,0.06533
669.274,0.06737
646.129,0.06050
622.984,0.05425
599.839,0.05844

File: Engineered_Flooring_IS_S_220909_R5.dpt
7497.02,0.37535
7473.88,0.37963
7450.73,0.37860
7427.59,0.36782
7404.44,0.36790
7381.3,0.36694
7358.15,0.36794
7335.01,0.35515
7311.86,0.36738
7288.72,0.35823
7265.57,0.35785
7242.43,0.36009
7219.28,0.35712
7196.14,0.35647
7172.99,0.35041
7149.85,0.34530
7126.7,0.34046
7103.56,0.33602
7080.41,0.32894
7057.27,0.32747
7034.12,0.31727
7010.98,0.31283
6987.83,0.31278
6964.69,0.30836
6941.54,0.30472
6918.4,0.30547
6895.25,0.30152
6872.11,0.30299
6848.96,0.30721
6825.82,0.30606
6802.67,0.30792
6779.53,0.30170
6756.38,0.30889
6733.24,0.31312
6710.1,0.30527
6686.95,0.31064
6663.81,0.31346
6640.66,0.31643
6617.52,0.31991
6594.37,0.32181
6571.23,0.32375
6548.08,0.32563
6524.94,0.32601
6501.79,0.32779
6478.65,0.32779
6455.5,0.32913
6432.36,0.32951
6409.21,0.33210
6386.07,0.33536
6362.92,0.33357
6339.78,0.33725
6316.63,0.33565
6293.49,0.33619
6270.34,0.33850
6247.2,0.34233
6224.05,0.34841
6200.91,0.34668
6177.76,0.34851
6154.62,0.34859
6131.47,0.35449
6108.33,0.35334
6085.18,0.35398
6062.04,0.34984
6038.89,0.34800
6015.75,0.34135
5992.6,0.33468
5969.46,0.32821
5946.31,0.32878
5923.17,0.32485
5900.02,0.32058
5876.88,0.32087
5853.73,0.32193
5830.59,0.31780
5807.44,0.31277
5784.3,0.31500
5761.15,0.31915
5738.01,0.32350
5714.86,0.32786
5691.72,0.33107
5668.57,0.33035
5645.43,0.33187
5622.28,0.33390
5599.14,0.33699
5575.99,0.33500
5552.85,0.33851
5529.7,0.34132
5506.56,0.34293
5483.41,0.34347
5460.27,0.34774
5437.13,0.35027
5413.98,0.35262
5390.84,0.35501
5367.69,0.35193
5344.55,0.35155
5321.4,0.34614
5298.26,0.33194
5275.11,0.30568
5251.97,0.27845
5228.82,0.25846
5205.68,0.25421
5182.53,0.25583
5159.39,0.26020
5136.24,0.26706
5113.1,0.27635
5089.95,0.28381
5066.81,0.29033
5043.66,0.29676
5020.52,0.30359
4997.37,0.30621
4974.23,0.30443
4951.08,0.29880
4927.94,0.28821
4904.79,0.28007
4881.65,0.27308
4858.5,0.26855
4835.36,0.26174
4812.21,0.25826
4789.07,0.25460
4765.92,0.25220
4742.78,0.24796
4719.63,0.24594
4696.49,0.24308
4673.34,0.24118
4650.2,0.24751
4627.05,0.25253
4603.91,0.25967
4580.76,0.26587
4557.62,0.26799
4534.47,0.27080
4511.33,0.26700
4488.18,0.25607
4465.04,0.23276
4441.89,0.19741
4418.75,0.17436
4395.6,0.17296
4372.46,0.16973
4349.31,0.16618
4326.17,0.16585
4303.02,0.17177
4279.88,0.17154
4256.73,0.17474
4233.59,0.17877
4210.44,0.18293
4187.3,0.18330
4164.16,0.18324
4141.01,0.18110
4117.87,0.17534
4094.72,0.16900
4071.58,0.15676
4048.43,0.15013
4025.29,0.14744
4002.14,0.14905
3979,0.15406
3955.85,0.16109
3932.71,0.16862
3909.56,0.17573
3886.42,0.18143
3863.27,0.18747
3840.13,0.19444
3816.98,0.19602
3793.84,0.19511
3770.69,0.19317
3747.55,0.18816
3724.4,0.17774
3701.26,0.15550
3678.11,0.10327
3654.97,0.07470
3631.82,0.05943
3608.68,0.05267
3585.53,0.05048
3562.39,0.04825
3539.24,0.04722
3516.1,0.04715
3492.95,0.04647
3469.81,0.04672
3446.66,0.04718
3423.52,0.04684
3400.37,0.04757
3377.23,0.04714
3354.08,0.04740
3330.94,0.04729
3307.79,0.04767
3284.65,0.04827
3261.5,0.04858
3238.36,0.04899
3215.21,0.04945
3192.07,0.04984
3168.92,0.05052
3145.78,0.05204
3122.63,0.05277
3099.49,0.05294
3076.34,0.05261
3053.2,0.05267
3030.05,0.05273
3006.91,0.04888
2983.76,0.04608
2960.62,0.04718
2937.47,0.04791
2914.33,0.05042
2891.18,0.04909
2868.04,0.04955
2844.9,0.05203
2821.75,0.05494
2798.61,0.05856
2775.46,0.06146
2752.32,0.06278
2729.17,0.06459
2706.03,0.06872
2682.88,0.07260
2659.74,0.07502
2636.59,0.07811
2613.45,0.08019
2590.3,0.08242
2567.16,0.08411
2544.01,0.08604
2520.87,0.08895
2497.72,0.09267
2474.58,0.09599
2451.43,0.09958
2428.29,0.10223
2405.14,0.10599
2382,0.10830
2358.85,0.11084
2335.71,0.11261
2312.56,0.11456
2289.42,0.11621
2266.27,0.11732
2243.13,0.11642
2219.98,0.11642
2196.84,0.11523
2173.69,0.10943
2150.55,0.10380
2127.4,0.10106
2104.26,0.09937
2081.11,0.09874
2057.97,0.09841
2034.82,0.09950
2011.68,0.10093
1988.53,0.10336
1965.39,0.10283
1942.24,0.10453
1919.1,0.10695
1895.95,0.10651
1872.81,0.10348
1849.66,0.09532
1826.52,0.08121
1803.37,0.06401
1780.23,0.04505
1757.08,0.02975
1733.94,0.05112
1710.79,0.06349
1687.65,0.05629
1664.5,0.05309
1641.36,0.05087
1618.21,0.05066
1595.07,0.05021
1571.93,0.05191
1548.78,0.04914
1525.64,0.04735
1502.49,0.04687
1479.35,0.04231
1456.2,0.04229
1433.06,0.04475
1409.91,0.04281
1386.77,0.04234
1363.62,0.04308
1340.48,0.04109
1317.33,0.03924
1294.19,0.03871
1271.04,0.03977
1247.9,0.04284
1224.75,0.04396
1201.61,0.04498
1178.46,0.04816
1155.32,0.05520
1132.17,0.05635
1109.03,0.05761
1085.88,0.05971
1062.74,0.06361
1039.59,0.06670
1016.45,0.06922
993.302,0.06808
970.157,0.06880
947.013,0.06770
923.868,0.06560
900.723,0.06518
877.578,0.06591
854.433,0.06281
831.288,0.06048
808.143,0.06304
784.998,0.06226
761.853,0.06028
738.708,0.05995
715.563,0.06254
692.419,0.06548
669.274,0.06684
646.129,0.05839
622.984,0.05611
599.839,0.05826

File: Engineered_Flooring_IS_S_220909_R6.dpt
7497.02,0.37701
7473.88,0.37706
7450.73,0.36973
7427.59,0.37311
7404.44,0.36717
7381.3,0.36907
7358.15,0.36431
7335.01,0.36055
7311.86,0.35805
7288.72,0.35272
7265.57,0.35751
7242.43,0.35469
7219.28,0.35581
7196.14,0.35304
7172.99,0.35514
7149.85,0.35116
7126.7,0.34641
7103.56,0.34230
7080.41,0.33399
7057.27,0.32682
7034.12,0.32053
7010.98,0.30959
6987.83,0.30444
6964.69,0.30582
6941.54,0.30610
6918.4,0.31048
6895.25,0.30115
6872.11,0.30279
6848.96,0.30017
6825.82,0.30513
6802.67,0.30258
6779.53,0.30701
6756.38,0.30558
6733.24,0.30764
6710.1,0.30778
6686.95,0.31000
6663.81,0.31231
6640.66,0.31363
6617.52,0.32029
6594.37,0.31916
6571.23,0.32342
6548.08,0.32829
6524.94,0.32347
6501.79,0.32564
6478.65,0.33610
6455.5,0.33217
6432.36,0.32933
6409.21,0.33056
6386.07,0.33419
6362.92,0.33294
6339.78,0.33458
6316.63,0.33780
6293.49,0.33487
6270.34,0.33792
6247.2,0.34274
6224.05,0.34542
6200.91,0.34885
6177.76,0.34620
6154.62,0.35054
6131.47,0.35281
6108.33,0.35423
6085.18,0.35127
6062.04,0.35069
6038.89,0.34569
6015.75,0.34167
5992.6,0.33563
5969.46,0.32785
5946.31,0.32511
5923.17,0.32100
5900.02,0.31951
5876.88,0.31989
5853.73,0.31999
5830.59,0.31660
5807.44,0.31340
5784.3,0.31654
5761.15,0.31957
5738.01,0.32366
5714.86,0.32920
5691.72,0.33025
5668.57,0.32933
5645.43,0.33139
5622.28,0.33520
5599.14,0.33479
5575.99,0.33589
5552.85,0.34014
5529.7,0.34218
5506.56,0.34165
5483.41,0.34331
5460.27,0.34755
5437.13,0.34900
5413.98,0.35155
5390.84,0.35353
5367.69,0.35247
5344.55,0.35212
5321.4,0.34568
5298.26,0.33227
5275.11,0.30706
5251.97,0.27736
5228.82,0.25945
5205.68,0.25384
5182.53,0.25485
5159.39,0.26095
5136.24,0.26906
5113.1,0.27750
5089.95,0.28479
5066.81,0.29120
5043.66,0.29823
5020.52,0.30304
4997.37,0.30699
4974.23,0.30501
4951.08,0.29831
4927.94,0.28812
4904.79,0.27984
4881.65,0.27418
4858.5,0.26940
4835.36,0.26233
4812.21,0.25762
4789.07,0.25533
4765.92,0.25229
4742.78,0.24817
4719.63,0.24521
4696.49,0.24294
4673.34,0.24171
4650.2,0.24894
4627.05,0.25262
4603.91,0.25956
4580.76,0.26542
4557.62,0.26885
4534.47,0.27084
4511.33,0.26764
4488.18,0.25575
4465.04,0.23336
4441.89,0.19712
4418.75,0.17353
4395.6,0.17300
4372.46,0.16999
4349.31,0.16616
4326.17,0.16649
4303.02,0.17147
4279.88,0.17150
4256.73,0.17471
4233.59,0.17941
4210.44,0.18324
4187.3,0.18280
4164.16,0.18304
4141.01,0.18048
4117.87,0.17642
4094.72,0.16891
4071.58,0.15754
4048.43,0.15083
4025.29,0.14795
4002.14,0.14926
3979,0.15383
3955.85,0.16162
3932.71,0.16904
3909.56,0.17596
3886.42,0.18123
3863.27,0.18754
3840.13,0.19461
3816.98,0.19584
3793.84,0.19565
3770.69,0.19366
3747.55,0.18977
3724.4,0.17804
3701.26,0.15547
3678.11,0.10340
3654.97,0.07496
3631.82,0.05975
3608.68,0.05314
3585.53,0.05014
3562.39,0.04800
3539.24,0.04773
3516.1,0.04664
3492.95,0.04744
3469.81,0.04703
3446.66,0.04703
3423.52,0.04725
3400.37,0.04721
3377.23,0.04690
3354.08,0.04742
3330.94,0.04757
3307.79,0.04760
3284.65,0.04701
3261.5,0.04819
3238.36,0.04933
3215.21,0.04986
3192.07,0.04956
3168.92,0.05081
3145.78,0.05166
3122.63,0.05282
3099.49,0.05248
3076.34,0.05246
3053.2,0.05284
3030.05,0.05253
3006.91,0.04850
2983.76,0.04630
2960.62,0.04690
2937.47,0.04785
2914.33,0.05046
2891.18,0.04922
2868.04,0.05000
2844.9,0.05179
2821.75,0.05473
2798.61,0.05835
2775.46,0.06122
2752.32,0.06284
2729.17,0.06501
2706.03,0.06894
2682.88,0.07250
2659.74,0.07503
2636.59,0.07787
2613.45,0.08038
2590.3,0.08270
2567.16,0.08429
2544.01,0.08636
2520.87,0.08871
2497.72,0.09272
2474.58,0.09618
2451.43,0.09965
2428.29,0.10214
2405.14,0.10655
2382,0.10836
2358.85,0.11071
2335.71,0.11276
2312.56,0.11460
2289.42,0.11669
2266.27,0.11761
2243.13,0.11687
2219.98,0.11667
2196.84,0.11533
2173.69,0.10982
2150.55,0.10434
2127.4,0.10064
2104.26,0.09945
2081.11,0.09910
2057.97,0.09896
2034.82,0.09974
2011.68,0.10141
1988.53,0.10350
1965.39,0.10314
1942.24,0.10388
1919.1,0.10709
1895.95,0.10665
1872.81,0.10378
1849.66,0.09534
1826.52,0.08130
1803.37,0.06430
1780.23,0.04473
1757.08,0.02977
1733.94,0.05087
1710.79,0.06351
1687.65,0.05634
1664.5,0.05279
1641.36,0.05096
1618.21,0.05035
1595.07,0.05022
1571.93,0.05153
1548.78,0.04883
1525.64,0.04742
1502.49,0.04646
1479.35,0.04256
1456.2,0.04245
1433.06,0.04497
1409.91,0.04307
1386.77,0.04270
1363.62,0.04341
1340.48,0.04145
1317.33,0.03952
1294.19,0.03907
1271.04,0.03983
1247.9,0.04306
1224.75,0.04331
1201.61,0.04495
1178.46,0.04853
1155.32,0.05510
1132.17,0.05638
1109.03,0.05821
1085.88,0.05971
1062.74,0.06379
1039.59,0.06757
1016.45,0.06987
993.302,0.06850
970.157,0.06906
947.013,0.06736
923.868,0.06563
900.723,0.06506
877.578,0.06541
854.433,0.06259
831.288,0.06011
808.143,0.06245
784.998,0.06188
761.853,0.06108
738.708,0.06073
715.563,0.06236
692.419,0.06549
669.274,0.06726
646.129,0.05981
622.984,0.05773
599.839,0.05739