Folder: fsri_materials_database/01_Data/Engineered_Flooring/FTIR/IS (part 3)

File: Engineered_Flooring_IS_T_220909_R5.dpt
7497.02,0.01480
7473.88,0.02386
7450.73,0.02488
7427.59,0.02929
7404.44,0.01475
7381.3,0.02209
7358.15,0.02438
7335.01,0.02542
7311.86,0.02181
7288.72,0.01520
7265.57,0.01382
7242.43,0.02900
7219.28,0.02150
7196.14,0.02452
7172.99,0.01948
7149.85,0.01923
7126.7,0.02270
7103.56,0.02264
7080.41,0.02340
7057.27,0.02987
7034.12,0.02715
7010.98,0.02320
6987.83,0.02056
6964.69,0.02017
6941.54,0.02819
6918.4,0.03051
6895.25,0.02384
6872.11,0.02460
6848.96,0.02347
6825.82,0.02139
6802.67,0.01937
6779.53,0.02124
6756.38,0.02743
6733.24,0.02362
6710.1,0.02390
6686.95,0.02206
6663.81,0.02093
6640.66,0.02235
6617.52,0.02236
6594.37,0.02522
6571.23,0.02533
6548.08,0.02040
6524.94,0.02784
6501.79,0.02064
6478.65,0.02556
6455.5,0.02486
6432.36,0.02348
6409.21,0.02299
6386.07,0.02241
6362.92,0.02085
6339.78,0.02152
6316.63,0.02355
6293.49,0.02435
6270.34,0.01794
6247.2,0.02094
6224.05,0.02314
6200.91,0.02431
6177.76,0.02012
6154.62,0.02242
6131.47,0.02494
6108.33,0.02275
6085.18,0.02159
6062.04,0.02131
6038.89,0.02235
6015.75,0.02180
5992.6,0.02094
5969.46,0.02314
5946.31,0.02396
5923.17,0.02275
5900.02,0.02189
5876.88,0.02143
5853.73,0.02355
5830.59,0.02299
5807.44,0.02178
5784.3,0.02303
5761.15,0.02254
5738.01,0.02346
5714.86,0.02331
5691.72,0.02051
5668.57,0.02129
5645.43,0.02192
5622.28,0.02353
5599.14,0.02492
5575.99,0.02160
5552.85,0.02291
5529.7,0.02482
5506.56,0.02126
5483.41,0.02245
5460.27,0.02407
5437.13,0.02305
5413.98,0.02437
5390.84,0.02223
5367.69,0.02213
5344.55,0.02368
5321.4,0.02113
5298.26,0.02140
5275.11,0.02268
5251.97,0.02154
5228.82,0.02221
5205.68,0.02281
5182.53,0.02193
5159.39,0.02211
5136.24,0.02387
5113.1,0.02233
5089.95,0.02139
5066.81,0.02235
5043.66,0.02265
5020.52,0.02224
4997.37,0.02265
4974.23,0.02152
4951.08,0.02227
4927.94,0.02281
4904.79,0.02209
4881.65,0.02240
4858.5,0.02201
4835.36,0.02317
4812.21,0.02199
4789.07,0.02382
4765.92,0.02235
4742.78,0.02313
4719.63,0.02289
4696.49,0.02201
4673.34,0.02322
4650.2,0.02270
4627.05,0.02300
4603.91,0.02271
4580.76,0.02282
4557.62,0.02278
4534.47,0.02299
4511.33,0.02138
4488.18,0.02245
4465.04,0.02241
4441.89,0.02221
4418.75,0.02215
4395.6,0.02237
4372.46,0.02289
4349.31,0.02320
4326.17,0.02309
4303.02,0.02277
4279.88,0.02266
4256.73,0.02210
4233.59,0.02327
4210.44,0.02281
4187.3,0.02250
4164.16,0.02236
4141.01,0.02280
4117.87,0.02338
4094.72,0.02258
4071.58,0.02276
4048.43,0.02249
4025.29,0.02252
4002.14,0.02312
3979,0.02217
3955.85,0.02323
3932.71,0.02266
3909.56,0.02268
3886.42,0.02265
3863.27,0.02308
3840.13,0.02241
3816.98,0.02232
3793.84,0.02258
3770.69,0.02275
3747.55,0.02302
3724.4,0.02289
3701.26,0.02245
3678.11,0.02300
3654.97,0.02276
3631.82,0.02241
3608.68,0.02196
3585.53,0.02201
3562.39,0.02149
3539.24,0.02139
3516.1,0.02141
3492.95,0.02094
3469.81,0.02073
3446.66,0.02081
3423.52,0.02003
3400.37,0.02042
3377.23,0.02045
3354.08,0.01994
3330.94,0.02132
3307.79,0.02054
3284.65,0.02040
3261.5,0.02017
3238.36,0.02069
3215.21,0.02043
3192.07,0.02084
3168.92,0.02091
3145.78,0.02061
3122.63,0.02138
3099.49,0.02129
3076.34,0.02079
3053.2,0.02049
3030.05,0.02059
3006.91,0.02062
2983.76,0.01981
2960.62,0.01946
2937.47,0.01971
2914.33,0.01997
2891.18,0.02049
2868.04,0.02072
2844.9,0.02099
2821.75,0.02121
2798.61,0.02155
2775.46,0.02136
2752.32,0.02159
2729.17,0.02143
2706.03,0.02125
2682.88,0.02185
2659.74,0.02129
2636.59,0.02175
2613.45,0.02150
2590.3,0.02139
2567.16,0.02170
2544.01,0.02153
2520.87,0.02130
2497.72,0.02132
2474.58,0.02149
2451.43,0.02108
2428.29,0.02123
2405.14,0.02141
2382,0.02154
2358.85,0.02130
2335.71,0.02171
2312.56,0.02101
2289.42,0.02146
2266.27,0.02089
2243.13,0.02110
2219.98,0.02103
2196.84,0.02127
2173.69,0.02090
2150.55,0.02142
2127.4,0.02103
2104.26,0.02124
2081.11,0.02110
2057.97,0.02119
2034.82,0.02099
2011.68,0.02072
1988.53,0.02111
1965.39,0.02085
1942.24,0.02103
1919.1,0.02108
1895.95,0.02087
1872.81,0.02080
1849.66,0.02063
1826.52,0.02028
1803.37,0.01986
1780.23,0.01926
1757.08,0.01795
1733.94,0.01981
1710.79,0.02058
1687.65,0.01920
1664.5,0.01853
1641.36,0.01838
1618.21,0.01884
1595.07,0.01920
1571.93,0.01897
1548.78,0.01845
1525.64,0.01861
1502.49,0.01892
1479.35,0.01887
1456.2,0.01884
1433.06,0.01901
1409.91,0.01837
1386.77,0.01817
1363.62,0.01807
1340.48,0.01800
1317.33,0.01743
1294.19,0.01786
1271.04,0.01967
1247.9,0.02075
1224.75,0.01914
1201.61,0.01876
1178.46,0.01764
1155.32,0.01773
1132.17,0.01890
1109.03,0.01868
1085.88,0.01824
1062.74,0.01956
1039.59,0.02006
1016.45,0.01957
993.302,0.02109
970.157,0.02048
947.013,0.02040
923.868,0.01898
900.723,0.01866
877.578,0.01879
854.433,0.01883
831.288,0.01873
808.143,0.01868
784.998,0.01836
761.853,0.01815
738.708,0.01818
715.563,0.01717
692.419,0.01745
669.274,0.01675
646.129,0.01706
622.984,0.01772
599.839,0.01604

File: Engineered_Flooring_IS_T_220909_R7.dpt
7497.02,0.02021
7473.88,0.03005
7450.73,0.01952
7427.59,0.02472
7404.44,0.02034
7381.3,0.02280
7358.15,0.02220
7335.01,0.01803
7311.86,0.02793
7288.72,0.02987
7265.57,0.03307
7242.43,0.02956
7219.28,0.02599
7196.14,0.02808
7172.99,0.02703
7149.85,0.02171
7126.7,0.02637
7103.56,0.02195
7080.41,0.02188
7057.27,0.02381
7034.12,0.02599
7010.98,0.02392
6987.83,0.02621
6964.69,0.02128
6941.54,0.02866
6918.4,0.02118
6895.25,0.02294
6872.11,0.02280
6848.96,0.02462
6825.82,0.02344
6802.67,0.02908
6779.53,0.02523
6756.38,0.02332
6733.24,0.02039
6710.1,0.02260
6686.95,0.02400
6663.81,0.02373
6640.66,0.02401
6617.52,0.02461
6594.37,0.02418
6571.23,0.02244
6548.08,0.02228
6524.94,0.02580
6501.79,0.01752
6478.65,0.02202
6455.5,0.02568
6432.36,0.01987
6409.21,0.02475
6386.07,0.02139
6362.92,0.02092
6339.78,0.02205
6316.63,0.02172
6293.49,0.01767
6270.34,0.02183
6247.2,0.02218
6224.05,0.02086
6200.91,0.02206
6177.76,0.02347
6154.62,0.02256
6131.47,0.02178
6108.33,0.02329
6085.18,0.02134
6062.04,0.02175
6038.89,0.02063
6015.75,0.02240
5992.6,0.01755
5969.46,0.02024
5946.31,0.02296
5923.17,0.02305
5900.02,0.02291
5876.88,0.02275
5853.73,0.02529
5830.59,0.02141
5807.44,0.02075
5784.3,0.01974
5761.15,0.02144
5738.01,0.02223
5714.86,0.02074
5691.72,0.02288
5668.57,0.02118
5645.43,0.02346
5622.28,0.02302
5599.14,0.02401
5575.99,0.02258
5552.85,0.02078
5529.7,0.02150
5506.56,0.02122
5483.41,0.02209
5460.27,0.01940
5437.13,0.02201
5413.98,0.02157
5390.84,0.02084
5367.69,0.02090
5344.55,0.02284
5321.4,0.02160
5298.26,0.02284
5275.11,0.02256
5251.97,0.02248
5228.82,0.02325
5205.68,0.02246
5182.53,0.02224
5159.39,0.02124
5136.24,0.02261
5113.1,0.02331
5089.95,0.02241
5066.81,0.02084
5043.66,0.02212
5020.52,0.02259
4997.37,0.02269
4974.23,0.02381
4951.08,0.02264
4927.94,0.02316
4904.79,0.02235
4881.65,0.02200
4858.5,0.02219
4835.36,0.02235
4812.21,0.02257
4789.07,0.02300
4765.92,0.02279
4742.78,0.02311
4719.63,0.02228
4696.49,0.02248
4673.34,0.02246
4650.2,0.02327
4627.05,0.02260
4603.91,0.02309
4580.76,0.02255
4557.62,0.02251
4534.47,0.02205
4511.33,0.02275
4488.18,0.02212
4465.04,0.02260
4441.89,0.02342
4418.75,0.02283
4395.6,0.02187
4372.46,0.02238
4349.31,0.02196
4326.17,0.02254
4303.02,0.02323
4279.88,0.02250
4256.73,0.02292
4233.59,0.02288
4210.44,0.02217
4187.3,0.02170
4164.16,0.02264
4141.01,0.02300
4117.87,0.02288
4094.72,0.02318
4071.58,0.02321
4048.43,0.02282
4025.29,0.02276
4002.14,0.02264
3979,0.02346
3955.85,0.02253
3932.71,0.02333
3909.56,0.02320
3886.42,0.02314
3863.27,0.02234
3840.13,0.02277
3816.98,0.02269
3793.84,0.02317
3770.69,0.02259
3747.55,0.02317
3724.4,0.02254
3701.26,0.02214
3678.11,0.02264
3654.97,0.02233
3631.82,0.02270
3608.68,0.02202
3585.53,0.02198
3562.39,0.02159
3539.24,0.02094
3516.1,0.02087
3492.95,0.02054
3469.81,0.02090
3446.66,0.02087
3423.52,0.02086
3400.37,0.02009
3377.23,0.02029
3354.08,0.02013
3330.94,0.02041
3307.79,0.02045
3284.65,0.02034
3261.5,0.02015
3238.36,0.02114
3215.21,0.02095
3192.07,0.02129
3168.92,0.02125
3145.78,0.02095
3122.63,0.02178
3099.49,0.02119
3076.34,0.02130
3053.2,0.02108
3030.05,0.02111
3006.91,0.02087
2983.76,0.02056
2960.62,0.01976
2937.47,0.02005
2914.33,0.02035
2891.18,0.02082
2868.04,0.02031
2844.9,0.02098
2821.75,0.02138
2798.61,0.02185
2775.46,0.02166
2752.32,0.02126
2729.17,0.02114
2706.03,0.02187
2682.88,0.02108
2659.74,0.02152
2636.59,0.02145
2613.45,0.02144
2590.3,0.02172
2567.16,0.02157
2544.01,0.02138
2520.87,0.02163
2497.72,0.02138
2474.58,0.02159
2451.43,0.02158
2428.29,0.02110
2405.14,0.02178
2382,0.02118
2358.85,0.02170
2335.71,0.02136
2312.56,0.02101
2289.42,0.02147
2266.27,0.02128
2243.13,0.02129
2219.98,0.02092
2196.84,0.02111
2173.69,0.02120
2150.55,0.02144
2127.4,0.02126
2104.26,0.02125
2081.11,0.02113
2057.97,0.02082
2034.82,0.02094
2011.68,0.02108
1988.53,0.02092
1965.39,0.02119
1942.24,0.02082
1919.1,0.02105
1895.95,0.02085
1872.81,0.02059
1849.66,0.02071
1826.52,0.02047
1803.37,0.01982
1780.23,0.01919
1757.08,0.01796
1733.94,0.01949
1710.79,0.02087
1687.65,0.01921
1664.5,0.01868
1641.36,0.01872
1618.21,0.01881
1595.07,0.01903
1571.93,0.01865
1548.78,0.01849
1525.64,0.01872
1502.49,0.01879
1479.35,0.01849
1456.2,0.01860
1433.06,0.01851
1409.91,0.01839
1386.77,0.01808
1363.62,0.01833
1340.48,0.01814
1317.33,0.01722
1294.19,0.01800
1271.04,0.01931
1247.9,0.02008
1224.75,0.01954
1201.61,0.01906
1178.46,0.01793
1155.32,0.01802
1132.17,0.01861
1109.03,0.01871
1085.88,0.01868
1062.74,0.01998
1039.59,0.01928
1016.45,0.01948
993.302,0.02099
970.157,0.02062
947.013,0.01979
923.868,0.01931
900.723,0.02019
877.578,0.01892
854.433,0.01910
831.288,0.02011
808.143,0.01932
784.998,0.01893
761.853,0.01832
738.708,0.01806
715.563,0.01764
692.419,0.01779
669.274,0.01637
646.129,0.01683
622.984,0.01505
599.839,0.01510

File: Engineered_Flooring_IS_T_220909_R8.dpt
7497.02,0.02596
7473.88,0.02199
7450.73,0.01901
7427.59,0.02870
7404.44,0.03467
7381.3,0.02462
7358.15,0.02611
7335.01,0.02576
7311.86,0.01788
7288.72,0.02956
7265.57,0.02283
7242.43,0.02686
7219.28,0.02540
7196.14,0.02285
7172.99,0.02736
7149.85,0.02587
7126.7,0.01909
7103.56,0.02690
7080.41,0.01987
7057.27,0.03445
7034.12,0.02351
7010.98,0.02249
6987.83,0.02238
6964.69,0.02477
6941.54,0.02608
6918.4,0.02615
6895.25,0.02683
6872.11,0.02586
6848.96,0.02126
6825.82,0.02382
6802.67,0.02113
6779.53,0.02445
6756.38,0.02303
6733.24,0.02600
6710.1,0.02554
6686.95,0.02212
6663.81,0.02222
6640.66,0.02611
6617.52,0.02143
6594.37,0.02632
6571.23,0.02393
6548.08,0.01932
6524.94,0.01869
6501.79,0.02079
6478.65,0.02088
6455.5,0.02660
6432.36,0.02151
6409.21,0.02171
6386.07,0.02564
6362.92,0.02216
6339.78,0.02273
6316.63,0.01848
6293.49,0.02164
6270.34,0.02348
6247.2,0.02304
6224.05,0.02798
6200.91,0.02474
6177.76,0.02153
6154.62,0.02402
6131.47,0.02044
6108.33,0.02574
6085.18,0.02129
6062.04,0.02460
6038.89,0.02446
6015.75,0.02323
5992.6,0.02307
5969.46,0.02260
5946.31,0.02097
5923.17,0.02143
5900.02,0.02343
5876.88,0.02162
5853.73,0.02346
5830.59,0.02157
5807.44,0.02190
5784.3,0.02027
5761.15,0.02278
5738.01,0.02264
5714.86,0.02064
5691.72,0.02032
5668.57,0.02257
5645.43,0.02115
5622.28,0.02051
5599.14,0.02138
5575.99,0.02159
5552.85,0.02236
5529.7,0.02113
5506.56,0.02134
5483.41,0.02319
5460.27,0.02312
5437.13,0.02349
5413.98,0.02201
5390.84,0.02349
5367.69,0.02239
5344.55,0.02133
5321.4,0.02295
5298.26,0.02438
5275.11,0.02267
5251.97,0.02194
5228.82,0.02237
5205.68,0.02169
5182.53,0.02123
5159.39,0.02273
5136.24,0.02264
5113.1,0.02258
5089.95,0.02219
5066.81,0.02184
5043.66,0.02245
5020.52,0.02267
4997.37,0.02237
4974.23,0.02236
4951.08,0.02237
4927.94,0.02274
4904.79,0.02224
4881.65,0.02241
4858.5,0.02286
4835.36,0.02290
4812.21,0.02253
4789.07,0.02251
4765.92,0.02201
4742.78,0.02335
4719.63,0.02263
4696.49,0.02283
4673.34,0.02335
4650.2,0.02288
4627.05,0.02269
4603.91,0.02140
4580.76,0.02299
4557.62,0.02325
4534.47,0.02242
4511.33,0.02183
4488.18,0.02286
4465.04,0.02205
4441.89,0.02200
4418.75,0.02294
4395.6,0.02229
4372.46,0.02379
4349.31,0.02249
4326.17,0.02234
4303.02,0.02261
4279.88,0.02177
4256.73,0.02300
4233.59,0.02284
4210.44,0.02164
4187.3,0.02254
4164.16,0.02250
4141.01,0.02281
4117.87,0.02270
4094.72,0.02242
4071.58,0.02297
4048.43,0.02243
4025.29,0.02292
4002.14,0.02389
3979,0.02291
3955.85,0.02265
3932.71,0.02269
3909.56,0.02221
3886.42,0.02350
3863.27,0.02337
3840.13,0.02316
3816.98,0.02226
3793.84,0.02278
3770.69,0.02331
3747.55,0.02341
3724.4,0.02273
3701.26,0.02244
3678.11,0.02261
3654.97,0.02229
3631.82,0.02235
3608.68,0.02261
3585.53,0.02173
3562.39,0.02161
3539.24,0.02108
3516.1,0.02061
3492.95,0.02101
3469.81,0.02115
3446.66,0.02114
3423.52,0.02042
3400.37,0.02098
3377.23,0.02110
3354.08,0.02017
3330.94,0.02063
3307.79,0.01971
3284.65,0.02034
3261.5,0.02079
3238.36,0.02089
3215.21,0.02038
3192.07,0.02069
3168.92,0.02066
3145.78,0.02054
3122.63,0.02113
3099.49,0.02150
3076.34,0.02080
3053.2,0.02110
3030.05,0.02143
3006.91,0.02075
2983.76,0.02025
2960.62,0.01949
2937.47,0.01960
2914.33,0.02060
2891.18,0.02045
2868.04,0.02084
2844.9,0.02095
2821.75,0.02144
2798.61,0.02165
2775.46,0.02193
2752.32,0.02127
2729.17,0.02116
2706.03,0.02098
2682.88,0.02159
2659.74,0.02145
2636.59,0.02144
2613.45,0.02111
2590.3,0.02164
2567.16,0.02147
2544.01,0.02159
2520.87,0.02119
2497.72,0.02120
2474.58,0.02148
2451.43,0.02142
2428.29,0.02166
2405.14,0.02150
2382,0.02129
2358.85,0.02115
2335.71,0.02154
2312.56,0.02129
2289.42,0.02112
2266.27,0.02110
2243.13,0.02122
2219.98,0.02080
2196.84,0.02112
2173.69,0.02135
2150.55,0.02107
2127.4,0.02150
2104.26,0.02094
2081.11,0.02085
2057.97,0.02096
2034.82,0.02074
2011.68,0.02074
1988.53,0.02108
1965.39,0.02070
1942.24,0.02080
1919.1,0.02118
1895.95,0.02095
1872.81,0.02064
1849.66,0.02046
1826.52,0.02023
1803.37,0.01971
1780.23,0.01933
1757.08,0.01770
1733.94,0.01963
1710.79,0.02050
1687.65,0.01960
1664.5,0.01862
1641.36,0.01844
1618.21,0.01919
1595.07,0.01886
1571.93,0.01827
1548.78,0.01817
1525.64,0.01903
1502.49,0.01892
1479.35,0.01846
1456.2,0.01871
1433.06,0.01871
1409.91,0.01847
1386.77,0.01796
1363.62,0.01809
1340.48,0.01803
1317.33,0.01725
1294.19,0.01791
1271.04,0.01929
1247.9,0.01993
1224.75,0.01936
1201.61,0.01835
1178.46,0.01783
1155.32,0.01747
1132.17,0.01834
1109.03,0.01885
1085.88,0.01850
1062.74,0.01994
1039.59,0.01991
1016.45,0.01895
993.302,0.02111
970.157,0.01958
947.013,0.01970
923.868,0.01904
900.723,0.01967
877.578,0.01932
854.433,0.01903
831.288,0.01873
808.143,0.01907
784.998,0.01908
761.853,0.01857
738.708,0.01835
715.563,0.01866
692.419,0.01737
669.274,0.01721
646.129,0.01689
622.984,0.01398
599.839,0.01699